condition,subject,trial,cat,x,y,xt,yt,resp,fb,rotation,su,target_angle_left,target_angle_right,rt,mt,ep
"{'cat': 'II', 'resp': 'reach'}",96,0,Right,30.848012616271692,12.415207122616817,1.5424006308135847,0.19501761744604332,Right,Correct,0.0,0.0,-45,45,2007,2400,-0.6
"{'cat': 'II', 'resp': 'reach'}",96,1,Left,29.69346145937771,59.746864538759255,1.4846730729688855,0.938501553549953,Left,Correct,0.0,0.0,-45,45,2010,3445,-2.6
"{'cat': 'II', 'resp': 'reach'}",96,2,Right,75.3434619961885,61.05227958783341,3.7671730998094244,0.9590069651902376,Right,Correct,0.0,0.0,-45,45,2012,1612,-0.74
"{'cat': 'II', 'resp': 'reach'}",96,3,Left,53.48744618130786,62.09116853230318,2.674372309065393,0.9753257945694471,Left,Correct,0.0,0.0,-45,45,2003,3538,-2.52
"{'cat': 'II', 'resp': 'reach'}",96,4,Right,52.16876177789703,42.24264697045492,2.6084380888948515,0.6635459469528416,Right,Correct,0.0,0.0,-45,45,2004,2932,-0.68
"{'cat': 'II', 'resp': 'reach'}",96,5,Right,40.73867420363099,29.706425371543475,2.0369337101815495,0.46662743855827216,Right,Correct,0.0,0.0,-45,45,2001,3740,-0.62
"{'cat': 'II', 'resp': 'reach'}",96,6,Right,55.55400011210982,37.75495139514116,2.7777000056054906,0.593053389698076,Left,Incorrect,0.0,0.0,-45,45,2009,1536,-2.68
"{'cat': 'II', 'resp': 'reach'}",96,7,Right,54.17766186770959,31.294514554398887,2.7088830933854795,0.49157308510879205,Right,Correct,0.0,0.0,-45,45,2005,1004,-0.63
"{'cat': 'II', 'resp': 'reach'}",96,8,Right,55.07411856887851,33.17139682742016,2.7537059284439254,0.5210550829116747,Left,Incorrect,0.0,0.0,-45,45,2007,1409,-2.77
"{'cat': 'II', 'resp': 'reach'}",96,9,Right,40.14390983743729,26.427774241120275,2.0071954918718644,0.41512650703316506,Right,Correct,0.0,0.0,-45,45,2007,729,-0.65
"{'cat': 'II', 'resp': 'reach'}",96,10,Left,64.38975057801518,88.0780898372972,3.219487528900759,1.3835273998753737,Right,Incorrect,0.0,0.0,-45,45,2001,4637,-0.71
"{'cat': 'II', 'resp': 'reach'}",96,11,Right,34.289821635572224,19.892550893768547,1.7144910817786112,0.3124714587451217,Left,Incorrect,0.0,0.0,-45,45,2001,705,-2.57
"{'cat': 'II', 'resp': 'reach'}",96,12,Left,23.155663237392808,47.222769167444724,1.1577831618696406,0.7417735234930548,Right,Incorrect,0.0,0.0,-45,45,2005,1001,-0.69
"{'cat': 'II', 'resp': 'reach'}",96,13,Left,28.495483687266358,44.720675128309345,1.424774184363318,0.702470722233362,Right,Incorrect,0.0,0.0,-45,45,2006,1760,-0.71
"{'cat': 'II', 'resp': 'reach'}",96,14,Right,40.974242981830436,23.78222094805895,2.048712149091522,0.3735702530823565,Right,Correct,0.0,0.0,-45,45,2012,3844,-0.64
"{'cat': 'II', 'resp': 'reach'}",96,15,Left,53.036367038800286,71.16808182993525,2.6518183519400145,1.117905615235009,Left,Correct,0.0,0.0,-45,45,2006,2292,-2.6
"{'cat': 'II', 'resp': 'reach'}",96,16,Right,57.8410407685912,26.3994501050772,2.89205203842956,0.41468159254460407,Left,Incorrect,0.0,0.0,-45,45,2005,1670,-2.62
"{'cat': 'II', 'resp': 'reach'}",96,17,Left,55.064738597218344,82.91592563198265,2.753236929860917,1.3024403141551715,Right,Incorrect,0.0,0.0,-45,45,2005,1117,-0.58
"{'cat': 'II', 'resp': 'reach'}",96,18,Left,35.64375486764218,67.61369482828387,1.782187743382109,1.0620734347729939,Right,Incorrect,0.0,0.0,-45,45,2002,2467,-0.59
"{'cat': 'II', 'resp': 'reach'}",96,19,Right,69.00177988260549,49.66719114058518,3.4500889941302746,0.7801704140585124,Right,Correct,0.0,0.0,-45,45,2004,2945,-0.61
"{'cat': 'II', 'resp': 'reach'}",96,20,Left,38.0850712030515,59.161051824973555,1.9042535601525747,0.9292996289599098,Left,Correct,0.0,0.0,-45,45,2008,1612,-2.6
"{'cat': 'II', 'resp': 'reach'}",96,21,Left,34.00545807400519,49.82016870705892,1.7002729037002595,0.7825733800535021,Right,Incorrect,0.0,0.0,-45,45,2013,906,-0.76
"{'cat': 'II', 'resp': 'reach'}",96,22,Left,58.51317539177655,73.25403988611409,2.9256587695888276,1.1506717677599487,Right,Incorrect,0.0,0.0,-45,45,2005,1328,-0.64
"{'cat': 'II', 'resp': 'reach'}",96,23,Left,50.80569317634614,69.18202065236667,2.540284658817307,1.0867086392098624,Left,Correct,0.0,0.0,-45,45,2009,1014,-2.61
"{'cat': 'II', 'resp': 'reach'}",96,24,Left,26.435741685788464,39.2066563779293,1.321787084289423,0.6158567182436104,Right,Incorrect,0.0,0.0,-45,45,2012,1349,-0.67
"{'cat': 'II', 'resp': 'reach'}",96,25,Right,77.8819956130908,47.13971175509215,3.89409978065454,0.7404688607106896,Right,Correct,0.0,0.0,-45,45,2003,1782,-0.69
"{'cat': 'II', 'resp': 'reach'}",96,26,Left,57.526650813979145,76.7700764198587,2.8763325406989573,1.2059015404807756,Left,Correct,0.0,0.0,-45,45,2002,816,-2.47
"{'cat': 'II', 'resp': 'reach'}",96,27,Right,56.84181740153693,32.27646751628179,2.8420908700768464,0.5069975661649023,Left,Incorrect,0.0,0.0,-45,45,2009,1116,-2.52
"{'cat': 'II', 'resp': 'reach'}",96,28,Right,47.7488821843025,37.929387528399275,2.387444109215125,0.5957934260718974,Right,Correct,0.0,0.0,-45,45,2007,794,-0.7
"{'cat': 'II', 'resp': 'reach'}",96,29,Right,70.00345221561955,37.01060051861012,3.500172610780977,0.5813611534710607,Left,Incorrect,0.0,0.0,-45,45,2007,687,-2.49
"{'cat': 'II', 'resp': 'reach'}",96,30,Left,39.114196511618694,66.7752339090962,1.9557098255809349,1.0489029214527832,Right,Incorrect,0.0,0.0,-45,45,2003,864,-0.77
"{'cat': 'II', 'resp': 'reach'}",96,31,Right,73.44496788211134,51.278003307170984,3.672248394105567,0.8054729924028072,Right,Correct,0.0,0.0,-45,45,2002,1687,-0.64
"{'cat': 'II', 'resp': 'reach'}",96,32,Right,65.36970369278376,39.83606633179028,3.268485184639188,0.6257434666793402,Right,Correct,0.0,0.0,-45,45,2012,1072,-0.6
"{'cat': 'II', 'resp': 'reach'}",96,33,Right,63.37289655190357,40.604545228079374,3.1686448275951786,0.6378147049544433,Right,Correct,0.0,0.0,-45,45,2012,914,-0.62
"{'cat': 'II', 'resp': 'reach'}",96,34,Left,19.791662429776046,37.65782345101089,0.9895831214888022,0.5915277075193862,Left,Correct,0.0,0.0,-45,45,2004,921,-2.63
"{'cat': 'II', 'resp': 'reach'}",96,35,Right,41.5971250158011,18.76663173306442,2.079856250790055,0.2947855619261013,Left,Incorrect,0.0,0.0,-45,45,2006,1159,-2.62
"{'cat': 'II', 'resp': 'reach'}",96,36,Right,36.2750285908556,13.322346482687411,1.8137514295427797,0.20926692919294293,Right,Correct,0.0,0.0,-45,45,2006,1984,-0.66
"{'cat': 'II', 'resp': 'reach'}",96,37,Right,51.6326059159295,40.85358997213275,2.581630295796475,0.6417266906461094,Right,Correct,0.0,0.0,-45,45,2013,883,-0.67
"{'cat': 'II', 'resp': 'reach'}",96,38,Left,62.787417658023244,82.95204880797336,3.139370882901162,1.3030077356767553,Right,Incorrect,0.0,0.0,-45,45,2005,1083,-0.66
"{'cat': 'II', 'resp': 'reach'}",96,39,Right,46.14988093358489,39.10881228046588,2.307494046679244,0.6143197867546695,Left,Incorrect,0.0,0.0,-45,45,2013,958,-2.57
"{'cat': 'II', 'resp': 'reach'}",96,40,Right,36.15047572536869,16.65921658922456,1.8075237862684346,0.26168236225634545,Right,Correct,0.0,0.0,-45,45,2001,1321,-0.63
"{'cat': 'II', 'resp': 'reach'}",96,41,Right,48.09820787087037,17.701588022274695,2.4049103935435183,0.2780558944382563,Right,Correct,0.0,0.0,-45,45,2002,870,-0.62
"{'cat': 'II', 'resp': 'reach'}",96,42,Right,78.50727061713259,57.96844347292423,3.9253635308566293,0.9105661807728698,Right,Correct,0.0,0.0,-45,45,2006,1145,-0.64
"{'cat': 'II', 'resp': 'reach'}",96,43,Left,53.507278858110205,66.14816818150419,2.67536394290551,1.0390529960371782,Right,Incorrect,0.0,0.0,-45,45,2006,908,-0.65
"{'cat': 'II', 'resp': 'reach'}",96,44,Right,41.23644148964841,17.254294932499786,2.061822074482421,0.2710298310140646,Right,Correct,0.0,0.0,-45,45,2004,1258,-0.61
"{'cat': 'II', 'resp': 'reach'}",96,45,Left,16.80066913260751,35.773232482167245,0.8400334566303755,0.5619246218056818,Left,Correct,0.0,0.0,-45,45,2005,945,-2.59
"{'cat': 'II', 'resp': 'reach'}",96,46,Left,24.468836394716952,42.109000242924424,1.2234418197358476,0.6614466290659109,Left,Correct,0.0,0.0,-45,45,2004,956,-2.55
"{'cat': 'II', 'resp': 'reach'}",96,47,Right,39.853193244490875,28.546905659898492,1.9926596622245438,0.4484137455192899,Right,Correct,0.0,0.0,-45,45,2007,1838,-0.64
"{'cat': 'II', 'resp': 'reach'}",96,48,Right,44.41154755577962,31.983344823395473,2.220577377788981,0.5023932056720418,Right,Correct,0.0,0.0,-45,45,2002,775,-0.66
"{'cat': 'II', 'resp': 'reach'}",96,49,Right,73.34201749159453,54.78470595022011,3.667100874579727,0.8605561487114426,Left,Incorrect,0.0,0.0,-45,45,2009,948,-2.54
"{'cat': 'II', 'resp': 'reach'}",96,50,Right,86.45155964272986,63.554672808959054,4.322577982136493,0.9983144659896438,Right,Correct,0.0,0.0,-45,45,2006,1261,-0.61
"{'cat': 'II', 'resp': 'reach'}",96,51,Right,52.971768978897785,43.87699953795694,2.6485884489448894,0.6892182970500413,Right,Correct,0.0,0.0,-45,45,2010,945,-0.59
"{'cat': 'II', 'resp': 'reach'}",96,52,Right,36.25462309677715,22.894441770483986,1.8127311548388576,0.35962505037095893,Left,Incorrect,0.0,0.0,-45,45,2007,1129,-2.68
"{'cat': 'II', 'resp': 'reach'}",96,53,Right,46.86181404644664,38.06167913625769,2.343090702322332,0.5978714577887952,Right,Correct,0.0,0.0,-45,45,2008,1121,-0.57
"{'cat': 'II', 'resp': 'reach'}",96,54,Right,75.95484099779696,63.78746909771752,3.797742049889848,1.0019712215423766,Right,Correct,0.0,0.0,-45,45,2005,1328,-0.7
"{'cat': 'II', 'resp': 'reach'}",96,55,Left,67.29035519213771,86.6852868727874,3.3645177596068856,1.3616493020693632,Right,Incorrect,0.0,0.0,-45,45,2009,858,-0.6
"{'cat': 'II', 'resp': 'reach'}",96,56,Left,32.61772248585649,49.87542926473802,1.6308861242928245,0.7834414108636918,Left,Correct,0.0,0.0,-45,45,2008,974,-2.47
"{'cat': 'II', 'resp': 'reach'}",96,57,Right,52.946658863575585,28.82842076930033,2.6473329431787795,0.4528357745171466,Right,Correct,0.0,0.0,-45,45,2013,946,-0.68
"{'cat': 'II', 'resp': 'reach'}",96,58,Left,29.884150105346862,50.79215320685205,1.4942075052673431,0.7978412768732683,Left,Correct,0.0,0.0,-45,45,2006,1011,-2.6
"{'cat': 'II', 'resp': 'reach'}",96,59,Left,64.01714838181954,85.18439579307426,3.200857419090977,1.3380733601200367,Right,Incorrect,0.0,0.0,-45,45,2012,900,-0.62
"{'cat': 'II', 'resp': 'reach'}",96,60,Right,57.55426368902287,49.05965806978294,2.877713184451143,0.7706273068982864,Left,Incorrect,0.0,0.0,-45,45,2010,1274,-2.54
"{'cat': 'II', 'resp': 'reach'}",96,61,Left,42.10903764259841,57.49237600303335,2.1054518821299206,0.9030881304427586,Left,Correct,0.0,0.0,-45,45,2005,1265,-2.57
"{'cat': 'II', 'resp': 'reach'}",96,62,Left,19.682825555565643,45.48889133536969,0.9841412777782821,0.7145378341957092,Left,Correct,0.0,0.0,-45,45,2008,1140,-2.63
"{'cat': 'II', 'resp': 'reach'}",96,63,Left,18.51898193587028,37.60909020025489,0.9259490967935139,0.5907622074065833,Left,Correct,0.0,0.0,-45,45,2006,851,-2.52
"{'cat': 'II', 'resp': 'reach'}",96,64,Right,41.651984443144016,17.32191097123797,2.0825992221572007,0.2720919412668882,Right,Correct,0.0,0.0,-45,45,2001,1450,-0.67
"{'cat': 'II', 'resp': 'reach'}",96,65,Right,60.216112215248295,50.55052756822113,3.0108056107624144,0.7940458302170591,Right,Correct,0.0,0.0,-45,45,2012,1338,-0.61
"{'cat': 'II', 'resp': 'reach'}",96,66,Left,39.44767942392198,54.734591938460866,1.972383971196099,0.8597689596555188,Left,Correct,0.0,0.0,-45,45,2001,1149,-2.43
"{'cat': 'II', 'resp': 'reach'}",96,67,Left,14.252431148070553,40.90156928931583,0.7126215574035277,0.6424803479980425,Left,Correct,0.0,0.0,-45,45,2001,890,-2.51
"{'cat': 'II', 'resp': 'reach'}",96,68,Right,58.145922523902286,48.012659337447154,2.9072961261951145,0.7541810892691668,Right,Correct,0.0,0.0,-45,45,2003,891,-0.65
"{'cat': 'II', 'resp': 'reach'}",96,69,Left,48.6576494686605,58.350212143724974,2.432882473433025,0.9165629890306616,Right,Incorrect,0.0,0.0,-45,45,2001,1084,-0.66
"{'cat': 'II', 'resp': 'reach'}",96,70,Right,62.970964076427606,50.804097817598034,3.14854820382138,0.7980289023801161,Right,Correct,0.0,0.0,-45,45,2004,1121,-0.63
"{'cat': 'II', 'resp': 'reach'}",96,71,Right,53.06186519280537,25.15280831953139,2.6530932596402685,0.3950993891689602,Right,Correct,0.0,0.0,-45,45,2012,892,-0.65
"{'cat': 'II', 'resp': 'reach'}",96,72,Right,35.715297198536646,13.802140279093699,1.785764859926832,0.21680351252308272,Left,Incorrect,0.0,0.0,-45,45,2009,891,-2.69
"{'cat': 'II', 'resp': 'reach'}",96,73,Right,47.5385400659339,29.72347835741416,2.3769270032966947,0.4668953062339377,Right,Correct,0.0,0.0,-45,45,2004,1034,-0.63
"{'cat': 'II', 'resp': 'reach'}",96,74,Right,38.29002389125195,16.69548207767924,1.9145011945625976,0.2622520192168858,Right,Correct,0.0,0.0,-45,45,2008,1141,-0.67
"{'cat': 'II', 'resp': 'reach'}",96,75,Right,59.06215257424318,51.32770577445759,2.953107628712159,0.8062537169332719,Right,Correct,0.0,0.0,-45,45,2001,1200,-0.64
"{'cat': 'II', 'resp': 'reach'}",96,76,Right,50.445649218973124,24.869544493132636,2.5222824609486563,0.39064989138874995,Right,Correct,0.0,0.0,-45,45,2005,872,-0.61
"{'cat': 'II', 'resp': 'reach'}",96,77,Right,64.48053271766787,48.62159413585907,3.2240266358833933,0.7637462147151971,Right,Correct,0.0,0.0,-45,45,2008,942,-0.66
"{'cat': 'II', 'resp': 'reach'}",96,78,Left,35.63711127255726,50.72127312450409,1.7818555636278632,0.7967278951433172,Left,Correct,0.0,0.0,-45,45,2009,1007,-2.55
"{'cat': 'II', 'resp': 'reach'}",96,79,Right,87.5654743332025,65.30570278235218,4.378273716660125,1.0258195804927805,Right,Correct,0.0,0.0,-45,45,2008,1027,-0.62
"{'cat': 'II', 'resp': 'reach'}",96,80,Right,85.6900026303488,61.69325955040266,4.28450013151744,0.9690754548977667,Right,Correct,0.0,0.0,-45,45,2003,936,-0.64
"{'cat': 'II', 'resp': 'reach'}",96,81,Left,60.96691609016449,75.95663163885146,3.0483458045082243,1.1931239797402091,Right,Incorrect,0.0,0.0,-45,45,2007,879,-0.65
"{'cat': 'II', 'resp': 'reach'}",96,82,Right,68.54888822562378,55.029791104915226,3.427444411281189,0.864405937318913,Right,Correct,0.0,0.0,-45,45,2002,1171,-0.63
"{'cat': 'II', 'resp': 'reach'}",96,83,Left,45.16455084882237,75.75039013023675,2.258227542441119,1.1898843456985628,Left,Correct,0.0,0.0,-45,45,2005,1097,-2.68
"{'cat': 'II', 'resp': 'reach'}",96,84,Left,62.63722128147268,88.79297515960383,3.1318610640736337,1.3947567922589619,Right,Incorrect,0.0,0.0,-45,45,2001,1069,-0.62
"{'cat': 'II', 'resp': 'reach'}",96,85,Left,38.45380726494012,56.916895317201956,1.9226903632470058,0.8940485009683048,Left,Correct,0.0,0.0,-45,45,2013,1328,-2.59
"{'cat': 'II', 'resp': 'reach'}",96,86,Right,63.09273754060053,41.03581587717699,3.154636877030027,0.6445890884690131,Right,Correct,0.0,0.0,-45,45,2008,1016,-0.62
"{'cat': 'II', 'resp': 'reach'}",96,87,Right,60.68862698428758,50.061965489992836,3.034431349214379,0.7863715150381361,Right,Correct,0.0,0.0,-45,45,2001,848,-0.64
"{'cat': 'II', 'resp': 'reach'}",96,88,Right,65.51853707206446,39.1254427525965,3.2759268536032233,0.6145810176000259,Left,Incorrect,0.0,0.0,-45,45,2002,1552,-2.6
"{'cat': 'II', 'resp': 'reach'}",96,89,Left,48.7984698176068,58.45881964979141,2.43992349088034,0.9182689917465767,Left,Correct,0.0,0.0,-45,45,2012,1185,-2.58
"{'cat': 'II', 'resp': 'reach'}",96,90,Right,80.88183020208776,50.84918106750887,4.044091510104388,0.7987370684137154,Left,Incorrect,0.0,0.0,-45,45,2003,1998,-2.7
"{'cat': 'II', 'resp': 'reach'}",96,91,Left,55.5842987299372,79.44119020821425,2.77921493649686,1.2478592977527767,Left,Correct,0.0,0.0,-45,45,2004,1107,-2.52
"{'cat': 'II', 'resp': 'reach'}",96,92,Left,58.67957146671895,68.26676540964573,2.9339785733359474,1.0723318434764042,Left,Correct,0.0,0.0,-45,45,2008,1345,-2.61
"{'cat': 'II', 'resp': 'reach'}",96,93,Left,31.99468950504277,41.69162744148262,1.5997344752521385,0.6548905524318223,Left,Correct,0.0,0.0,-45,45,2004,876,-2.66
"{'cat': 'II', 'resp': 'reach'}",96,94,Right,43.45798711588142,14.21787780068064,2.1728993557940712,0.22333390224127853,Left,Incorrect,0.0,0.0,-45,45,2005,1028,-2.6
"{'cat': 'II', 'resp': 'reach'}",96,95,Left,50.65134123949085,71.93941828923164,2.532567061974542,1.1300217400048664,Right,Incorrect,0.0,0.0,-45,45,2003,1125,-0.7
"{'cat': 'II', 'resp': 'reach'}",96,96,Right,37.05492448378611,20.739977394129536,1.8527462241893056,0.3257828030850787,Left,Incorrect,0.0,0.0,-45,45,2005,1626,-2.57
"{'cat': 'II', 'resp': 'reach'}",96,97,Right,55.14407647629039,24.57596937215979,2.7572038238145193,0.3860384241721248,Right,Correct,0.0,0.0,-45,45,2009,735,-0.72
"{'cat': 'II', 'resp': 'reach'}",96,98,Right,68.46593595725508,43.307407555449934,3.4232967978627538,0.680271167111103,Right,Correct,0.0,0.0,-45,45,2003,816,-0.66
"{'cat': 'II', 'resp': 'reach'}",96,99,Left,50.02729944291845,76.03555546747282,2.501364972145922,1.1943637123411592,Left,Correct,0.0,0.0,-45,45,2001,887,-2.59
"{'cat': 'II', 'resp': 'reach'}",96,100,Left,24.411802375279578,39.12213001394073,1.220590118763979,0.6145289812229048,Left,Correct,0.0,0.0,-45,45,2002,898,-2.56
"{'cat': 'II', 'resp': 'reach'}",96,101,Left,54.91248820112616,81.92150732766655,2.745624410056308,1.2868200279579982,Left,Correct,0.0,0.0,-45,45,2007,1239,-2.63
"{'cat': 'II', 'resp': 'reach'}",96,102,Left,21.503199411604722,38.10705511857746,1.0751599705802362,0.5985842220523214,Left,Correct,0.0,0.0,-45,45,2006,868,-2.47
"{'cat': 'II', 'resp': 'reach'}",96,103,Right,60.418702769239694,50.806842673021364,3.0209351384619847,0.7980720184682816,Right,Correct,0.0,0.0,-45,45,2004,814,-0.64
"{'cat': 'II', 'resp': 'reach'}",96,104,Left,52.26852359638317,59.30836868349977,2.6134261798191587,0.9316136767623892,Right,Incorrect,0.0,0.0,-45,45,2003,762,-0.69
"{'cat': 'II', 'resp': 'reach'}",96,105,Right,63.023847134231126,51.01264744846016,3.1511923567115563,0.8013047923212427,Right,Correct,0.0,0.0,-45,45,2001,1099,-0.68
"{'cat': 'II', 'resp': 'reach'}",96,106,Left,41.9510468434208,74.69233330380949,2.09755234217104,1.1732644279336408,Left,Correct,0.0,0.0,-45,45,2002,1010,-2.51
"{'cat': 'II', 'resp': 'reach'}",96,107,Right,79.50893398409131,64.69887099345445,3.9754466992045656,1.0162874890429512,Right,Correct,0.0,0.0,-45,45,2006,749,-0.7
"{'cat': 'II', 'resp': 'reach'}",96,108,Right,79.51218740100487,51.67726712928581,3.9756093700502437,0.811744613854808,Right,Correct,0.0,0.0,-45,45,2009,766,-0.62
"{'cat': 'II', 'resp': 'reach'}",96,109,Left,30.196540033814124,42.80844197343311,1.5098270016907063,0.672433434076812,Left,Correct,0.0,0.0,-45,45,2004,631,-2.53
"{'cat': 'II', 'resp': 'reach'}",96,110,Left,26.025051761731703,38.31757237416342,1.301252588086585,0.601891019370335,Left,Correct,0.0,0.0,-45,45,2004,907,-2.64
"{'cat': 'II', 'resp': 'reach'}",96,111,Right,76.84408280805843,65.86099150630676,3.8422041404029215,1.0345420353717656,Right,Correct,0.0,0.0,-45,45,2006,845,-0.66
"{'cat': 'II', 'resp': 'reach'}",96,112,Left,23.970443706473247,43.992790697099494,1.1985221853236623,0.6910371403246058,Left,Correct,0.0,0.0,-45,45,2002,842,-2.54
"{'cat': 'II', 'resp': 'reach'}",96,113,Left,51.166122429982394,57.96934606994659,2.55830612149912,0.9105803587337429,Left,Correct,0.0,0.0,-45,45,2009,858,-2.42
"{'cat': 'II', 'resp': 'reach'}",96,114,Left,42.15494672295898,74.87831807209454,2.1077473361479493,1.1761858698422605,Right,Incorrect,0.0,0.0,-45,45,2004,872,-0.74
"{'cat': 'II', 'resp': 'reach'}",96,115,Left,45.537358369335735,63.2504288441051,2.2768679184667864,0.9935354129652226,Left,Correct,0.0,0.0,-45,45,2006,1503,-2.62
"{'cat': 'II', 'resp': 'reach'}",96,116,Left,47.57672041200997,74.50549856142969,2.3788360206004984,1.170329634663162,Right,Incorrect,0.0,0.0,-45,45,2012,1213,-0.64
"{'cat': 'II', 'resp': 'reach'}",96,117,Right,77.13827395549733,54.462185077528474,3.856913697774866,0.8554900026900556,Left,Incorrect,0.0,0.0,-45,45,2002,1225,-2.64
"{'cat': 'II', 'resp': 'reach'}",96,118,Right,66.98414512379843,38.01367154556278,3.3492072561899215,0.5971173563175769,Right,Correct,0.0,0.0,-45,45,2004,898,-0.66
"{'cat': 'II', 'resp': 'reach'}",96,119,Right,66.10806526361584,36.76401485392632,3.3054032631807924,0.5774877949078048,Right,Correct,0.0,0.0,-45,45,2004,1228,-0.65
"{'cat': 'II', 'resp': 'reach'}",96,120,Left,48.79848469788971,59.36440351922448,2.4399242348944856,0.9324938699036784,Right,Incorrect,0.0,0.0,-45,45,2013,1164,-0.69
"{'cat': 'II', 'resp': 'reach'}",96,121,Left,34.79593561268873,66.89761935658689,1.7397967806344365,1.0508253475664984,Left,Correct,0.0,0.0,-45,45,2001,878,-2.56
"{'cat': 'II', 'resp': 'reach'}",96,122,Right,72.53749803224783,61.23385774746963,3.626874901612391,0.9618591882520651,Left,Incorrect,0.0,0.0,-45,45,2007,1070,-2.66
"{'cat': 'II', 'resp': 'reach'}",96,123,Left,50.35262834413251,62.101795473718916,2.5176314172066254,0.975492722174856,Left,Correct,0.0,0.0,-45,45,2001,1375,-2.49
"{'cat': 'II', 'resp': 'reach'}",96,124,Left,65.42761613445717,86.64532874856488,3.271380806722858,1.3610216413218195,Right,Incorrect,0.0,0.0,-45,45,2003,767,-0.71
"{'cat': 'II', 'resp': 'reach'}",96,125,Left,60.50818194414373,87.64297026890267,3.0254090972071865,1.3766925576778666,Left,Correct,0.0,0.0,-45,45,2003,784,-2.46
"{'cat': 'II', 'resp': 'reach'}",96,126,Left,40.348403242999225,49.86172447913831,2.017420162149961,0.7832261365948963,Right,Incorrect,0.0,0.0,-45,45,2006,870,-0.69
"{'cat': 'II', 'resp': 'reach'}",96,127,Right,79.52553202751947,60.848485667811616,3.976276601375974,0.955805777780304,Left,Incorrect,0.0,0.0,-45,45,2009,874,-2.48
"{'cat': 'II', 'resp': 'reach'}",96,128,Left,55.77710948283885,70.86603740187503,2.7888554741419425,1.1131611124537504,Left,Correct,0.0,0.0,-45,45,2003,886,-2.53
"{'cat': 'II', 'resp': 'reach'}",96,129,Right,49.59972628633196,30.636410395900413,2.479986314316598,0.48123560916061353,Right,Correct,0.0,0.0,-45,45,2005,1092,-0.62
"{'cat': 'II', 'resp': 'reach'}",96,130,Left,39.90144979960444,53.28594773845615,1.9950724899802221,0.8370137097735175,Right,Incorrect,0.0,0.0,-45,45,2004,1555,-0.65
"{'cat': 'II', 'resp': 'reach'}",96,131,Left,49.605471589447106,64.32247088565148,2.4802735794723554,1.0103750099755302,Left,Correct,0.0,0.0,-45,45,2002,1253,-2.55
"{'cat': 'II', 'resp': 'reach'}",96,132,Right,31.938904451987888,10.79607047831476,1.5969452225993945,0.16958427851155647,Right,Correct,0.0,0.0,-45,45,2004,634,-0.62
"{'cat': 'II', 'resp': 'reach'}",96,133,Left,37.040183001288284,62.97534524358518,1.8520091500644142,0.9892144098726406,Left,Correct,0.0,0.0,-45,45,2007,773,-2.67
"{'cat': 'II', 'resp': 'reach'}",96,134,Right,68.3266707070455,47.38815824283967,3.4163335353522744,0.7443714490142787,Right,Correct,0.0,0.0,-45,45,2003,1005,-0.64
"{'cat': 'II', 'resp': 'reach'}",96,135,Left,40.44946903892132,64.85269447462642,2.022473451946066,1.0187037426349486,Left,Correct,0.0,0.0,-45,45,2008,968,-2.62
"{'cat': 'II', 'resp': 'reach'}",96,136,Right,68.10734429985804,55.932690140023915,3.4053672149929017,0.878588642197067,Right,Correct,0.0,0.0,-45,45,2003,1107,-0.67
"{'cat': 'II', 'resp': 'reach'}",96,137,Left,32.68319269893931,47.048281127111046,1.6341596349469654,0.7390326717647969,Left,Correct,0.0,0.0,-45,45,2001,643,-2.47
"{'cat': 'II', 'resp': 'reach'}",96,138,Right,58.60988836543792,29.04273147281618,2.9304944182718957,0.45620215917590196,Right,Correct,0.0,0.0,-45,45,2007,765,-0.68
"{'cat': 'II', 'resp': 'reach'}",96,139,Right,72.68401282376088,60.18889973402125,3.6342006411880443,0.945445026160269,Left,Incorrect,0.0,0.0,-45,45,2007,1728,-2.47
"{'cat': 'II', 'resp': 'reach'}",96,140,Left,59.97910943763554,68.77685982033942,2.9989554718817772,1.0803443877427668,Right,Incorrect,0.0,0.0,-45,45,2004,876,-0.66
"{'cat': 'II', 'resp': 'reach'}",96,141,Left,17.51321793184433,31.174378492000983,0.8756608965922166,0.48968599225348963,Left,Correct,0.0,0.0,-45,45,2012,910,-2.66
"{'cat': 'II', 'resp': 'reach'}",96,142,Left,25.145973049011523,52.68656894255252,1.2572986524505763,0.8275986896638757,Left,Correct,0.0,0.0,-45,45,2009,920,-2.61
"{'cat': 'II', 'resp': 'reach'}",96,143,Right,55.512089997256766,31.065079289340815,2.7756044998628386,0.4879691243928877,Right,Correct,0.0,0.0,-45,45,2011,1069,-0.61
"{'cat': 'II', 'resp': 'reach'}",96,144,Right,66.86746096497558,43.195645409836196,3.343373048248779,0.6785156114330553,Right,Correct,0.0,0.0,-45,45,2005,1859,-0.64
"{'cat': 'II', 'resp': 'reach'}",96,145,Left,25.647152166104185,37.631961140709386,1.282357608305209,0.5911214632991459,Left,Correct,0.0,0.0,-45,45,2008,1455,-2.62
"{'cat': 'II', 'resp': 'reach'}",96,146,Left,32.88939430696303,44.462029961151146,1.6444697153481513,0.6984079334482086,Left,Correct,0.0,0.0,-45,45,2006,812,-2.43
"{'cat': 'II', 'resp': 'reach'}",96,147,Right,57.83485180895269,28.731590063363598,2.8917425904476346,0.45131476134508286,Right,Correct,0.0,0.0,-45,45,2004,1516,-0.66
"{'cat': 'II', 'resp': 'reach'}",96,148,Left,27.771469806177166,40.725350253505326,1.3885734903088582,0.6397123058564178,Left,Correct,0.0,0.0,-45,45,2008,921,-2.65
"{'cat': 'II', 'resp': 'reach'}",96,149,Right,81.65145059274094,63.43198356856304,4.082572529637047,0.9963872679081305,Right,Correct,0.0,0.0,-45,45,2005,1587,-0.67
"{'cat': 'II', 'resp': 'reach'}",96,150,Left,14.417075080572918,38.47170195419169,0.7208537540286458,0.6043120811519235,Left,Correct,0.0,0.0,-45,45,2012,872,-2.47
"{'cat': 'II', 'resp': 'reach'}",96,151,Right,41.598335326616905,13.183425572662497,2.0799167663308453,0.20708476464112155,Right,Correct,0.0,0.0,-45,45,2003,2012,-0.64
"{'cat': 'II', 'resp': 'reach'}",96,152,Left,44.07842642133818,54.951046714427015,2.203921321066909,0.8631690233255672,Left,Correct,0.0,0.0,-45,45,2002,1747,-2.5
"{'cat': 'II', 'resp': 'reach'}",96,153,Right,66.39381240500046,37.632752783979484,3.319690620250023,0.5911338984025539,Right,Correct,0.0,0.0,-45,45,2002,1147,-0.66
"{'cat': 'II', 'resp': 'reach'}",96,154,Left,47.07580173390194,63.29524220071281,2.353790086695097,0.99423933952473,Left,Correct,0.0,0.0,-45,45,2002,1311,-2.57
"{'cat': 'II', 'resp': 'reach'}",96,155,Right,55.53420100489586,34.384554658717015,2.7767100502447932,0.5401113215639103,Left,Incorrect,0.0,0.0,-45,45,2009,2031,-2.51
"{'cat': 'II', 'resp': 'reach'}",96,156,Left,21.922907632680307,34.881113749934734,1.0961453816340154,0.5479112535291244,Left,Correct,0.0,0.0,-45,45,2013,1068,-2.71
"{'cat': 'II', 'resp': 'reach'}",96,157,Right,34.715557961734824,21.779470317589592,1.735777898086741,0.34211111974408215,Right,Correct,0.0,0.0,-45,45,2007,1550,-0.72
"{'cat': 'II', 'resp': 'reach'}",96,158,Left,69.32407024676348,84.50544019005389,3.4662035123381743,1.3274083504472247,Left,Correct,0.0,0.0,-45,45,2005,1552,-2.37
"{'cat': 'II', 'resp': 'reach'}",96,159,Right,66.68583829196034,35.24446255216121,3.334291914598017,0.5536187231679511,Right,Correct,0.0,0.0,-45,45,2006,1138,-0.65
"{'cat': 'II', 'resp': 'reach'}",96,160,Left,47.708338416858815,75.26760702476635,2.3854169208429408,1.1823008064114473,Right,Incorrect,0.0,0.0,-45,45,2008,1266,-0.64
"{'cat': 'II', 'resp': 'reach'}",96,161,Left,45.133161333094975,75.30925861049047,2.2566580666547487,1.1829550679900536,Left,Correct,0.0,0.0,-45,45,2007,1441,-2.5
"{'cat': 'II', 'resp': 'reach'}",96,162,Left,47.81465877325324,61.123826856681895,2.390732938662662,0.9601308270612317,Right,Incorrect,0.0,0.0,-45,45,2013,1166,-0.7
"{'cat': 'II', 'resp': 'reach'}",96,163,Left,51.32527939350591,73.76117131796731,2.566263969675296,1.1586377696635213,Left,Correct,0.0,0.0,-45,45,2006,781,-2.54
"{'cat': 'II', 'resp': 'reach'}",96,164,Right,80.60859084264477,63.54712745957083,4.0304295421322385,0.9981959439186096,Left,Incorrect,0.0,0.0,-45,45,2010,1382,-2.61
"{'cat': 'II', 'resp': 'reach'}",96,165,Left,32.78801379716278,64.43177489993224,1.6394006898581392,1.0120919534168917,Right,Incorrect,0.0,0.0,-45,45,2002,1531,-0.64
"{'cat': 'II', 'resp': 'reach'}",96,166,Right,64.87445623992522,54.65784047005147,3.2437228119962613,0.8585633504089829,Left,Incorrect,0.0,0.0,-45,45,2008,1700,-2.5
"{'cat': 'II', 'resp': 'reach'}",96,167,Right,82.4769380309163,68.56691875637442,4.123846901545815,1.0770466412215705,Right,Correct,0.0,0.0,-45,45,2005,1677,-0.71
"{'cat': 'II', 'resp': 'reach'}",96,168,Right,81.47983422959757,59.04329592255863,4.073991711479879,0.9274499235701918,Right,Correct,0.0,0.0,-45,45,2003,1830,-0.72
"{'cat': 'II', 'resp': 'reach'}",96,169,Left,30.387277111846785,62.074818599014655,1.5193638555923394,0.9750689704179175,Left,Correct,0.0,0.0,-45,45,2004,929,-2.54
"{'cat': 'II', 'resp': 'reach'}",96,170,Right,53.070936431372616,35.2580549525796,2.653546821568631,0.5538322320944465,Right,Correct,0.0,0.0,-45,45,2004,1289,-0.69
"{'cat': 'II', 'resp': 'reach'}",96,171,Left,24.981922376461583,46.51445500452037,1.2490961188230791,0.7306473506396709,Left,Correct,0.0,0.0,-45,45,2005,1058,-2.5
"{'cat': 'II', 'resp': 'reach'}",96,172,Left,14.028520436707083,37.67314083239801,0.7014260218353542,0.5917683123835763,Left,Correct,0.0,0.0,-45,45,2009,749,-2.49
"{'cat': 'II', 'resp': 'reach'}",96,173,Left,65.54445580990932,89.21365358049685,3.277222790495466,1.4013647934419684,Right,Incorrect,0.0,0.0,-45,45,2012,996,-0.68
"{'cat': 'II', 'resp': 'reach'}",96,174,Left,54.29124437908808,76.26728927289597,2.714562218954404,1.1980037784446882,Left,Correct,0.0,0.0,-45,45,2011,1089,-2.64
"{'cat': 'II', 'resp': 'reach'}",96,175,Right,44.005296274432865,34.50550076747295,2.200264813721643,0.5420111385976499,Right,Correct,0.0,0.0,-45,45,2012,805,-0.68
"{'cat': 'II', 'resp': 'reach'}",96,176,Right,49.23535665483095,22.535134977692753,2.4617678327415478,0.35398107246786975,Left,Incorrect,0.0,0.0,-45,45,2003,795,-2.54
"{'cat': 'II', 'resp': 'reach'}",96,177,Left,55.04293612432216,69.29515927222923,2.752146806216108,1.0884858164948499,Right,Incorrect,0.0,0.0,-45,45,2012,647,-0.69
"{'cat': 'II', 'resp': 'reach'}",96,178,Left,31.3617286137317,64.099565213231,1.5680864306865852,1.006873615860932,Left,Correct,0.0,0.0,-45,45,2006,1015,-2.6
"{'cat': 'II', 'resp': 'reach'}",96,179,Left,24.66600692952681,56.062005991667,1.2333003464763406,0.88061993084464,Left,Correct,0.0,0.0,-45,45,2012,878,-2.57
"{'cat': 'II', 'resp': 'reach'}",96,180,Right,76.48167450744702,58.111170389482965,3.824083725372351,0.9128081299355221,Right,Correct,0.0,0.0,-45,45,2012,1050,-0.69
"{'cat': 'II', 'resp': 'reach'}",96,181,Right,31.1267970136086,14.750072011051646,1.5563398506804298,0.2316935893492014,Left,Incorrect,0.0,0.0,-45,45,2003,923,-2.48
"{'cat': 'II', 'resp': 'reach'}",96,182,Right,49.199136872440434,30.709088646229247,2.4599568436220216,0.4823772364471576,Right,Correct,0.0,0.0,-45,45,2009,708,-0.76
"{'cat': 'II', 'resp': 'reach'}",96,183,Left,56.327540981817364,72.48432895715126,2.8163770490908684,1.1385811767608616,Left,Correct,0.0,0.0,-45,45,2002,688,-2.51
"{'cat': 'II', 'resp': 'reach'}",96,184,Left,24.277315653555444,36.65513423731066,1.2138657826777723,0.5757775021814143,Left,Correct,0.0,0.0,-45,45,2010,1023,-2.5
"{'cat': 'II', 'resp': 'reach'}",96,185,Right,75.28124918055323,50.71826298028555,3.7640624590276617,0.7966806119085013,Right,Correct,0.0,0.0,-45,45,2004,991,-0.69
"{'cat': 'II', 'resp': 'reach'}",96,186,Left,24.82045511244275,52.48393223758752,1.2410227556221374,0.8244156797455473,Left,Correct,0.0,0.0,-45,45,2006,961,-2.61
"{'cat': 'II', 'resp': 'reach'}",96,187,Left,23.780006944813064,39.77569689804551,1.1890003472406532,0.6247951858315705,Left,Correct,0.0,0.0,-45,45,2003,1075,-2.49
"{'cat': 'II', 'resp': 'reach'}",96,188,Left,27.26390803345641,54.55103393832968,1.3631954016728205,0.85688563733192,Left,Correct,0.0,0.0,-45,45,2004,1332,-2.46
"{'cat': 'II', 'resp': 'reach'}",96,189,Left,47.994209465828554,56.0505544389225,2.3997104732914276,0.8804400502747685,Right,Incorrect,0.0,0.0,-45,45,2001,1943,-0.62
"{'cat': 'II', 'resp': 'reach'}",96,190,Right,51.25001713829077,34.3885789447681,2.562500856914539,0.5401745349013806,Left,Incorrect,0.0,0.0,-45,45,2005,1377,-2.4
"{'cat': 'II', 'resp': 'reach'}",96,191,Left,36.33160100082,68.39901200941148,1.816580050041,1.0744091682078356,Left,Correct,0.0,0.0,-45,45,2012,1385,-2.48
"{'cat': 'II', 'resp': 'reach'}",96,192,Right,57.94873004241072,25.11000427630384,2.897436502120536,0.39442702483022213,Right,Correct,0.0,0.0,-45,45,2007,832,-0.7
"{'cat': 'II', 'resp': 'reach'}",96,193,Left,54.94876519524853,66.3772735552293,2.7474382597624265,1.042651774832142,Right,Incorrect,0.0,0.0,-45,45,2006,843,-0.69
"{'cat': 'II', 'resp': 'reach'}",96,194,Right,42.75100171393969,32.43088556741996,2.1375500856969842,0.5094231592400891,Right,Correct,0.0,0.0,-45,45,2007,1106,-0.69
"{'cat': 'II', 'resp': 'reach'}",96,195,Right,85.520509586961,65.94725843641781,4.27602547934805,1.0358971131411887,Left,Incorrect,0.0,0.0,-45,45,2002,800,-2.51
"{'cat': 'II', 'resp': 'reach'}",96,196,Left,35.48446606394172,54.03046347295879,1.7742233031970858,0.8487085355834951,Left,Correct,0.0,0.0,-45,45,2009,1047,-2.46
"{'cat': 'II', 'resp': 'reach'}",96,197,Left,41.351971361179,71.88521340073598,2.0675985680589495,1.1291702916074335,Left,Correct,0.0,0.0,-45,45,2002,963,-2.54
"{'cat': 'II', 'resp': 'reach'}",96,198,Left,63.36373946687597,81.43621862547043,3.168186973343799,1.279197130849551,Left,Correct,0.0,0.0,-45,45,2002,1669,-2.46
"{'cat': 'II', 'resp': 'reach'}",96,199,Right,76.2973632362123,52.05435035859059,3.814868161810615,0.817667823369687,Left,Incorrect,0.0,0.0,-45,45,2005,1848,-2.43
"{'cat': 'II', 'resp': 'reach'}",96,200,Right,56.68602538191389,49.87051804748663,2.834301269095695,0.7833642656435059,Right,Correct,0.0,0.0,-45,45,2012,747,-0.67
"{'cat': 'II', 'resp': 'reach'}",96,201,Right,66.94958105024514,34.67646743694348,3.347479052512257,0.5446966767617367,Left,Incorrect,0.0,0.0,-45,45,2004,995,-2.42
"{'cat': 'II', 'resp': 'reach'}",96,202,Left,35.350494260599,64.6912416745345,1.7675247130299498,1.016167647981597,Right,Incorrect,0.0,0.0,-45,45,2007,552,-0.64
"{'cat': 'II', 'resp': 'reach'}",96,203,Left,33.55550708880036,60.930031310389644,1.6777753544400182,0.9570866937385809,Left,Correct,0.0,0.0,-45,45,2007,987,-2.62
"{'cat': 'II', 'resp': 'reach'}",96,204,Right,50.11609063824215,29.490075238327556,2.5058045319121076,0.4632290186127006,Right,Correct,0.0,0.0,-45,45,2009,915,-0.64
"{'cat': 'II', 'resp': 'reach'}",96,205,Right,79.04781170620973,49.17818362264554,3.952390585310486,0.7724891019289656,Right,Correct,0.0,0.0,-45,45,2004,1021,-0.66
"{'cat': 'II', 'resp': 'reach'}",96,206,Left,61.26626775230474,82.60894839254581,3.063313387615237,1.2976183269540014,Left,Correct,0.0,0.0,-45,45,2003,1183,-2.45
"{'cat': 'II', 'resp': 'reach'}",96,207,Left,34.82206928698825,47.537869959179496,1.7411034643494128,0.7467231151553261,Left,Correct,0.0,0.0,-45,45,2005,950,-2.57
"{'cat': 'II', 'resp': 'reach'}",96,208,Right,49.00455548514705,22.54482809372036,2.4502277742573524,0.3541333315783833,Left,Incorrect,0.0,0.0,-45,45,2005,829,-2.39
"{'cat': 'II', 'resp': 'reach'}",96,209,Left,65.44620117848613,81.87391240405663,3.272310058924307,1.2860724086461928,Right,Incorrect,0.0,0.0,-45,45,2004,646,-0.66
"{'cat': 'II', 'resp': 'reach'}",96,210,Right,53.0318238153773,23.710935684732753,2.651591190768865,0.37245050678448244,Left,Incorrect,0.0,0.0,-45,45,2011,1259,-2.56
"{'cat': 'II', 'resp': 'reach'}",96,211,Left,32.797464014012334,52.80220023848817,1.639873200700617,0.8294150218130583,Left,Correct,0.0,0.0,-45,45,2009,1096,-2.55
"{'cat': 'II', 'resp': 'reach'}",96,212,Right,60.24955986329927,35.56297007949868,3.0124779931649637,0.5586218277079334,Right,Correct,0.0,0.0,-45,45,2008,1107,-0.63
"{'cat': 'II', 'resp': 'reach'}",96,213,Left,34.74093254990623,66.30450306452119,1.7370466274953116,1.0415086986371085,Left,Correct,0.0,0.0,-45,45,2004,876,-2.68
"{'cat': 'II', 'resp': 'reach'}",96,214,Left,22.30736085054125,41.49729690026684,1.1153680425270625,0.651838015428564,Left,Correct,0.0,0.0,-45,45,2012,897,-2.43
"{'cat': 'II', 'resp': 'reach'}",96,215,Right,75.8289300720203,43.50445316861024,3.7914465036010148,0.6833663523647355,Right,Correct,0.0,0.0,-45,45,2010,926,-0.62
"{'cat': 'II', 'resp': 'reach'}",96,216,Right,38.54763297306208,28.10504719196978,1.9273816486531041,0.4414730489354336,Left,Incorrect,0.0,0.0,-45,45,2012,958,-2.43
"{'cat': 'II', 'resp': 'reach'}",96,217,Right,73.45457411394939,52.454570040934726,3.6727287056974696,0.823954459439059,Right,Correct,0.0,0.0,-45,45,2009,802,-0.66
"{'cat': 'II', 'resp': 'reach'}",96,218,Left,54.95748814219283,83.57099305686012,2.747874407109641,1.312730089203177,Right,Incorrect,0.0,0.0,-45,45,2009,1142,-0.6
"{'cat': 'II', 'resp': 'reach'}",96,219,Left,29.525746626622492,43.681203044574346,1.4762873313311247,0.6861427329239944,Left,Correct,0.0,0.0,-45,45,2008,677,-2.45
"{'cat': 'II', 'resp': 'reach'}",96,220,Right,55.896668944926944,34.02969570083499,2.794833447246347,0.5345372100881969,Right,Correct,0.0,0.0,-45,45,2005,997,-0.62
"{'cat': 'II', 'resp': 'reach'}",96,221,Right,52.785071484426794,42.916324136971404,2.63925357422134,0.6741280431389384,Left,Incorrect,0.0,0.0,-45,45,2006,783,-2.44
"{'cat': 'II', 'resp': 'reach'}",96,222,Left,64.7220080870827,85.666684753716,3.236100404354135,1.3456491373983346,Right,Incorrect,0.0,0.0,-45,45,2007,629,-0.66
"{'cat': 'II', 'resp': 'reach'}",96,223,Left,33.36656781770041,64.71487738980032,1.6683283908850202,1.0165389169288044,Left,Correct,0.0,0.0,-45,45,2006,1460,-2.49
"{'cat': 'II', 'resp': 'reach'}",96,224,Right,74.258592071217,58.57563353836086,3.7129296035608497,0.920103900017412,Right,Correct,0.0,0.0,-45,45,2005,752,-0.66
"{'cat': 'II', 'resp': 'reach'}",96,225,Left,43.071798153440454,57.69607526366126,2.1535899076720226,0.90628783094641,Right,Incorrect,0.0,0.0,-45,45,2005,637,-0.66
"{'cat': 'II', 'resp': 'reach'}",96,226,Left,26.96229098679422,50.42695762032747,1.348114549339711,0.792104798014523,Left,Correct,0.0,0.0,-45,45,2004,926,-2.43
"{'cat': 'II', 'resp': 'reach'}",96,227,Right,77.68823032984278,51.70735774654615,3.884411516492139,0.8122172761654434,Right,Correct,0.0,0.0,-45,45,2009,873,-0.67
"{'cat': 'II', 'resp': 'reach'}",96,228,Right,61.57973919106153,30.317494053965547,3.078986959553076,0.476226082975952,Right,Correct,0.0,0.0,-45,45,2001,924,-0.64
"{'cat': 'II', 'resp': 'reach'}",96,229,Left,44.038118579067316,72.78238100666636,2.201905928953366,1.1432629674065817,Left,Correct,0.0,0.0,-45,45,2002,1153,-2.37
"{'cat': 'II', 'resp': 'reach'}",96,230,Left,32.07472390511942,42.93089136962633,1.603736195255971,0.6743568646943976,Left,Correct,0.0,0.0,-45,45,2007,1060,-2.36
"{'cat': 'II', 'resp': 'reach'}",96,231,Right,64.4055721961521,37.698211352977715,3.220278609807605,0.5921621191999507,Right,Correct,0.0,0.0,-45,45,2004,881,-0.67
"{'cat': 'II', 'resp': 'reach'}",96,232,Right,60.483818199419744,28.456162859144985,3.024190909970987,0.44698836093822303,Right,Correct,0.0,0.0,-45,45,2002,843,-0.69
"{'cat': 'II', 'resp': 'reach'}",96,233,Right,81.16136150223447,61.30726968746607,4.0580680751117235,0.9630123403089581,Right,Correct,0.0,0.0,-45,45,2003,1377,-0.69
"{'cat': 'II', 'resp': 'reach'}",96,234,Left,27.182159058414854,51.140469256312755,1.3591079529207428,0.8033126125838341,Left,Correct,0.0,0.0,-45,45,2008,825,-2.42
"{'cat': 'II', 'resp': 'reach'}",96,235,Right,58.96518133155715,45.361662961697675,2.948259066577857,0.7125393355754283,Right,Correct,0.0,0.0,-45,45,2007,932,-0.72
"{'cat': 'II', 'resp': 'reach'}",96,236,Left,15.308539413102686,33.23569079600746,0.7654269706551343,0.5220650102085946,Left,Correct,0.0,0.0,-45,45,2009,1005,-2.4
"{'cat': 'II', 'resp': 'reach'}",96,237,Left,48.153153190324346,56.751236335152456,2.4076576595162176,0.8914463357632656,Right,Incorrect,0.0,0.0,-45,45,2009,942,-0.67
"{'cat': 'II', 'resp': 'reach'}",96,238,Left,18.6206360660688,42.60548960647738,0.93103180330344,0.6692454657515281,Left,Correct,0.0,0.0,-45,45,2007,1029,-2.49
"{'cat': 'II', 'resp': 'reach'}",96,239,Left,44.48545363840757,58.18965645695423,2.2242726819203784,0.9140409862004064,Right,Incorrect,0.0,0.0,-45,45,2012,973,-0.7
"{'cat': 'II', 'resp': 'reach'}",96,240,Left,33.09952070780579,49.24961972822279,1.6549760353902894,0.7736112176513784,Right,Incorrect,0.0,0.0,-45,45,2002,1186,-0.69
"{'cat': 'II', 'resp': 'reach'}",96,241,Right,80.72355639123994,60.00057764758924,4.036177819561996,0.9424868697440515,Left,Incorrect,0.0,0.0,-45,45,2001,1410,-2.41
"{'cat': 'II', 'resp': 'reach'}",96,242,Left,20.74240636982479,42.586406892863195,1.0371203184912394,0.6689457151870238,Left,Correct,0.0,0.0,-45,45,2009,1066,-2.46
"{'cat': 'II', 'resp': 'reach'}",96,243,Right,51.428392673613445,25.69917188978819,2.571419633680672,0.4036816480614995,Right,Correct,0.0,0.0,-45,45,2011,1006,-0.65
"{'cat': 'II', 'resp': 'reach'}",96,244,Left,20.603960284737482,49.856601979587225,1.030198014236874,0.7831456725601077,Left,Correct,0.0,0.0,-45,45,2013,1052,-2.45
"{'cat': 'II', 'resp': 'reach'}",96,245,Left,24.24356020297688,50.98490596499099,1.212178010148844,0.8008690301179107,Left,Correct,0.0,0.0,-45,45,2005,940,-2.36
"{'cat': 'II', 'resp': 'reach'}",96,246,Left,42.973542453026944,62.98924917446462,2.148677122651347,0.9894328123081749,Left,Correct,0.0,0.0,-45,45,2007,1499,-2.47
"{'cat': 'II', 'resp': 'reach'}",96,247,Left,46.58031203199096,55.804128732622935,2.329015601599548,0.8765692043319366,Left,Correct,0.0,0.0,-45,45,2005,957,-2.45
"{'cat': 'II', 'resp': 'reach'}",96,248,Right,54.0837689964081,45.20249857800367,2.7041884498204047,0.710039187282797,Left,Incorrect,0.0,0.0,-45,45,2006,1103,-2.55
"{'cat': 'II', 'resp': 'reach'}",96,249,Left,50.76269270432375,77.7192107534234,2.538134635216187,1.220810507728759,Right,Incorrect,0.0,0.0,-45,45,2008,1160,-0.68
"{'cat': 'II', 'resp': 'reach'}",96,250,Right,45.10843220486674,22.927022167390962,2.255421610243337,0.3601368220488289,Left,Incorrect,0.0,0.0,-45,45,2009,742,-2.38
"{'cat': 'II', 'resp': 'reach'}",96,251,Right,77.66099260294031,61.07378779698087,3.8830496301470157,0.9593448153494852,Left,Incorrect,0.0,0.0,-45,45,2012,1128,-2.34
"{'cat': 'II', 'resp': 'reach'}",96,252,Left,25.3816324132968,53.8742245876173,1.2690816206648399,0.8462543409115255,Left,Correct,0.0,0.0,-45,45,2009,1002,-2.26
"{'cat': 'II', 'resp': 'reach'}",96,253,Right,40.563345884105,21.609742060721594,2.0281672942052498,0.33944503451966657,Right,Correct,0.0,0.0,-45,45,2014,785,-0.79
"{'cat': 'II', 'resp': 'reach'}",96,254,Left,27.652644662574183,49.58947377306728,1.382632233128709,0.7789496325042595,Left,Correct,0.0,0.0,-45,45,2001,799,-2.48
"{'cat': 'II', 'resp': 'reach'}",96,255,Left,47.051210913369644,75.22749823502718,2.352560545668482,1.1816707790155025,Right,Incorrect,0.0,0.0,-45,45,2004,849,-0.69
"{'cat': 'II', 'resp': 'reach'}",96,256,Left,36.727544167743474,49.70880517755239,1.8363772083871737,0.7808240858226243,Left,Correct,0.0,0.0,-45,45,2005,804,-2.43
"{'cat': 'II', 'resp': 'reach'}",96,257,Right,62.98748447335251,53.95572437021234,3.1493742236676256,0.8475345365028742,Left,Incorrect,0.0,0.0,-45,45,2006,909,-2.47
"{'cat': 'II', 'resp': 'reach'}",96,258,Left,33.15716854840902,45.577621769785594,1.6578584274204509,0.7159316086002632,Left,Correct,0.0,0.0,-45,45,2007,1219,-2.34
"{'cat': 'II', 'resp': 'reach'}",96,259,Right,60.77088538780173,52.96952835316036,3.0385442693900866,0.8320434056920243,Right,Correct,0.0,0.0,-45,45,2007,1068,-0.65
"{'cat': 'II', 'resp': 'reach'}",96,260,Left,59.986371911471636,69.77346023150517,2.9993185955735817,1.095998950394181,Right,Incorrect,0.0,0.0,-45,45,2008,679,-0.71
"{'cat': 'II', 'resp': 'reach'}",96,261,Right,66.38821497231316,54.88007336089709,3.3194107486156583,0.8620541764953161,Left,Incorrect,0.0,0.0,-45,45,2006,686,-2.47
"{'cat': 'II', 'resp': 'reach'}",96,262,Left,47.246027310840915,62.9904078449972,2.362301365542046,0.9894510126623404,Right,Incorrect,0.0,0.0,-45,45,2007,1418,-0.66
"{'cat': 'II', 'resp': 'reach'}",96,263,Left,19.394048067331365,41.620368528945676,0.9697024033665683,0.6537712200511778,Left,Correct,0.0,0.0,-45,45,2011,626,-2.38
"{'cat': 'II', 'resp': 'reach'}",96,264,Left,45.09842112096219,55.69750374835104,2.2549210560481097,0.8748943429955479,Right,Incorrect,0.0,0.0,-45,45,2009,586,-0.67
"{'cat': 'II', 'resp': 'reach'}",96,265,Right,66.01600264385513,45.74048871677975,3.3008001321927565,0.7184899166212105,Left,Incorrect,0.0,0.0,-45,45,2005,616,-2.42
"{'cat': 'II', 'resp': 'reach'}",96,266,Left,31.87616023772272,41.93160531815038,1.593808011886136,0.6586601161036397,Left,Correct,0.0,0.0,-45,45,2012,936,-2.4
"{'cat': 'II', 'resp': 'reach'}",96,267,Left,57.651051099663825,66.66839109588024,2.882552554983191,1.0472246384673425,Right,Incorrect,0.0,0.0,-45,45,2005,973,-0.68
"{'cat': 'II', 'resp': 'reach'}",96,268,Left,33.76717882597144,63.11134175950759,1.688358941298572,0.9913506381493189,Left,Correct,0.0,0.0,-45,45,2007,1102,-2.37
"{'cat': 'II', 'resp': 'reach'}",96,269,Left,19.997900020408718,45.86726201938389,0.9998950010204359,0.7204812670018726,Left,Correct,0.0,0.0,-45,45,2002,1046,-2.38
"{'cat': 'II', 'resp': 'reach'}",96,270,Right,50.0267143570307,25.343350462495067,2.5013357178515347,0.39809241815163,Left,Incorrect,0.0,0.0,-45,45,2012,1409,-2.45
"{'cat': 'II', 'resp': 'reach'}",96,271,Left,33.465703901693836,51.94306907809458,1.6732851950846919,0.8159198211032455,Left,Correct,0.0,0.0,-45,45,2003,941,-2.3
"{'cat': 'II', 'resp': 'reach'}",96,272,Right,78.75445110653627,52.26624051395322,3.9377225553268134,0.8209961861469632,Right,Correct,0.0,0.0,-45,45,2002,1248,-0.72
"{'cat': 'II', 'resp': 'reach'}",96,273,Left,12.462442113622657,34.25961016165648,0.6231221056811329,0.5381486979935511,Left,Correct,0.0,0.0,-45,45,2008,908,-2.46
"{'cat': 'II', 'resp': 'reach'}",96,274,Left,29.941872653170247,58.02134975656632,1.4970936326585125,0.9113972307329634,Left,Correct,0.0,0.0,-45,45,2004,840,-2.42
"{'cat': 'II', 'resp': 'reach'}",96,275,Right,44.50299822667935,18.03273252511187,2.2251499113339674,0.2832575001252059,Right,Correct,0.0,0.0,-45,45,2005,1104,-0.66
"{'cat': 'II', 'resp': 'reach'}",96,276,Right,68.03273400379425,50.16055353604658,3.4016367001897123,0.7879201324442072,Left,Incorrect,0.0,0.0,-45,45,2009,1597,-2.47
"{'cat': 'II', 'resp': 'reach'}",96,277,Left,26.877110405066876,39.594316756914694,1.343855520253344,0.6219460732371522,Left,Correct,0.0,0.0,-45,45,2007,910,-2.38
"{'cat': 'II', 'resp': 'reach'}",96,278,Right,45.364890638593636,36.77235266525221,2.268244531929682,0.5776187649418468,Right,Correct,0.0,0.0,-45,45,2002,979,-0.68
"{'cat': 'II', 'resp': 'reach'}",96,279,Left,37.061788350862265,48.136366466995916,1.8530894175431132,0.7561242763161022,Left,Correct,0.0,0.0,-45,45,2003,834,-2.35
"{'cat': 'II', 'resp': 'reach'}",96,280,Right,50.91250694223571,40.194400840054264,2.545625347111786,0.6313721719727894,Right,Correct,0.0,0.0,-45,45,2012,1015,-0.66
"{'cat': 'II', 'resp': 'reach'}",96,281,Left,56.423430995025846,65.62757810748822,2.821171549751292,1.0308755862768766,Right,Incorrect,0.0,0.0,-45,45,2013,3029,-0.77
"{'cat': 'II', 'resp': 'reach'}",96,282,Right,65.63505653182055,36.81818775992286,3.2817528265910276,0.5783387409253163,Right,Correct,0.0,0.0,-45,45,2004,1520,-0.64
"{'cat': 'II', 'resp': 'reach'}",96,283,Left,28.148774120301063,59.651743858784975,1.407438706015053,0.9370074014028947,Left,Correct,0.0,0.0,-45,45,2012,776,-2.51
"{'cat': 'II', 'resp': 'reach'}",96,284,Left,65.88969116722511,82.22070312125287,3.2944845583612556,1.2915197844935769,Right,Incorrect,0.0,0.0,-45,45,2005,1442,-0.62
"{'cat': 'II', 'resp': 'reach'}",96,285,Right,80.34000459168145,56.192845061716156,4.017000229584073,0.8826751461509849,Right,Correct,0.0,0.0,-45,45,2007,1915,-0.63
"{'cat': 'II', 'resp': 'reach'}",96,286,Right,43.66471727253736,21.50196770638428,2.183235863626868,0.33775211892050916,Right,Correct,0.0,0.0,-45,45,2004,1173,-0.65
"{'cat': 'II', 'resp': 'reach'}",96,287,Right,72.67337218533548,50.16246423802601,3.633668609266774,0.7879501456807162,Right,Correct,0.0,0.0,-45,45,2008,752,-0.67
"{'cat': 'II', 'resp': 'reach'}",96,288,Left,46.60480808721208,71.09338988308491,2.3302404043606035,1.1167323568774723,Right,Incorrect,0.0,0.0,-45,45,2004,590,-0.68
"{'cat': 'II', 'resp': 'reach'}",96,289,Right,84.84524159031822,64.49511570673785,4.242262079515911,1.0130869084835565,Left,Incorrect,0.0,0.0,-45,45,2005,766,-2.38
"{'cat': 'II', 'resp': 'reach'}",96,290,Right,69.25270771269737,46.22080135261539,3.4626353856348686,0.7260346498620484,Left,Incorrect,0.0,0.0,-45,45,2008,899,-2.44
"{'cat': 'II', 'resp': 'reach'}",96,291,Right,50.59137275300437,36.73328765341212,2.5295686376502187,0.5770051331708008,Left,Incorrect,0.0,0.0,-45,45,2009,938,-2.38
"{'cat': 'II', 'resp': 'reach'}",96,292,Left,38.25066715549952,54.646299038002304,1.912533357774976,0.858382058018295,Right,Incorrect,0.0,0.0,-45,45,2002,596,-0.66
"{'cat': 'II', 'resp': 'reach'}",96,293,Right,70.48693783691249,61.22485295860804,3.5243468918456244,0.9617177413593917,Right,Correct,0.0,0.0,-45,45,2002,1178,-0.69
"{'cat': 'II', 'resp': 'reach'}",96,294,Right,44.99471293685742,36.282652349099685,2.2497356468428706,0.5699265703634201,Left,Incorrect,0.0,0.0,-45,45,2008,932,-2.42
"{'cat': 'II', 'resp': 'reach'}",96,295,Left,31.976118126999452,60.60909199424877,1.5988059063499724,0.9520453907493993,Left,Correct,0.0,0.0,-45,45,2004,910,-2.34
"{'cat': 'II', 'resp': 'reach'}",96,296,Right,69.95384492057718,46.340070821768755,3.4976922460288593,0.7279081303024972,Right,Correct,0.0,0.0,-45,45,2001,872,-0.71
"{'cat': 'II', 'resp': 'reach'}",96,297,Right,87.90327581574098,64.7206370754498,4.395163790787049,1.0166293898594214,Right,Correct,0.0,0.0,-45,45,2003,566,-0.68
"{'cat': 'II', 'resp': 'reach'}",96,298,Left,18.524436226785355,35.264325207946925,0.9262218113392677,0.5539307250354372,Left,Correct,0.0,0.0,-45,45,2001,706,-2.44
"{'cat': 'II', 'resp': 'reach'}",96,299,Left,33.99868997978105,64.75316677406123,1.6999344989890524,1.017140365170327,Left,Correct,0.0,0.0,-45,45,2003,656,-2.38
"{'cat': 'II', 'resp': 'reach'}",96,300,Left,46.18647639697494,74.59542176376263,2.309323819848747,1.1717421450223442,Left,Correct,0.0,0.0,-45,45,2007,1007,-2.35
"{'cat': 'II', 'resp': 'reach'}",96,301,Right,75.03149256896485,57.558638441611635,3.7515746284482425,0.9041289783939909,Right,Correct,0.0,0.0,-45,45,2011,766,-0.76
"{'cat': 'II', 'resp': 'reach'}",96,302,Right,69.33218254925897,50.63939060328747,3.4666091274629487,0.7954416875077595,Right,Correct,0.0,0.0,-45,45,2001,623,-0.67
"{'cat': 'II', 'resp': 'reach'}",96,303,Left,39.200595229700184,48.73218755148962,1.9600297614850093,0.7654834120255989,Left,Correct,0.0,0.0,-45,45,2001,667,-2.45
"{'cat': 'II', 'resp': 'reach'}",96,304,Left,47.24407097652241,62.22822813546025,2.3622035488261206,0.9774787217813579,Left,Correct,0.0,0.0,-45,45,2004,716,-2.35
"{'cat': 'II', 'resp': 'reach'}",96,305,Left,68.29510530603497,88.2090720498164,3.4147552653017486,1.3855848636583799,Right,Incorrect,0.0,0.0,-45,45,2001,622,-0.73
"{'cat': 'II', 'resp': 'reach'}",96,306,Left,28.117504853687088,47.982225681864506,1.4058752426843544,0.7537030385251651,Left,Correct,0.0,0.0,-45,45,2006,1018,-2.36
"{'cat': 'II', 'resp': 'reach'}",96,307,Left,60.55623001170666,70.71076145346332,3.027811500585333,1.1107220435597034,Right,Incorrect,0.0,0.0,-45,45,2005,1060,-0.7
"{'cat': 'II', 'resp': 'reach'}",96,308,Left,50.44187559331655,58.50084776846659,2.522093779665828,0.9189291678909473,Left,Correct,0.0,0.0,-45,45,2009,775,-2.37
"{'cat': 'II', 'resp': 'reach'}",96,309,Right,44.40211192429337,19.26779182439131,2.2201055962146685,0.3026577662320261,Left,Incorrect,0.0,0.0,-45,45,2005,702,-2.38
"{'cat': 'II', 'resp': 'reach'}",96,310,Left,33.06372147701882,42.24631815447735,1.6531860738509407,0.6636036137766157,Right,Incorrect,0.0,0.0,-45,45,2005,615,-0.72
"{'cat': 'II', 'resp': 'reach'}",96,311,Right,81.24851799377629,54.834786707818125,4.062425899688815,0.8613428154122234,Right,Correct,0.0,0.0,-45,45,2009,1852,-0.64
"{'cat': 'II', 'resp': 'reach'}",96,312,Right,51.75469733223313,43.829665846822984,2.5877348666116564,0.6884747811683728,Right,Correct,0.0,0.0,-45,45,2005,643,-0.72
"{'cat': 'II', 'resp': 'reach'}",96,313,Right,75.37654367396586,47.97629140925682,3.7688271836982925,0.7536098231890217,Left,Incorrect,0.0,0.0,-45,45,2001,614,-2.42
"{'cat': 'II', 'resp': 'reach'}",96,314,Right,60.85421229487414,53.808384739012546,3.042710614743707,0.8452201309880748,Right,Correct,0.0,0.0,-45,45,2008,1350,-0.68
"{'cat': 'II', 'resp': 'reach'}",96,315,Left,41.663811066676566,50.41768598514727,2.083190553333828,0.7919591595096787,Left,Correct,0.0,0.0,-45,45,2005,1028,-2.42
"{'cat': 'II', 'resp': 'reach'}",96,316,Right,68.40248846917744,35.33095090509838,3.4201244234588724,0.5549772790389937,Right,Correct,0.0,0.0,-45,45,2012,903,-0.7
"{'cat': 'II', 'resp': 'reach'}",96,317,Right,70.86558453295106,55.85848967013578,3.5432792266475532,0.8774231039415996,Right,Correct,0.0,0.0,-45,45,2007,867,-0.7
"{'cat': 'II', 'resp': 'reach'}",96,318,Left,15.497362616424883,42.08287240418106,0.7748681308212442,0.6610362139346593,Left,Correct,0.0,0.0,-45,45,2002,874,-2.47
"{'cat': 'II', 'resp': 'reach'}",96,319,Right,70.40442551923297,43.08907546360061,3.5202212759616485,0.6768416146321193,Right,Correct,0.0,0.0,-45,45,2002,856,-0.66
"{'cat': 'II', 'resp': 'reach'}",96,320,Left,23.682738395624707,42.22091149462061,1.1841369197812355,0.6632045268968249,Left,Correct,0.0,0.0,-45,45,2005,851,-2.36
"{'cat': 'II', 'resp': 'reach'}",96,321,Right,40.91359648429247,22.487302975059304,2.0456798242146235,0.35322972912747097,Left,Incorrect,0.0,0.0,-45,45,2005,875,-2.45
"{'cat': 'II', 'resp': 'reach'}",96,322,Left,48.51236820918396,56.65182314757075,2.4256184104591982,0.8898847570643822,Right,Incorrect,0.0,0.0,-45,45,2008,627,-0.69
"{'cat': 'II', 'resp': 'reach'}",96,323,Left,27.25169580429556,40.56225951131738,1.362584790214778,0.6371504824687869,Left,Correct,0.0,0.0,-45,45,2001,865,-2.37
"{'cat': 'II', 'resp': 'reach'}",96,324,Left,40.45893162826521,55.192903132088276,2.022946581413261,0.866968095050308,Left,Correct,0.0,0.0,-45,45,2003,829,-2.5
"{'cat': 'II', 'resp': 'reach'}",96,325,Left,41.32405338085906,55.82679238846757,2.066202669042953,0.8769252042054614,Left,Correct,0.0,0.0,-45,45,2005,873,-2.42
"{'cat': 'II', 'resp': 'reach'}",96,326,Right,64.05590328308963,55.22791949337997,3.2027951641544816,0.8675181307672551,Right,Correct,0.0,0.0,-45,45,2007,965,-0.75
"{'cat': 'II', 'resp': 'reach'}",96,327,Right,75.40011227972023,62.58046806913369,3.7700056139860116,0.983011693721005,Right,Correct,0.0,0.0,-45,45,2005,842,-0.74
"{'cat': 'II', 'resp': 'reach'}",96,328,Right,81.75032031410926,68.38947581278316,4.0875160157054635,1.074259373981482,Right,Correct,0.0,0.0,-45,45,2011,922,-0.74
"{'cat': 'II', 'resp': 'reach'}",96,329,Right,66.9534661958858,47.1421893100272,3.3476733097942897,0.7405077780526036,Right,Correct,0.0,0.0,-45,45,2011,1251,-0.7
"{'cat': 'II', 'resp': 'reach'}",96,330,Left,27.132885138894245,52.0926364024963,1.3566442569447121,0.818269219141033,Left,Correct,0.0,0.0,-45,45,2006,843,-2.35
"{'cat': 'II', 'resp': 'reach'}",96,331,Left,47.006530123698184,65.58114656870106,2.350326506184909,1.0301462413711335,Left,Correct,0.0,0.0,-45,45,2011,749,-2.45
"{'cat': 'II', 'resp': 'reach'}",96,332,Left,38.00671077448683,63.69360535933928,1.9003355387243415,1.0004968133877388,Left,Correct,0.0,0.0,-45,45,2004,708,-2.5
"{'cat': 'II', 'resp': 'reach'}",96,333,Left,51.87207081661466,74.55940637318781,2.593603540830733,1.1711764165901142,Left,Correct,0.0,0.0,-45,45,2011,731,-2.5
"{'cat': 'II', 'resp': 'reach'}",96,334,Right,37.639523390590405,17.037471341983768,1.88197616952952,0.26762397401861415,Left,Incorrect,0.0,0.0,-45,45,2011,637,-2.46
"{'cat': 'II', 'resp': 'reach'}",96,335,Left,63.800635158794385,82.72952478456526,3.1900317579397193,1.2995123364908245,Right,Incorrect,0.0,0.0,-45,45,2009,1043,-0.73
"{'cat': 'II', 'resp': 'reach'}",96,336,Left,24.604556559526728,56.27372938351137,1.2302278279763363,0.8839456741066971,Left,Correct,0.0,0.0,-45,45,2008,1083,-2.33
"{'cat': 'II', 'resp': 'reach'}",96,337,Left,39.033615197743345,58.87478878701048,1.9516807598871673,0.9248030196746143,Left,Correct,0.0,0.0,-45,45,2008,641,-2.4
"{'cat': 'II', 'resp': 'reach'}",96,338,Right,85.13066494386226,56.98850668401276,4.256533247193113,0.8951733696877368,Right,Correct,0.0,0.0,-45,45,2005,774,-0.73
"{'cat': 'II', 'resp': 'reach'}",96,339,Left,38.18675663989475,60.61056708623613,1.9093378319947376,0.9520685614401537,Left,Correct,0.0,0.0,-45,45,2007,1053,-2.33
"{'cat': 'II', 'resp': 'reach'}",96,340,Left,42.69095902693058,55.697474974013616,2.134547951346529,0.8748938910093126,Left,Correct,0.0,0.0,-45,45,2011,905,-2.5
"{'cat': 'II', 'resp': 'reach'}",96,341,Right,33.930449006959435,11.49094609875139,1.6965224503479717,0.1804993592331683,Left,Incorrect,0.0,0.0,-45,45,2005,883,-2.4
"{'cat': 'II', 'resp': 'reach'}",96,342,Left,37.9539928529214,66.57158759894547,1.8976996426460702,1.0457040526932824,Left,Correct,0.0,0.0,-45,45,2006,845,-2.37
"{'cat': 'II', 'resp': 'reach'}",96,343,Right,72.80984477694078,62.40512192968001,3.640492238847039,0.98025736300329,Right,Correct,0.0,0.0,-45,45,2008,839,-0.71
"{'cat': 'II', 'resp': 'reach'}",96,344,Right,75.54791158425242,61.03218479141116,3.777395579212621,0.95869131686616,Right,Correct,0.0,0.0,-45,45,2007,843,-0.73
"{'cat': 'II', 'resp': 'reach'}",96,345,Left,29.162185316998055,51.58205321995501,1.4581092658499029,0.8102489972644419,Left,Correct,0.0,0.0,-45,45,2008,870,-2.44
"{'cat': 'II', 'resp': 'reach'}",96,346,Left,45.70546590307247,68.49777817896019,2.285273295153624,1.0759605835712227,Left,Correct,0.0,0.0,-45,45,2001,772,-2.57
"{'cat': 'II', 'resp': 'reach'}",96,347,Right,64.59217959486175,46.16537733127663,3.2296089797430874,0.7251640513706973,Right,Correct,0.0,0.0,-45,45,2011,777,-0.72
"{'cat': 'II', 'resp': 'reach'}",96,348,Right,56.337441787637076,47.5446505333022,2.816872089381854,0.7468296241645812,Right,Correct,0.0,0.0,-45,45,2013,884,-0.7
"{'cat': 'II', 'resp': 'reach'}",96,349,Left,59.281923391661024,71.97308676175352,2.9640961695830517,1.1305506031345283,Right,Incorrect,0.0,0.0,-45,45,2003,1016,-0.67
"{'cat': 'II', 'resp': 'reach'}",96,350,Right,35.98915258920778,14.275490140536448,1.7994576294603888,0.22423887475951415,Left,Incorrect,0.0,0.0,-45,45,2007,930,-2.4
"{'cat': 'II', 'resp': 'reach'}",96,351,Left,52.58137180865982,76.65881390436168,2.629068590432991,1.2041538329742485,Right,Incorrect,0.0,0.0,-45,45,2001,915,-0.69
"{'cat': 'II', 'resp': 'reach'}",96,352,Right,41.10987197609687,18.467591229024602,2.0554935988048437,0.29008824467301497,Right,Correct,0.0,0.0,-45,45,2012,1628,-0.69
"{'cat': 'II', 'resp': 'reach'}",96,353,Right,56.779202271201314,30.345792362085376,2.8389601135600655,0.4766705917604434,Left,Incorrect,0.0,0.0,-45,45,2003,850,-2.42
"{'cat': 'II', 'resp': 'reach'}",96,354,Left,55.126469962128006,66.60142593721318,2.7563234981064006,1.0461727522147681,Left,Correct,0.0,0.0,-45,45,2007,609,-2.48
"{'cat': 'II', 'resp': 'reach'}",96,355,Right,88.57874114826703,67.36638279525708,4.428937057413351,1.0581886664424875,Right,Correct,0.0,0.0,-45,45,2001,690,-0.7
"{'cat': 'II', 'resp': 'reach'}",96,356,Right,45.61044588819316,19.11822753068019,2.2805222944096584,0.30030841580021506,Left,Incorrect,0.0,0.0,-45,45,2012,718,-2.39
"{'cat': 'II', 'resp': 'reach'}",96,357,Right,63.13843728622994,43.26783082437913,3.156921864311497,0.6796494972731774,Right,Correct,0.0,0.0,-45,45,2010,988,-0.72
"{'cat': 'II', 'resp': 'reach'}",96,358,Left,66.06473742982668,87.38339044665268,3.303236871491334,1.3726150873648628,Right,Incorrect,0.0,0.0,-45,45,2008,743,-0.71
"{'cat': 'II', 'resp': 'reach'}",96,359,Right,75.15730640138418,48.01323161317314,3.7578653200692087,0.7541900785552498,Right,Correct,0.0,0.0,-45,45,2002,1416,-0.71
"{'cat': 'II', 'resp': 'reach'}",96,360,Right,68.33730874562552,39.03908521864764,3.416865437281276,0.6132245166288466,Left,Incorrect,0.0,0.0,-45,45,2009,689,-2.29
"{'cat': 'II', 'resp': 'reach'}",96,361,Left,51.24745388131048,73.09844916915814,2.562372694065524,1.1482277544931707,Left,Correct,0.0,0.0,-45,45,2002,1421,-2.39
"{'cat': 'II', 'resp': 'reach'}",96,362,Left,25.694419437313062,57.90995934467686,1.2847209718656531,0.909647514234602,Left,Correct,0.0,0.0,-45,45,2005,1503,-2.46
"{'cat': 'II', 'resp': 'reach'}",96,363,Right,70.83477991148543,54.92482339507679,3.5417389955742715,0.8627571083884503,Right,Correct,0.0,0.0,-45,45,2009,665,-0.73
"{'cat': 'II', 'resp': 'reach'}",96,364,Right,38.149454521249496,23.995927166900433,1.9074727260624746,0.37692714251805065,Left,Incorrect,0.0,0.0,-45,45,2011,561,-2.24
"{'cat': 'II', 'resp': 'reach'}",96,365,Left,60.3125077247833,68.97849541046962,3.015625386239165,1.0835116721860432,Left,Correct,0.0,0.0,-45,45,2002,586,-2.49
"{'cat': 'II', 'resp': 'reach'}",96,366,Right,49.82836417861298,28.80311580505672,2.491418208930649,0.45243828506831124,Right,Correct,0.0,0.0,-45,45,2005,872,-0.71
"{'cat': 'II', 'resp': 'reach'}",96,367,Left,47.90886494491919,65.64146097989966,2.395443247245959,1.0310936579267693,Right,Incorrect,0.0,0.0,-45,45,2004,1288,-0.71
"{'cat': 'II', 'resp': 'reach'}",96,368,Right,37.740957412044395,28.541695074151,1.8870478706022198,0.44833189782976385,Right,Correct,0.0,0.0,-45,45,2010,623,-0.74
"{'cat': 'II', 'resp': 'reach'}",96,369,Right,74.88219210421853,55.296464512270354,3.7441096052109266,0.8685948334061864,Left,Incorrect,0.0,0.0,-45,45,2007,633,-2.39
"{'cat': 'II', 'resp': 'reach'}",96,370,Left,58.28008399311746,70.88845120825638,2.9140041996558725,1.1135131877010838,Left,Correct,0.0,0.0,-45,45,2005,599,-2.36
"{'cat': 'II', 'resp': 'reach'}",96,371,Left,48.57184778820475,61.129849327953856,2.4285923894102375,0.960225427818754,Right,Incorrect,0.0,0.0,-45,45,2001,603,-0.75
"{'cat': 'II', 'resp': 'reach'}",96,372,Right,66.71283752493075,52.40957704371428,3.3356418762465374,0.8232477110914052,Right,Correct,0.0,0.0,-45,45,2011,535,-0.7
"{'cat': 'II', 'resp': 'reach'}",96,373,Right,62.0964601890133,38.103903297548555,3.1048230094506652,0.5985347133633722,Left,Incorrect,0.0,0.0,-45,45,2007,722,-2.45
"{'cat': 'II', 'resp': 'reach'}",96,374,Right,59.46632001729929,49.050750614661084,2.9733160008649646,0.7704873889204215,Left,Incorrect,0.0,0.0,-45,45,2002,592,-2.5
"{'cat': 'II', 'resp': 'reach'}",96,375,Left,31.81951152076802,52.07621331030797,1.590975576038401,0.8180112458121925,Right,Incorrect,0.0,0.0,-45,45,2008,798,-0.73
"{'cat': 'II', 'resp': 'reach'}",96,376,Right,32.51572212362988,15.982183665641223,1.6257861061814938,0.2510475539615063,Left,Incorrect,0.0,0.0,-45,45,2003,529,-2.32
"{'cat': 'II', 'resp': 'reach'}",96,377,Left,24.236538588551927,44.93765766972544,1.2118269294275963,0.7058790760237124,Right,Incorrect,0.0,0.0,-45,45,2003,553,-0.71
"{'cat': 'II', 'resp': 'reach'}",96,378,Left,45.283680325536615,53.00601329561255,2.2641840162768307,0.8326165098278964,Left,Correct,0.0,0.0,-45,45,2012,696,-2.42
"{'cat': 'II', 'resp': 'reach'}",96,379,Left,37.419538939501,52.28084245117437,1.8709769469750501,0.8212255528404739,Right,Incorrect,0.0,0.0,-45,45,2002,1084,-0.71
"{'cat': 'II', 'resp': 'reach'}",96,380,Right,85.12868925422893,56.615518756157826,4.2564344627114465,0.8893144890176029,Right,Correct,0.0,0.0,-45,45,2004,1124,-0.65
"{'cat': 'II', 'resp': 'reach'}",96,381,Right,46.45882906263555,31.536898399045235,2.3229414531317776,0.49538044163724115,Left,Incorrect,0.0,0.0,-45,45,2001,1013,-2.45
"{'cat': 'II', 'resp': 'reach'}",96,382,Right,62.40611474830954,32.74068212104917,3.120305737415477,0.5142894321250338,Right,Correct,0.0,0.0,-45,45,2012,998,-0.68
"{'cat': 'II', 'resp': 'reach'}",96,383,Right,64.82157525814524,47.754678257753135,3.241078762907262,0.7501287319455073,Right,Correct,0.0,0.0,-45,45,2009,707,-0.67
"{'cat': 'II', 'resp': 'reach'}",96,384,Left,12.47425640368336,37.00432957057882,0.623712820184168,0.5812626496497298,Left,Correct,0.0,0.0,-45,45,2002,717,-2.43
"{'cat': 'II', 'resp': 'reach'}",96,385,Right,31.967647378801452,19.374547679634958,1.5983823689400725,0.30433468328483176,Left,Incorrect,0.0,0.0,-45,45,2011,725,-2.46
"{'cat': 'II', 'resp': 'reach'}",96,386,Left,42.27858601704996,66.74495769684604,2.113929300852498,1.0484273438228653,Left,Correct,0.0,0.0,-45,45,2006,726,-2.49
"{'cat': 'II', 'resp': 'reach'}",96,387,Right,81.2810642213951,65.69271682888775,4.064053211069755,1.0318987829199417,Right,Correct,0.0,0.0,-45,45,2009,842,-0.7
"{'cat': 'II', 'resp': 'reach'}",96,388,Right,59.49319414045437,28.9503894212316,2.9746597070227185,0.45475165362152425,Right,Correct,0.0,0.0,-45,45,2009,1080,-0.68
"{'cat': 'II', 'resp': 'reach'}",96,389,Right,61.43802183332157,47.956420223781556,3.0719010916660783,0.7532976873374856,Right,Correct,0.0,0.0,-45,45,2010,783,-0.66
"{'cat': 'II', 'resp': 'reach'}",96,390,Right,40.197205374356685,14.291837184836968,2.0098602687178344,0.22449565353092626,Left,Incorrect,0.0,0.0,-45,45,2003,1048,-2.49
"{'cat': 'II', 'resp': 'reach'}",96,391,Right,83.8650247410651,55.14881882254117,4.193251237053255,0.8662756203352493,Right,Correct,0.0,0.0,-45,45,2007,676,-0.69
"{'cat': 'II', 'resp': 'reach'}",96,392,Right,82.79785443812997,53.021712864870395,4.139892721906499,0.8328631180851214,Right,Correct,0.0,0.0,-45,45,2006,712,-0.7
"{'cat': 'II', 'resp': 'reach'}",96,393,Left,10.457000253953176,33.96484188444654,0.5228500126976587,0.5335184887225808,Left,Correct,0.0,0.0,-45,45,2006,929,-2.31
"{'cat': 'II', 'resp': 'reach'}",96,394,Right,49.580056360145676,36.52027798050248,2.4790028180072836,0.5736591850530184,Right,Correct,0.0,0.0,-45,45,2012,672,-0.68
"{'cat': 'II', 'resp': 'reach'}",96,395,Right,47.85181674614478,40.60893685223643,2.392590837307239,0.6378836884253889,Right,Correct,0.0,0.0,-45,45,2009,518,-0.69
"{'cat': 'II', 'resp': 'reach'}",96,396,Right,82.5005611070638,58.80502216536965,4.12502805535319,0.9237071281445512,Right,Correct,0.0,0.0,-45,45,2006,625,-0.7
"{'cat': 'II', 'resp': 'reach'}",96,397,Right,36.09208352280227,19.32314273591972,1.8046041761401137,0.3035272163171619,Right,Correct,0.0,0.0,-45,45,2003,549,-0.66
"{'cat': 'II', 'resp': 'reach'}",96,398,Left,42.45184318008916,75.10974207817165,2.122592159004458,1.1798210696290412,Left,Correct,0.0,0.0,-45,45,2002,912,-2.31
"{'cat': 'II', 'resp': 'reach'}",96,399,Left,30.056142254003895,52.289392783830245,1.5028071127001947,0.8213598611517613,Left,Correct,0.0,0.0,-45,45,2012,927,-2.42
