condition,subject,trial,cat,x,y,xt,yt,resp,fb,rotation,su,target_angle_left,target_angle_right,rt,mt,ep
"{'cat': 'II', 'resp': 'reach'}",100,0,Right,54.31435038318175,39.71173778905807,2.7157175191590874,0.623790518496945,Right,Correct,0.0,0.0,-45,45,2004,1042,-0.77
"{'cat': 'II', 'resp': 'reach'}",100,1,Left,55.241905638833536,64.49930972944254,2.7620952819416766,1.013152788038147,Right,Incorrect,0.0,0.0,-45,45,2001,1532,-0.66
"{'cat': 'II', 'resp': 'reach'}",100,2,Right,60.55291737432109,41.05341634733969,3.0276458687160543,0.6448655560078275,Left,Incorrect,0.0,0.0,-45,45,2006,1372,-2.55
"{'cat': 'II', 'resp': 'reach'}",100,3,Left,38.62099356950833,50.6441016755822,1.9310496784754165,0.7955156888583179,Right,Incorrect,0.0,0.0,-45,45,2012,1447,-0.74
"{'cat': 'II', 'resp': 'reach'}",100,4,Left,33.21367028990362,42.4474283538151,1.660683514495181,0.666762645400623,Right,Incorrect,0.0,0.0,-45,45,2003,2275,-0.71
"{'cat': 'II', 'resp': 'reach'}",100,5,Left,36.5035128107252,64.23992725397392,1.8251756405362598,1.009078417641136,Left,Correct,0.0,0.0,-45,45,2006,694,-2.48
"{'cat': 'II', 'resp': 'reach'}",100,6,Left,44.39836497016224,60.59157480325047,2.219918248508112,0.9517702313566404,Left,Correct,0.0,0.0,-45,45,2007,787,-2.5
"{'cat': 'II', 'resp': 'reach'}",100,7,Right,39.7861384970781,28.721906829791074,1.989306924853905,0.4511626574678107,Left,Incorrect,0.0,0.0,-45,45,2012,782,-2.49
"{'cat': 'II', 'resp': 'reach'}",100,8,Right,63.534983530762,53.97426950029558,3.1767491765380997,0.8478258427250213,Right,Correct,0.0,0.0,-45,45,2007,916,-0.76
"{'cat': 'II', 'resp': 'reach'}",100,9,Left,39.078593032236896,52.581059559443716,1.9539296516118447,0.8259413521495788,Left,Correct,0.0,0.0,-45,45,2006,667,-2.48
"{'cat': 'II', 'resp': 'reach'}",100,10,Left,49.103531506911665,67.09438634151655,2.4551765753455834,1.053916156138119,Left,Correct,0.0,0.0,-45,45,2005,692,-2.51
"{'cat': 'II', 'resp': 'reach'}",100,11,Right,51.645588482092236,32.33285988936109,2.582279424104612,0.5078833754898244,Right,Correct,0.0,0.0,-45,45,2005,680,-0.76
"{'cat': 'II', 'resp': 'reach'}",100,12,Left,27.250527300781002,42.50262555928994,1.3625263650390502,0.6676296810767153,Right,Incorrect,0.0,0.0,-45,45,2001,606,-0.74
"{'cat': 'II', 'resp': 'reach'}",100,13,Left,57.76905413382592,82.00169232501156,2.888452706691296,1.2880795709509343,Left,Correct,0.0,0.0,-45,45,2006,2168,-2.54
"{'cat': 'II', 'resp': 'reach'}",100,14,Left,41.570653908199546,74.23325395687557,2.078532695409977,1.1660532264149286,Left,Correct,0.0,0.0,-45,45,2017,2222,-2.57
"{'cat': 'II', 'resp': 'reach'}",100,15,Right,70.7146831637126,59.22874887368566,3.5357341581856305,0.930363011714428,Left,Incorrect,0.0,0.0,-45,45,2008,1655,-2.54
"{'cat': 'II', 'resp': 'reach'}",100,16,Left,20.22814600888311,33.43879391212762,1.0114073004441557,0.5252553464962162,Left,Correct,0.0,0.0,-45,45,2001,875,-2.5
"{'cat': 'II', 'resp': 'reach'}",100,17,Left,54.49261202743208,65.05598257593017,2.7246306013716044,1.0218969846630392,Right,Incorrect,0.0,0.0,-45,45,2007,951,-0.7
"{'cat': 'II', 'resp': 'reach'}",100,18,Right,68.34848790401345,47.1275172890519,3.4174243952006726,0.7402773104860572,Right,Correct,0.0,0.0,-45,45,2002,829,-0.67
"{'cat': 'II', 'resp': 'reach'}",100,19,Left,29.498807575495675,42.171915038622515,1.4749403787747837,0.662434892365747,Right,Incorrect,0.0,0.0,-45,45,2007,1854,-0.68
"{'cat': 'II', 'resp': 'reach'}",100,20,Right,64.51487047913503,32.053743585145156,3.2257435239567513,0.5034990268357149,Right,Correct,0.0,0.0,-45,45,2001,1560,-0.78
"{'cat': 'II', 'resp': 'reach'}",100,21,Left,11.871952144943439,38.85788719090263,0.5935976072471719,0.6103782646648032,Right,Incorrect,0.0,0.0,-45,45,2012,2923,-0.74
"{'cat': 'II', 'resp': 'reach'}",100,22,Left,59.3938002888366,85.0811103208782,2.96969001444183,1.3364509557166684,Right,Incorrect,0.0,0.0,-45,45,2006,1670,-0.74
"{'cat': 'II', 'resp': 'reach'}",100,23,Right,33.70634846719054,10.804095652179626,1.685317423359527,0.16971033764784468,Left,Incorrect,0.0,0.0,-45,45,2017,2148,-2.55
"{'cat': 'II', 'resp': 'reach'}",100,24,Left,24.55169365813652,51.89677454197346,1.227584682906826,0.8151926282303481,Right,Incorrect,0.0,0.0,-45,45,2012,1776,-0.76
"{'cat': 'II', 'resp': 'reach'}",100,25,Left,20.025438570882848,35.97412495861596,1.0012719285441423,0.5650802334465456,Left,Correct,0.0,0.0,-45,45,2009,2180,-2.55
"{'cat': 'II', 'resp': 'reach'}",100,26,Left,36.97910470130962,55.384376636412284,1.848955235065481,0.869975753823015,Left,Correct,0.0,0.0,-45,45,2002,1603,-2.54
"{'cat': 'II', 'resp': 'reach'}",100,27,Right,77.69774638711823,62.39127704116851,3.8848873193559115,0.9800398880031025,Right,Correct,0.0,0.0,-45,45,2002,1202,-0.73
"{'cat': 'II', 'resp': 'reach'}",100,28,Right,37.899569692704176,22.066900580466605,1.894978484635209,0.34662606375545113,Right,Correct,0.0,0.0,-45,45,2012,2723,-0.64
"{'cat': 'II', 'resp': 'reach'}",100,29,Right,47.842861897719004,32.34457283072955,2.39214309488595,0.5080673619425998,Left,Incorrect,0.0,0.0,-45,45,2002,1778,-2.52
"{'cat': 'II', 'resp': 'reach'}",100,30,Right,39.39778218691144,25.814170165419036,1.9698891093455722,0.40548803675098627,Left,Incorrect,0.0,0.0,-45,45,2007,2667,-2.52
"{'cat': 'II', 'resp': 'reach'}",100,31,Right,60.759234425888096,36.77312248299157,3.037961721294405,0.5776308572106199,Left,Incorrect,0.0,0.0,-45,45,2005,3571,-2.64
"{'cat': 'II', 'resp': 'reach'}",100,32,Right,58.85403921863303,50.586416130516,2.942701960931651,0.7946095664353264,Right,Correct,0.0,0.0,-45,45,2013,2092,-0.6
"{'cat': 'II', 'resp': 'reach'}",100,33,Left,52.63381636651502,76.66853702073566,2.631690818325751,1.204306563329101,Right,Incorrect,0.0,0.0,-45,45,2009,1430,-0.72
"{'cat': 'II', 'resp': 'reach'}",100,34,Left,16.87560008918303,35.27532659805637,0.8437800044591515,0.5541035344671725,Right,Incorrect,0.0,0.0,-45,45,2007,1098,-0.66
"{'cat': 'II', 'resp': 'reach'}",100,35,Right,59.122704720329565,42.12303288174869,2.9561352360164785,0.661667053241115,Right,Correct,0.0,0.0,-45,45,2003,2672,-0.8
"{'cat': 'II', 'resp': 'reach'}",100,36,Left,53.628134621295345,82.65591726712103,2.681406731064767,1.2983561123105658,Right,Incorrect,0.0,0.0,-45,45,2006,2266,-0.72
"{'cat': 'II', 'resp': 'reach'}",100,37,Left,47.12639835350523,74.45168233416732,2.3563199176752616,1.1694842913421049,Left,Correct,0.0,0.0,-45,45,2013,1369,-2.49
"{'cat': 'II', 'resp': 'reach'}",100,38,Right,59.24324779964,49.43740218097139,2.962162389982,0.7765608975215187,Right,Correct,0.0,0.0,-45,45,2003,1968,-0.68
"{'cat': 'II', 'resp': 'reach'}",100,39,Left,18.677191595484327,35.416113715739186,0.9338595797742164,0.5563150133403346,Left,Correct,0.0,0.0,-45,45,2005,3733,-2.54
"{'cat': 'II', 'resp': 'reach'}",100,40,Left,26.907130305225675,52.81422869947823,1.3453565152612836,0.8296039644364602,Left,Correct,0.0,0.0,-45,45,2008,2050,-2.44
"{'cat': 'II', 'resp': 'reach'}",100,41,Left,34.824245087821026,44.37167907260702,1.7412122543910513,0.696988705009731,Right,Incorrect,0.0,0.0,-45,45,2004,2854,-0.57
"{'cat': 'II', 'resp': 'reach'}",100,42,Left,45.7056834405374,74.63630280592963,2.28528417202687,1.172384302931059,Left,Correct,0.0,0.0,-45,45,2013,1594,-2.48
"{'cat': 'II', 'resp': 'reach'}",100,43,Left,58.176480016248334,73.57651445339218,2.9088240008124164,1.1557371864176005,Left,Correct,0.0,0.0,-45,45,2009,2083,-2.55
"{'cat': 'II', 'resp': 'reach'}",100,44,Left,33.17338091121125,61.26224452267469,1.6586690455605622,0.9623050866742817,Left,Correct,0.0,0.0,-45,45,2013,1438,-2.48
"{'cat': 'II', 'resp': 'reach'}",100,45,Right,57.764057977644256,34.098783753989125,2.888202898882213,0.5356224426893961,Left,Incorrect,0.0,0.0,-45,45,2005,788,-2.44
"{'cat': 'II', 'resp': 'reach'}",100,46,Right,72.81681215248197,49.58814926833067,3.640840607624099,0.7789288272325083,Right,Correct,0.0,0.0,-45,45,2009,782,-0.71
"{'cat': 'II', 'resp': 'reach'}",100,47,Right,68.87377565465115,42.38299603359002,3.4436887827325573,0.6657505448812586,Right,Correct,0.0,0.0,-45,45,2004,988,-0.73
"{'cat': 'II', 'resp': 'reach'}",100,48,Right,53.08698523980263,25.97689647559025,2.6543492619901317,0.40804413565388464,Right,Correct,0.0,0.0,-45,45,2012,1120,-0.8
"{'cat': 'II', 'resp': 'reach'}",100,49,Right,49.48014492166113,34.48593607904421,2.4740072460830564,0.5417038171904625,Right,Correct,0.0,0.0,-45,45,2007,990,-0.73
"{'cat': 'II', 'resp': 'reach'}",100,50,Left,61.085112688241594,84.80998464240778,3.0542556344120793,1.3321921235182574,Left,Correct,0.0,0.0,-45,45,2006,1375,-2.54
"{'cat': 'II', 'resp': 'reach'}",100,51,Right,79.39216034401531,47.49837072690587,3.9696080172007657,0.7461026626656598,Right,Correct,0.0,0.0,-45,45,2004,2043,-0.8
"{'cat': 'II', 'resp': 'reach'}",100,52,Right,61.44394937528863,40.22223322161464,3.0721974687644313,0.6318093619999994,Right,Correct,0.0,0.0,-45,45,2003,1589,-0.81
"{'cat': 'II', 'resp': 'reach'}",100,53,Right,58.56644964219991,41.1749541604352,2.928322482109996,0.6467746675115986,Right,Correct,0.0,0.0,-45,45,2001,920,-0.78
"{'cat': 'II', 'resp': 'reach'}",100,54,Left,33.683131693313285,49.09956243812377,1.684156584665664,0.7712541232504148,Left,Correct,0.0,0.0,-45,45,2010,1997,-2.5
"{'cat': 'II', 'resp': 'reach'}",100,55,Right,74.44371519354836,61.369010158050415,3.722185759677418,0.9639821573530428,Right,Correct,0.0,0.0,-45,45,2006,2087,-0.72
"{'cat': 'II', 'resp': 'reach'}",100,56,Right,44.03784374924428,21.62822065435622,2.201892187462214,0.3397352955897226,Left,Incorrect,0.0,0.0,-45,45,2004,1617,-2.47
"{'cat': 'II', 'resp': 'reach'}",100,57,Right,75.02778134900866,53.1950810217996,3.751389067450433,0.8355863787259973,Right,Correct,0.0,0.0,-45,45,2006,1127,-0.71
"{'cat': 'II', 'resp': 'reach'}",100,58,Left,60.371386556461104,70.22706540628204,3.018569327823055,1.1031241638177276,Right,Incorrect,0.0,0.0,-45,45,2003,1457,-0.86
"{'cat': 'II', 'resp': 'reach'}",100,59,Right,73.49155480989782,44.67183430516616,3.674577740494891,0.7017035323774525,Right,Correct,0.0,0.0,-45,45,2005,946,-0.8
"{'cat': 'II', 'resp': 'reach'}",100,60,Right,64.34265079669339,47.97244699948868,3.2171325398346697,0.7535494353415967,Right,Correct,0.0,0.0,-45,45,2006,1310,-0.88
"{'cat': 'II', 'resp': 'reach'}",100,61,Right,62.72744778080889,43.05859384346797,3.1363723890404445,0.6763628104627283,Right,Correct,0.0,0.0,-45,45,2007,883,-0.82
"{'cat': 'II', 'resp': 'reach'}",100,62,Right,39.534573231914734,22.227990690366894,1.976728661595737,0.3491564612845947,Right,Correct,0.0,0.0,-45,45,2008,1755,-0.8
"{'cat': 'II', 'resp': 'reach'}",100,63,Right,32.30312246047812,10.512339824825137,1.615156123023906,0.16512744782855032,Right,Correct,0.0,0.0,-45,45,2001,1390,-0.8
"{'cat': 'II', 'resp': 'reach'}",100,64,Right,54.982735165229464,44.75237770184936,2.749136758261473,0.7029687050940281,Right,Correct,0.0,0.0,-45,45,2008,1262,-0.82
"{'cat': 'II', 'resp': 'reach'}",100,65,Left,62.71731419308156,78.23248672269634,3.135865709654078,1.2288730278004194,Right,Incorrect,0.0,0.0,-45,45,2006,1060,-0.77
"{'cat': 'II', 'resp': 'reach'}",100,66,Right,70.61377675329857,56.16233506610848,3.530688837664928,0.8821958962606742,Right,Correct,0.0,0.0,-45,45,2006,887,-0.81
"{'cat': 'II', 'resp': 'reach'}",100,67,Left,38.11652968681221,55.659710102317256,1.9058264843406105,0.8743006817918875,Right,Incorrect,0.0,0.0,-45,45,2004,1183,-0.75
"{'cat': 'II', 'resp': 'reach'}",100,68,Right,61.645000163531215,53.41613207891686,3.0822500081765605,0.8390586406115366,Right,Correct,0.0,0.0,-45,45,2006,908,-0.81
"{'cat': 'II', 'resp': 'reach'}",100,69,Right,53.88789092684123,43.367977013631744,2.6943945463420613,0.6812225899353825,Right,Correct,0.0,0.0,-45,45,2001,1032,-0.87
"{'cat': 'II', 'resp': 'reach'}",100,70,Right,76.64882333511636,46.138641556520916,3.8324411667558183,0.7247440868028943,Right,Correct,0.0,0.0,-45,45,2009,954,-0.72
"{'cat': 'II', 'resp': 'reach'}",100,71,Left,55.608806742509906,62.90395916445554,2.7804403371254955,0.9880930799638294,Left,Correct,0.0,0.0,-45,45,2008,1826,-2.53
"{'cat': 'II', 'resp': 'reach'}",100,72,Left,25.983254675582614,45.29720324973652,1.2991627337791305,0.7115268047876798,Left,Correct,0.0,0.0,-45,45,2009,1258,-2.47
"{'cat': 'II', 'resp': 'reach'}",100,73,Left,64.32793902021211,88.41157170862465,3.216396951010606,1.3887657208607118,Right,Incorrect,0.0,0.0,-45,45,2012,947,-0.82
"{'cat': 'II', 'resp': 'reach'}",100,74,Right,83.10082031123514,64.41101569011518,4.155041015561757,1.0117658685116138,Right,Correct,0.0,0.0,-45,45,2008,819,-0.63
"{'cat': 'II', 'resp': 'reach'}",100,75,Right,50.33217008441166,35.87974645047041,2.516608504220583,0.5635977393073115,Right,Correct,0.0,0.0,-45,45,2006,1586,-0.78
"{'cat': 'II', 'resp': 'reach'}",100,76,Left,37.178709460309115,49.48560274520615,1.8589354730154557,0.7773180302140127,Right,Incorrect,0.0,0.0,-45,45,2002,1663,-0.81
"{'cat': 'II', 'resp': 'reach'}",100,77,Right,56.419061478396934,48.04131318508202,2.8209530739198465,0.7546311828553007,Right,Correct,0.0,0.0,-45,45,2009,942,-0.77
"{'cat': 'II', 'resp': 'reach'}",100,78,Right,40.91737942792106,13.771032925847575,2.045868971396053,0.21631487936092944,Left,Incorrect,0.0,0.0,-45,45,2001,1194,-2.5
"{'cat': 'II', 'resp': 'reach'}",100,79,Left,24.22179179937209,54.16299353149908,1.2110895899686045,0.850790312874945,Right,Incorrect,0.0,0.0,-45,45,2005,1537,-0.81
"{'cat': 'II', 'resp': 'reach'}",100,80,Right,63.596200873062436,42.54741293843363,3.179810043653122,0.668333199583172,Right,Correct,0.0,0.0,-45,45,2001,913,-0.78
"{'cat': 'II', 'resp': 'reach'}",100,81,Left,40.30866212777615,67.96639433836413,2.015433106388808,1.067613625721958,Right,Incorrect,0.0,0.0,-45,45,2004,1630,-0.79
"{'cat': 'II', 'resp': 'reach'}",100,82,Left,21.343853635949493,45.248698340392686,1.0671926817974748,0.7107648914533916,Left,Correct,0.0,0.0,-45,45,2011,1098,-2.49
"{'cat': 'II', 'resp': 'reach'}",100,83,Left,55.35128136726662,76.5390931983172,2.767564068363331,1.2022732645212892,Right,Incorrect,0.0,0.0,-45,45,2006,1510,-0.87
"{'cat': 'II', 'resp': 'reach'}",100,84,Left,33.587222660745276,50.974132341443024,1.679361133037264,0.8006997984349564,Left,Correct,0.0,0.0,-45,45,2009,1238,-2.47
"{'cat': 'II', 'resp': 'reach'}",100,85,Left,38.3275636473804,60.12326608948975,1.91637818236902,0.9444140552828265,Left,Correct,0.0,0.0,-45,45,2013,1000,-2.47
"{'cat': 'II', 'resp': 'reach'}",100,86,Right,63.72561717106145,35.439559430556926,3.186280858553072,0.5566832977674826,Right,Correct,0.0,0.0,-45,45,2012,2087,-0.8
"{'cat': 'II', 'resp': 'reach'}",100,87,Left,61.9498123714412,71.27377270782256,3.0974906185720603,1.1195658036626202,Right,Incorrect,0.0,0.0,-45,45,2003,1089,-0.83
"{'cat': 'II', 'resp': 'reach'}",100,88,Right,50.31335825808441,24.11256067549658,2.5156679129042208,0.378759217386891,Right,Correct,0.0,0.0,-45,45,2008,999,-0.88
"{'cat': 'II', 'resp': 'reach'}",100,89,Left,52.988273245801324,73.64063647161741,2.6494136622900664,1.1567444127245492,Left,Correct,0.0,0.0,-45,45,2005,905,-2.35
"{'cat': 'II', 'resp': 'reach'}",100,90,Right,59.13104490760642,49.37778108574369,2.9565522453803212,0.775624371547687,Left,Incorrect,0.0,0.0,-45,45,2007,1449,-2.46
"{'cat': 'II', 'resp': 'reach'}",100,91,Right,88.34680165100824,61.29163884056931,4.417340082550412,0.9627668115400568,Left,Incorrect,0.0,0.0,-45,45,2006,916,-2.49
"{'cat': 'II', 'resp': 'reach'}",100,92,Left,42.93413715620592,73.39608630828369,2.1467068578102957,1.1529030277417323,Left,Correct,0.0,0.0,-45,45,2008,1566,-2.43
"{'cat': 'II', 'resp': 'reach'}",100,93,Right,72.29413129014921,61.87737230298251,3.6147065645074603,0.971967491252452,Right,Correct,0.0,0.0,-45,45,2007,916,-0.8
"{'cat': 'II', 'resp': 'reach'}",100,94,Left,20.78307144713485,49.34100656374038,1.0391535723567427,0.7750467187068627,Left,Correct,0.0,0.0,-45,45,2008,1044,-2.36
"{'cat': 'II', 'resp': 'reach'}",100,95,Left,63.306595567097794,77.4658627579548,3.1653297783548897,1.2168309267219297,Right,Incorrect,0.0,0.0,-45,45,2005,854,-0.79
"{'cat': 'II', 'resp': 'reach'}",100,96,Right,44.957872296251075,30.95156488358265,2.2478936148125537,0.48618604427685536,Right,Correct,0.0,0.0,-45,45,2009,991,-0.71
"{'cat': 'II', 'resp': 'reach'}",100,97,Left,49.377135919787314,56.44794629786588,2.4688567959893657,0.8866822669980332,Right,Incorrect,0.0,0.0,-45,45,2002,1142,-0.7
"{'cat': 'II', 'resp': 'reach'}",100,98,Left,11.796904860010951,35.20617611629977,0.5898452430005476,0.553017321239779,Left,Correct,0.0,0.0,-45,45,2005,1144,-2.39
"{'cat': 'II', 'resp': 'reach'}",100,99,Right,67.17965005678418,47.62858926345237,3.358982502839209,0.7481481306545382,Right,Correct,0.0,0.0,-45,45,2007,1010,-0.8
"{'cat': 'II', 'resp': 'reach'}",100,100,Right,53.59588389932317,39.73671516194349,2.679794194966158,0.6241828621527591,Right,Correct,0.0,0.0,-45,45,2012,1512,-0.81
"{'cat': 'II', 'resp': 'reach'}",100,101,Right,77.64126876212336,51.4258463530697,3.882063438106168,0.8077953055372061,Right,Correct,0.0,0.0,-45,45,2003,648,-0.84
"{'cat': 'II', 'resp': 'reach'}",100,102,Right,46.54044251916982,38.652663749922915,2.327022125958491,0.6071546223921717,Left,Incorrect,0.0,0.0,-45,45,2006,2186,-2.38
"{'cat': 'II', 'resp': 'reach'}",100,103,Left,37.82689627941313,61.73607507574452,1.8913448139706563,0.9697479995971346,Left,Correct,0.0,0.0,-45,45,2010,1775,-2.29
"{'cat': 'II', 'resp': 'reach'}",100,104,Right,38.70814177301732,14.5957037919494,1.9354070886508656,0.2292687790338046,Left,Incorrect,0.0,0.0,-45,45,2007,2795,-2.38
"{'cat': 'II', 'resp': 'reach'}",100,105,Left,34.11666003560445,54.44331271644786,1.7058330017802223,0.8551935563354219,Left,Correct,0.0,0.0,-45,45,2003,1650,-2.35
"{'cat': 'II', 'resp': 'reach'}",100,106,Right,64.92477359308467,51.1463833237393,3.246238679654233,0.8034055105377343,Right,Correct,0.0,0.0,-45,45,2008,787,-0.79
"{'cat': 'II', 'resp': 'reach'}",100,107,Left,19.37500411177012,40.49408413865622,0.9687502055885061,0.6360795862192468,Left,Correct,0.0,0.0,-45,45,2005,1122,-2.41
"{'cat': 'II', 'resp': 'reach'}",100,108,Left,63.27228059813869,88.03945086540195,3.1636140299069346,1.3829204603241314,Right,Incorrect,0.0,0.0,-45,45,2009,921,-0.79
"{'cat': 'II', 'resp': 'reach'}",100,109,Right,61.06126263818681,52.64559176076667,3.0530631319093406,0.8269550215975596,Right,Correct,0.0,0.0,-45,45,2011,1246,-0.8
"{'cat': 'II', 'resp': 'reach'}",100,110,Left,20.298927274351183,35.18148530422246,1.014946363717559,0.5526294788706128,Left,Correct,0.0,0.0,-45,45,2007,1147,-2.41
"{'cat': 'II', 'resp': 'reach'}",100,111,Left,30.28856581438052,51.520472485093904,1.5144282907190258,0.8092816893432304,Left,Correct,0.0,0.0,-45,45,2001,982,-2.4
"{'cat': 'II', 'resp': 'reach'}",100,112,Right,36.13977481782415,22.520186147800935,1.8069887408912075,0.35374625679703026,Right,Correct,0.0,0.0,-45,45,2005,1142,-0.79
"{'cat': 'II', 'resp': 'reach'}",100,113,Left,40.30514258998004,54.6830723528998,2.0152571294990023,0.8589596918979457,Left,Correct,0.0,0.0,-45,45,2008,1894,-2.38
"{'cat': 'II', 'resp': 'reach'}",100,114,Right,70.43740616743281,58.29035529080651,3.5218703083716405,0.9156227597836833,Right,Correct,0.0,0.0,-45,45,2012,662,-0.8
"{'cat': 'II', 'resp': 'reach'}",100,115,Right,36.64263149118216,15.379868370523848,1.8321315745591078,0.2415864074300787,Left,Incorrect,0.0,0.0,-45,45,2005,1228,-2.52
"{'cat': 'II', 'resp': 'reach'}",100,116,Right,42.15091567035978,23.231587382187794,2.107545783517989,0.36492092125555253,Right,Correct,0.0,0.0,-45,45,2003,1281,-0.77
"{'cat': 'II', 'resp': 'reach'}",100,117,Left,46.255755919450486,56.87519677067535,2.312787795972524,0.8933935017311381,Left,Correct,0.0,0.0,-45,45,2002,1290,-2.4
"{'cat': 'II', 'resp': 'reach'}",100,118,Left,57.74212787154002,75.32789713526823,2.887106393577001,1.1832478412526315,Right,Incorrect,0.0,0.0,-45,45,2002,1177,-0.77
"{'cat': 'II', 'resp': 'reach'}",100,119,Left,36.885446074390316,67.72709110362341,1.8442723037195157,1.0638546593007496,Right,Incorrect,0.0,0.0,-45,45,2001,2672,-0.77
"{'cat': 'II', 'resp': 'reach'}",100,120,Left,38.05900354153227,55.69185811381869,1.9029501770766135,0.8748056615756896,Left,Correct,0.0,0.0,-45,45,2005,978,-2.33
"{'cat': 'II', 'resp': 'reach'}",100,121,Left,47.17874891348153,61.48436551908156,2.3589374456740764,0.965794155126881,Left,Correct,0.0,0.0,-45,45,2009,929,-2.36
"{'cat': 'II', 'resp': 'reach'}",100,122,Right,48.83363652578432,19.946469821031915,2.441681826289216,0.3133184152740219,Right,Correct,0.0,0.0,-45,45,2008,1521,-0.79
"{'cat': 'II', 'resp': 'reach'}",100,123,Right,81.12443086663826,54.18159431153437,4.056221543331913,0.8510824932444945,Right,Correct,0.0,0.0,-45,45,2002,1259,-0.79
"{'cat': 'II', 'resp': 'reach'}",100,124,Right,45.776419965448575,19.66678956964904,2.288820998272429,0.3089252081585289,Left,Incorrect,0.0,0.0,-45,45,2012,1261,-2.31
"{'cat': 'II', 'resp': 'reach'}",100,125,Left,45.11013000128824,64.12770446455737,2.255506500064412,1.0073156261871539,Left,Correct,0.0,0.0,-45,45,2008,1805,-2.26
"{'cat': 'II', 'resp': 'reach'}",100,126,Right,51.49204450281712,25.151631610702907,2.5746022251408562,0.3950809054699053,Right,Correct,0.0,0.0,-45,45,2007,743,-0.82
"{'cat': 'II', 'resp': 'reach'}",100,127,Left,13.528708198393279,35.932666730997184,0.6764354099196639,0.5644290091299555,Left,Correct,0.0,0.0,-45,45,2006,1938,-2.43
"{'cat': 'II', 'resp': 'reach'}",100,128,Left,48.57877917661564,64.82476592637445,2.428938958830782,1.0182650420248796,Left,Correct,0.0,0.0,-45,45,2008,2120,-2.4
"{'cat': 'II', 'resp': 'reach'}",100,129,Right,50.78480283352398,31.976629100536904,2.539240141676199,0.5022877153440617,Left,Incorrect,0.0,0.0,-45,45,2006,1989,-2.4
"{'cat': 'II', 'resp': 'reach'}",100,130,Left,47.04484947056733,75.35614200894042,2.3522424735283662,1.1836915106907822,Left,Correct,0.0,0.0,-45,45,2010,1053,-2.3
"{'cat': 'II', 'resp': 'reach'}",100,131,Right,67.32369526829291,37.35744832533206,3.3661847634146453,0.5868094260786175,Right,Correct,0.0,0.0,-45,45,2008,782,-0.69
"{'cat': 'II', 'resp': 'reach'}",100,132,Left,36.12380420966801,49.615109215828426,1.8061902104834004,0.7793523130975091,Left,Correct,0.0,0.0,-45,45,2009,3836,-2.45
"{'cat': 'II', 'resp': 'reach'}",100,133,Right,81.36260941123813,50.80061173768365,4.068130470561906,0.7979741431648718,Right,Correct,0.0,0.0,-45,45,2003,1020,-0.77
"{'cat': 'II', 'resp': 'reach'}",100,134,Right,61.28461553865696,54.03150169477152,3.0642307769328476,0.8487248439335932,Left,Incorrect,0.0,0.0,-45,45,2008,1577,-2.41
"{'cat': 'II', 'resp': 'reach'}",100,135,Right,45.343202150706645,23.75429523213714,2.2671601075353323,0.3731315969624255,Left,Incorrect,0.0,0.0,-45,45,2002,1212,-2.32
"{'cat': 'II', 'resp': 'reach'}",100,136,Right,84.38890201361302,59.41680847307909,4.219445100680651,0.9333170449938851,Right,Correct,0.0,0.0,-45,45,2002,814,-0.77
"{'cat': 'II', 'resp': 'reach'}",100,137,Right,63.32392523167,50.86543922245926,3.1661962615835,0.7989924509144808,Right,Correct,0.0,0.0,-45,45,2008,1089,-0.75
"{'cat': 'II', 'resp': 'reach'}",100,138,Right,53.00327990693795,42.076239702332856,2.6501639953468974,0.6609320276976605,Right,Correct,0.0,0.0,-45,45,2009,1456,-0.73
"{'cat': 'II', 'resp': 'reach'}",100,139,Right,59.5177308991406,48.23226615229691,2.9758865449570298,0.7576306650502181,Right,Correct,0.0,0.0,-45,45,2009,927,-0.82
"{'cat': 'II', 'resp': 'reach'}",100,140,Left,19.074227476006595,38.06760582091145,0.9537113738003298,0.5979645539336373,Left,Correct,0.0,0.0,-45,45,2007,1190,-2.48
"{'cat': 'II', 'resp': 'reach'}",100,141,Right,54.091593967820266,46.94871446855027,2.7045796983910133,0.7374686823494118,Right,Correct,0.0,0.0,-45,45,2009,838,-0.68
"{'cat': 'II', 'resp': 'reach'}",100,142,Left,52.55584724655964,68.79677637872715,2.627792362327982,1.080657236310345,Right,Incorrect,0.0,0.0,-45,45,2006,1750,-0.75
"{'cat': 'II', 'resp': 'reach'}",100,143,Left,59.96935991016804,79.98518180485097,2.9984679955084017,1.256404297770819,Right,Incorrect,0.0,0.0,-45,45,2003,1241,-0.74
"{'cat': 'II', 'resp': 'reach'}",100,144,Left,21.785354438292483,47.403311597383905,1.0892677219146243,0.7446094773508455,Left,Correct,0.0,0.0,-45,45,2006,1781,-2.39
"{'cat': 'II', 'resp': 'reach'}",100,145,Right,48.685917215680476,38.087253601144134,2.434295860784024,0.5982731805438289,Right,Correct,0.0,0.0,-45,45,2009,949,-0.78
"{'cat': 'II', 'resp': 'reach'}",100,146,Left,20.52212091076792,35.739303993334545,1.0261060455383961,0.5613916743493608,Left,Correct,0.0,0.0,-45,45,2008,2364,-2.5
"{'cat': 'II', 'resp': 'reach'}",100,147,Left,69.37594229897269,84.49367209692785,3.4687971149486345,1.3272234976726673,Left,Correct,0.0,0.0,-45,45,2001,1501,-2.39
"{'cat': 'II', 'resp': 'reach'}",100,148,Right,49.23831515639941,32.101982151052674,2.4619157578199706,0.5042567564570887,Right,Correct,0.0,0.0,-45,45,2007,884,-0.77
"{'cat': 'II', 'resp': 'reach'}",100,149,Right,44.89635494779237,24.169265445520328,2.2448177473896185,0.37964993383154144,Right,Correct,0.0,0.0,-45,45,2008,960,-0.74
"{'cat': 'II', 'resp': 'reach'}",100,150,Left,61.71936044491717,87.49851301036348,3.0859680222458588,1.3744234283669443,Right,Incorrect,0.0,0.0,-45,45,2012,3541,-0.73
"{'cat': 'II', 'resp': 'reach'}",100,151,Right,38.01362803293094,28.61939394434161,1.900681401646547,0.44955238882867904,Right,Correct,0.0,0.0,-45,45,2004,1443,-0.69
"{'cat': 'II', 'resp': 'reach'}",100,152,Left,38.539758255291886,52.040895606301476,1.9269879127645941,0.8174564766149502,Right,Incorrect,0.0,0.0,-45,45,2007,1766,-0.72
"{'cat': 'II', 'resp': 'reach'}",100,153,Right,78.90801638365741,57.50721814604182,3.9454008191828707,0.9033212702799531,Right,Correct,0.0,0.0,-45,45,2005,946,-0.81
"{'cat': 'II', 'resp': 'reach'}",100,154,Left,62.6441412374313,81.13333582214418,3.132207061871565,1.2744394589004087,Right,Incorrect,0.0,0.0,-45,45,2008,719,-0.68
"{'cat': 'II', 'resp': 'reach'}",100,155,Left,66.16428933290007,88.61474746435829,3.3082144666450035,1.3919571981687138,Left,Correct,0.0,0.0,-45,45,2008,2007,-2.46
"{'cat': 'II', 'resp': 'reach'}",100,156,Right,30.95901418294082,11.278628998523168,1.547950709147041,0.17716429002162595,Left,Incorrect,0.0,0.0,-45,45,2002,8684,-2.38
"{'cat': 'II', 'resp': 'reach'}",100,157,Left,59.47860993550216,87.18421650284992,2.9739304967751083,1.3694864703716765,Left,Correct,0.0,0.0,-45,45,2002,1232,-2.41
"{'cat': 'II', 'resp': 'reach'}",100,158,Right,56.08392819638051,41.42838987072348,2.8041964098190255,0.6507556263395935,Right,Correct,0.0,0.0,-45,45,2003,1179,-0.7
"{'cat': 'II', 'resp': 'reach'}",100,159,Right,55.786215413162964,47.17411792867463,2.789310770658148,0.741009311621514,Right,Correct,0.0,0.0,-45,45,2003,808,-0.77
"{'cat': 'II', 'resp': 'reach'}",100,160,Right,51.91781664436765,28.207477558665147,2.595890832218382,0.44308202137300684,Right,Correct,0.0,0.0,-45,45,2006,1282,-0.67
"{'cat': 'II', 'resp': 'reach'}",100,161,Left,58.50040881169865,81.29864648052013,2.9250204405849325,1.277036152649979,Right,Incorrect,0.0,0.0,-45,45,2009,2325,-0.8
"{'cat': 'II', 'resp': 'reach'}",100,162,Left,15.280173871309056,41.82384371479439,0.7640086935654529,0.6569674007964286,Left,Correct,0.0,0.0,-45,45,2005,1233,-2.48
"{'cat': 'II', 'resp': 'reach'}",100,163,Right,71.68720221879417,48.16074396080928,3.5843601109397083,0.7565071970934871,Right,Correct,0.0,0.0,-45,45,2007,1148,-0.79
"{'cat': 'II', 'resp': 'reach'}",100,164,Left,25.871046499188488,48.49344508417109,1.2935523249594243,0.7617332541184598,Left,Correct,0.0,0.0,-45,45,2003,1551,-2.47
"{'cat': 'II', 'resp': 'reach'}",100,165,Right,62.89519851122367,35.68961047269029,3.1447599255611833,0.5606110903524258,Right,Correct,0.0,0.0,-45,45,2003,942,-0.79
"{'cat': 'II', 'resp': 'reach'}",100,166,Left,35.441294412150654,54.187235049736394,1.7720647206075326,0.851171097752976,Right,Incorrect,0.0,0.0,-45,45,2007,1307,-0.69
"{'cat': 'II', 'resp': 'reach'}",100,167,Right,74.18811006095295,47.523062808230634,3.709405503047648,0.7464905249721185,Right,Correct,0.0,0.0,-45,45,2008,931,-0.71
"{'cat': 'II', 'resp': 'reach'}",100,168,Left,25.724698539387212,36.24804403585962,1.2862349269693607,0.5693829442502796,Left,Correct,0.0,0.0,-45,45,2012,2327,-2.5
"{'cat': 'II', 'resp': 'reach'}",100,169,Right,64.15384617382252,32.21796845716136,3.2076923086911258,0.506078665093029,Right,Correct,0.0,0.0,-45,45,2006,913,-0.79
"{'cat': 'II', 'resp': 'reach'}",100,170,Left,57.030522423327156,68.15658675395247,2.851526121166358,1.0706011611998625,Left,Correct,0.0,0.0,-45,45,2003,1442,-2.41
"{'cat': 'II', 'resp': 'reach'}",100,171,Left,47.64494337159728,78.25605023960978,2.382247168579864,1.2292431626585594,Left,Correct,0.0,0.0,-45,45,2009,2445,-2.44
"{'cat': 'II', 'resp': 'reach'}",100,172,Left,51.682568596592475,76.35307906906367,2.584128429829624,1.199351361411655,Left,Correct,0.0,0.0,-45,45,2007,1653,-2.35
"{'cat': 'II', 'resp': 'reach'}",100,173,Right,84.55338947987906,69.54570135463693,4.227669473993953,1.0924213223223855,Right,Correct,0.0,0.0,-45,45,2007,890,-0.8
"{'cat': 'II', 'resp': 'reach'}",100,174,Right,83.50652215921257,67.10213380936105,4.175326107960628,1.0540378530784398,Right,Correct,0.0,0.0,-45,45,2009,800,-0.79
"{'cat': 'II', 'resp': 'reach'}",100,175,Right,80.16361201830394,51.21703940898456,4.008180600915197,0.804515373729424,Right,Correct,0.0,0.0,-45,45,2006,804,-0.73
"{'cat': 'II', 'resp': 'reach'}",100,176,Left,59.301511821629404,80.48566436518465,2.96507559108147,1.2642658594447893,Left,Correct,0.0,0.0,-45,45,2006,1489,-2.52
"{'cat': 'II', 'resp': 'reach'}",100,177,Right,72.96493005415124,56.32822060678131,3.648246502707562,0.8848016202402469,Right,Correct,0.0,0.0,-45,45,2002,1069,-0.82
"{'cat': 'II', 'resp': 'reach'}",100,178,Right,50.063249266315935,20.600320740755816,2.503162463315797,0.32358908150375965,Right,Correct,0.0,0.0,-45,45,2007,4140,-0.68
"{'cat': 'II', 'resp': 'reach'}",100,179,Right,62.17461338178638,33.63972039039118,3.108730669089319,0.5284114922363385,Right,Correct,0.0,0.0,-45,45,2008,911,-0.75
"{'cat': 'II', 'resp': 'reach'}",100,180,Left,54.416609807144496,66.82060825601211,2.7208304903572245,1.0496156600274458,Right,Incorrect,0.0,0.0,-45,45,2004,2155,-0.82
"{'cat': 'II', 'resp': 'reach'}",100,181,Right,77.11382010313584,65.32888236774428,3.8556910051567916,1.026183684568686,Right,Correct,0.0,0.0,-45,45,2002,858,-0.71
"{'cat': 'II', 'resp': 'reach'}",100,182,Left,60.56224172172725,72.63419063252282,3.028112086086362,1.1409351984528713,Left,Correct,0.0,0.0,-45,45,2007,1065,-2.39
"{'cat': 'II', 'resp': 'reach'}",100,183,Left,41.104122292787295,68.2331386719999,2.0552061146393648,1.0718036359166425,Right,Incorrect,0.0,0.0,-45,45,2001,2003,-0.86
"{'cat': 'II', 'resp': 'reach'}",100,184,Left,41.84955161302334,64.30699804901703,2.092477580651167,1.0101319632260253,Left,Correct,0.0,0.0,-45,45,2001,1198,-2.4
"{'cat': 'II', 'resp': 'reach'}",100,185,Right,67.49198108894684,35.30676061587479,3.374599054447342,0.5545972988644284,Right,Correct,0.0,0.0,-45,45,2009,906,-0.79
"{'cat': 'II', 'resp': 'reach'}",100,186,Right,42.78778632340813,18.551871522714908,2.1393893161704063,0.29141211643051423,Right,Correct,0.0,0.0,-45,45,2005,2016,-0.78
"{'cat': 'II', 'resp': 'reach'}",100,187,Right,53.927232456341024,45.32511967149183,2.6963616228170513,0.7119653149151848,Right,Correct,0.0,0.0,-45,45,2011,1556,-0.71
"{'cat': 'II', 'resp': 'reach'}",100,188,Right,39.87993989211777,20.860151770439693,1.9939969946058884,0.3276704977739073,Left,Incorrect,0.0,0.0,-45,45,2006,1406,-2.42
"{'cat': 'II', 'resp': 'reach'}",100,189,Right,59.32981143765603,27.66079803941343,2.9664905718828014,0.4344947995652609,Right,Correct,0.0,0.0,-45,45,2006,961,-0.78
"{'cat': 'II', 'resp': 'reach'}",100,190,Left,57.04284653758047,73.44159316443923,2.852142326879024,1.1536178477666632,Left,Correct,0.0,0.0,-45,45,2002,1689,-2.32
"{'cat': 'II', 'resp': 'reach'}",100,191,Right,71.9116758717271,50.26791821934399,3.595583793586355,0.7896066129457179,Right,Correct,0.0,0.0,-45,45,2005,1130,-0.77
"{'cat': 'II', 'resp': 'reach'}",100,192,Right,60.77081393174245,31.556612581835676,3.0385406965871224,0.495690111296371,Right,Correct,0.0,0.0,-45,45,2003,1186,-0.7
"{'cat': 'II', 'resp': 'reach'}",100,193,Right,40.03738070048985,22.352915315574418,2.0018690350244923,0.35111877270861674,Right,Correct,0.0,0.0,-45,45,2008,2509,-0.69
"{'cat': 'II', 'resp': 'reach'}",100,194,Right,77.15516841025354,63.433781546231565,3.8577584205126767,0.9964155104753042,Right,Correct,0.0,0.0,-45,45,2002,1401,-0.69
"{'cat': 'II', 'resp': 'reach'}",100,195,Right,53.69511597324341,33.41755041707499,2.6847557986621706,0.5249216544562466,Right,Correct,0.0,0.0,-45,45,2004,1796,-0.7
"{'cat': 'II', 'resp': 'reach'}",100,196,Left,28.68345349568269,57.18782522984935,1.4341726747841346,0.8983042580843588,Left,Correct,0.0,0.0,-45,45,2007,1148,-2.4
"{'cat': 'II', 'resp': 'reach'}",100,197,Left,57.267080801086124,72.29799046569656,2.8633540400543063,1.135654178581686,Left,Correct,0.0,0.0,-45,45,2003,2235,-2.45
"{'cat': 'II', 'resp': 'reach'}",100,198,Left,27.669928865114628,47.42360458296662,1.3834964432557313,0.744928238822976,Left,Correct,0.0,0.0,-45,45,2011,1254,-2.41
"{'cat': 'II', 'resp': 'reach'}",100,199,Left,30.43280723536823,57.5704985909118,1.5216403617684113,0.9043152771835501,Left,Correct,0.0,0.0,-45,45,2009,809,-2.43
"{'cat': 'II', 'resp': 'reach'}",100,200,Left,21.99193199742078,52.31711219515488,1.099596599871039,0.8217952766466576,Left,Correct,0.0,0.0,-45,45,2001,954,-2.36
"{'cat': 'II', 'resp': 'reach'}",100,201,Right,76.05989586162906,54.99690807027594,3.802994793081453,0.8638894118186606,Right,Correct,0.0,0.0,-45,45,2003,871,-0.74
"{'cat': 'II', 'resp': 'reach'}",100,202,Right,37.88634700678486,23.1171680823498,1.894317350339243,0.3631236270965529,Right,Correct,0.0,0.0,-45,45,2006,2168,-0.71
"{'cat': 'II', 'resp': 'reach'}",100,203,Left,53.711666480115056,81.29959945818784,2.685583324005753,1.2770511219881784,Left,Correct,0.0,0.0,-45,45,2003,1389,-2.42
"{'cat': 'II', 'resp': 'reach'}",100,204,Right,85.01242711090501,59.36548047434474,4.250621355545251,0.9325107866751489,Right,Correct,0.0,0.0,-45,45,2004,1019,-0.78
"{'cat': 'II', 'resp': 'reach'}",100,205,Left,65.76915188720234,77.26380167477566,3.288457594360117,1.2136569586494699,Right,Incorrect,0.0,0.0,-45,45,2002,1967,-0.64
"{'cat': 'II', 'resp': 'reach'}",100,206,Right,50.6548326915421,27.50271976425102,2.5327416345771048,0.43201171182554904,Right,Correct,0.0,0.0,-45,45,2009,1197,-0.75
"{'cat': 'II', 'resp': 'reach'}",100,207,Right,41.8604582870351,22.117316237932297,2.093022914351755,0.34741799105105176,Right,Correct,0.0,0.0,-45,45,2007,1876,-0.77
"{'cat': 'II', 'resp': 'reach'}",100,208,Right,63.84796003085129,54.16629478844757,3.1923980015425646,0.85084216889783,Right,Correct,0.0,0.0,-45,45,2003,2962,-0.67
"{'cat': 'II', 'resp': 'reach'}",100,209,Left,66.32031997246305,87.37835287218363,3.3160159986231523,1.3725359573301434,Left,Correct,0.0,0.0,-45,45,2012,1138,-2.43
"{'cat': 'II', 'resp': 'reach'}",100,210,Left,64.7577198630164,79.02877462016428,3.23788599315082,1.241381088844558,Left,Correct,0.0,0.0,-45,45,2007,1132,-2.3
"{'cat': 'II', 'resp': 'reach'}",100,211,Right,80.58263162519347,67.78667121488473,4.029131581259674,1.0647905414999428,Right,Correct,0.0,0.0,-45,45,2007,1078,-0.78
"{'cat': 'II', 'resp': 'reach'}",100,212,Right,43.9663152676087,25.544137790529106,2.198315763380435,0.40124637812505826,Right,Correct,0.0,0.0,-45,45,2006,2434,-0.71
"{'cat': 'II', 'resp': 'reach'}",100,213,Right,69.26601394884356,50.059962586018216,3.4633006974421785,0.7863400534960735,Right,Correct,0.0,0.0,-45,45,2011,1116,-0.71
"{'cat': 'II', 'resp': 'reach'}",100,214,Right,62.275691164403696,37.37430479837315,3.113784558220185,0.5870742069379743,Right,Correct,0.0,0.0,-45,45,2012,1537,-0.69
"{'cat': 'II', 'resp': 'reach'}",100,215,Right,35.734877723038906,16.63210858180631,1.7867438861519451,0.2612565506715523,Left,Incorrect,0.0,0.0,-45,45,2001,1824,-2.35
"{'cat': 'II', 'resp': 'reach'}",100,216,Left,24.951410618973895,46.080528905796534,1.2475705309486949,0.7238312554199124,Left,Correct,0.0,0.0,-45,45,2003,1297,-2.34
"{'cat': 'II', 'resp': 'reach'}",100,217,Right,75.76280812135776,44.10653062099775,3.788140406067888,0.692823762871299,Right,Correct,0.0,0.0,-45,45,2007,921,-0.71
"{'cat': 'II', 'resp': 'reach'}",100,218,Left,33.65222604859016,44.05651302329427,1.682611302429508,0.6920380882838217,Right,Incorrect,0.0,0.0,-45,45,2004,2243,-0.77
"{'cat': 'II', 'resp': 'reach'}",100,219,Left,19.76842824723152,41.57421081729912,0.988421412361576,0.653046176412101,Left,Correct,0.0,0.0,-45,45,2012,1504,-2.48
"{'cat': 'II', 'resp': 'reach'}",100,220,Right,49.40621744670777,26.435599321846112,2.470310872335389,0.41524942311377533,Right,Correct,0.0,0.0,-45,45,2004,1849,-0.71
"{'cat': 'II', 'resp': 'reach'}",100,221,Right,79.32669521779846,58.3787588889553,3.9663347608899233,0.9170114002561591,Right,Correct,0.0,0.0,-45,45,2003,1190,-0.7
"{'cat': 'II', 'resp': 'reach'}",100,222,Left,27.432386955616224,43.12364071254926,1.371619347780811,0.6773845642929524,Left,Correct,0.0,0.0,-45,45,2008,2096,-2.39
"{'cat': 'II', 'resp': 'reach'}",100,223,Right,77.16952892179253,59.96155410910149,3.858476446089627,0.9418738894349005,Right,Correct,0.0,0.0,-45,45,2004,983,-0.85
"{'cat': 'II', 'resp': 'reach'}",100,224,Right,62.807045941408894,41.285568790895816,3.1403522970704447,0.6485121980637717,Right,Correct,0.0,0.0,-45,45,2006,1053,-0.85
"{'cat': 'II', 'resp': 'reach'}",100,225,Left,53.943395957705235,61.80203700586814,2.6971697978852616,0.9707841271725995,Right,Incorrect,0.0,0.0,-45,45,2002,2113,-0.73
"{'cat': 'II', 'resp': 'reach'}",100,226,Right,39.303000325184755,16.806137991469903,1.965150016259238,0.2639901982460908,Right,Correct,0.0,0.0,-45,45,2004,3795,-0.67
"{'cat': 'II', 'resp': 'reach'}",100,227,Left,43.86792851665887,65.26408303538459,2.1933964258329435,1.0251658190361923,Right,Incorrect,0.0,0.0,-45,45,2007,1853,-0.77
"{'cat': 'II', 'resp': 'reach'}",100,228,Left,50.617986537644974,72.83609124958167,2.5308993268822486,1.144106645929408,Right,Incorrect,0.0,0.0,-45,45,2003,3047,-0.76
"{'cat': 'II', 'resp': 'reach'}",100,229,Left,50.159005532866686,71.70080352627386,2.507950276643334,1.1262735880731356,Left,Correct,0.0,0.0,-45,45,2008,1929,-2.31
"{'cat': 'II', 'resp': 'reach'}",100,230,Left,63.34572792669246,83.84508394166714,3.167286396334623,1.317035498753805,Left,Correct,0.0,0.0,-45,45,2009,3480,-2.39
"{'cat': 'II', 'resp': 'reach'}",100,231,Right,69.78723384560793,59.26649675578875,3.4893616922803967,0.9309559540599461,Right,Correct,0.0,0.0,-45,45,2007,1525,-0.79
"{'cat': 'II', 'resp': 'reach'}",100,232,Right,62.52074294761777,35.5193175072738,3.1260371473808886,0.5579361347068735,Right,Correct,0.0,0.0,-45,45,2002,960,-0.67
"{'cat': 'II', 'resp': 'reach'}",100,233,Right,39.30503508527485,14.420627699341818,1.9652517542637427,0.22651869020202872,Right,Correct,0.0,0.0,-45,45,2002,2976,-0.78
"{'cat': 'II', 'resp': 'reach'}",100,234,Left,47.94582555639262,77.33835770832052,2.397291277819631,1.2148280820857962,Right,Incorrect,0.0,0.0,-45,45,2001,2745,-0.76
"{'cat': 'II', 'resp': 'reach'}",100,235,Left,31.10680108739843,54.31320000462683,1.5553400543699214,0.8531497506374439,Left,Correct,0.0,0.0,-45,45,2008,1424,-2.39
"{'cat': 'II', 'resp': 'reach'}",100,236,Left,28.18823634052795,53.97316255084987,1.4094118170263976,0.8478084548037884,Left,Correct,0.0,0.0,-45,45,2009,1111,-2.49
"{'cat': 'II', 'resp': 'reach'}",100,237,Left,38.5545913283813,54.00816908788294,1.9277295664190648,0.8483583362016419,Left,Correct,0.0,0.0,-45,45,2004,1681,-2.47
"{'cat': 'II', 'resp': 'reach'}",100,238,Left,44.645078330096354,60.33952495335565,2.2322539165048174,0.9478110415728006,Left,Correct,0.0,0.0,-45,45,2002,2332,-2.48
"{'cat': 'II', 'resp': 'reach'}",100,239,Right,69.38266438994569,60.80209775814593,3.4691332194972846,0.9550771181991984,Right,Correct,0.0,0.0,-45,45,2005,1277,-0.77
"{'cat': 'II', 'resp': 'reach'}",100,240,Right,42.58834628618789,31.311769792335163,2.1294173143093946,0.4918441297524748,Right,Correct,0.0,0.0,-45,45,2007,3122,-0.87
"{'cat': 'II', 'resp': 'reach'}",100,241,Right,61.00571551433224,32.82631775838931,3.0502857757166115,0.5156345935708001,Right,Correct,0.0,0.0,-45,45,2002,941,-0.83
"{'cat': 'II', 'resp': 'reach'}",100,242,Right,82.71520273820906,54.88989489673912,4.135760136910453,0.8622084528195575,Right,Correct,0.0,0.0,-45,45,2005,888,-0.71
"{'cat': 'II', 'resp': 'reach'}",100,243,Left,15.913043314864037,31.395475999396222,0.7956521657432019,0.49315898377828915,Left,Correct,0.0,0.0,-45,45,2011,1093,-2.52
"{'cat': 'II', 'resp': 'reach'}",100,244,Right,64.1198601913333,34.149428821124374,3.205993009566665,0.5364179735436595,Right,Correct,0.0,0.0,-45,45,2009,1308,-0.73
"{'cat': 'II', 'resp': 'reach'}",100,245,Left,35.36082996230003,62.834188481032,1.7680414981150017,0.9869971246314327,Left,Correct,0.0,0.0,-45,45,2009,1179,-2.39
"{'cat': 'II', 'resp': 'reach'}",100,246,Right,73.68667403964574,48.48582827826441,3.6843337019822866,0.7616136096110585,Right,Correct,0.0,0.0,-45,45,2007,878,-0.84
"{'cat': 'II', 'resp': 'reach'}",100,247,Right,40.10972559947733,30.16323526425703,2.005486279973866,0.4738029915734523,Right,Correct,0.0,0.0,-45,45,2009,2001,-0.77
"{'cat': 'II', 'resp': 'reach'}",100,248,Right,49.65253116050967,35.81981128004851,2.4826265580254834,0.5626562798518661,Right,Correct,0.0,0.0,-45,45,2004,1500,-0.72
"{'cat': 'II', 'resp': 'reach'}",100,249,Left,36.0808001127392,56.069145952533894,1.80404000563696,0.880732085087672,Right,Incorrect,0.0,0.0,-45,45,2012,1201,-0.88
"{'cat': 'II', 'resp': 'reach'}",100,250,Left,64.41806662341092,79.40422686942735,3.2209033311705464,1.247278678984851,Right,Incorrect,0.0,0.0,-45,45,2007,1058,-0.86
"{'cat': 'II', 'resp': 'reach'}",100,251,Right,35.00555492583183,19.08108569660161,1.7502777462915915,0.29972499323480445,Right,Correct,0.0,0.0,-45,45,2008,3242,-0.74
"{'cat': 'II', 'resp': 'reach'}",100,252,Left,59.33715960924167,82.33916257395919,2.966857980462083,1.2933805412254291,Left,Correct,0.0,0.0,-45,45,2008,1618,-2.34
"{'cat': 'II', 'resp': 'reach'}",100,253,Right,64.19144471597227,54.02966655933617,3.209572235798613,0.8486960176935832,Right,Correct,0.0,0.0,-45,45,2007,870,-0.77
"{'cat': 'II', 'resp': 'reach'}",100,254,Left,37.861206881791325,67.75673378587777,1.8930603440895664,1.0643202854647646,Left,Correct,0.0,0.0,-45,45,2007,1008,-2.44
"{'cat': 'II', 'resp': 'reach'}",100,255,Left,31.68166498357735,54.56705155772275,1.5840832491788674,0.8571372415089864,Left,Correct,0.0,0.0,-45,45,2001,1368,-2.49
"{'cat': 'II', 'resp': 'reach'}",100,256,Left,26.241440529793568,41.72423714949129,1.3120720264896784,0.6554027845274009,Left,Correct,0.0,0.0,-45,45,2002,985,-2.39
"{'cat': 'II', 'resp': 'reach'}",100,257,Right,44.30971108295071,32.55302413207998,2.2154855541475356,0.5113417073273686,Right,Correct,0.0,0.0,-45,45,2007,2406,-0.67
"{'cat': 'II', 'resp': 'reach'}",100,258,Right,59.612944816501205,46.152512826612934,2.98064724082506,0.7249619762039795,Right,Correct,0.0,0.0,-45,45,2006,1064,-0.79
"{'cat': 'II', 'resp': 'reach'}",100,259,Right,53.36841210980583,33.21975239095396,2.6684206054902915,0.5218146503274645,Right,Correct,0.0,0.0,-45,45,2001,1230,-0.83
"{'cat': 'II', 'resp': 'reach'}",100,260,Right,34.62688367809493,23.019494612968707,1.7313441839047465,0.36158937582726147,Right,Correct,0.0,0.0,-45,45,2012,2618,-0.77
"{'cat': 'II', 'resp': 'reach'}",100,261,Left,39.80209723365069,67.998094243179,1.9901048616825348,1.0681115666623875,Left,Correct,0.0,0.0,-45,45,2006,1374,-2.43
"{'cat': 'II', 'resp': 'reach'}",100,262,Left,39.795798503542244,66.88004594103356,1.9897899251771123,1.0505493050004946,Left,Correct,0.0,0.0,-45,45,2011,1144,-2.39
"{'cat': 'II', 'resp': 'reach'}",100,263,Left,23.206983485459848,37.31401118703927,1.1603491742729923,0.5861271171058496,Left,Correct,0.0,0.0,-45,45,2013,1364,-2.4
"{'cat': 'II', 'resp': 'reach'}",100,264,Left,49.990687948260465,58.64082392346158,2.4995343974130235,0.9211279081919973,Right,Incorrect,0.0,0.0,-45,45,2009,944,-0.77
"{'cat': 'II', 'resp': 'reach'}",100,265,Left,33.49862876495395,50.07970946569801,1.6749314382476974,0.7866502367567405,Left,Correct,0.0,0.0,-45,45,2013,1147,-2.4
"{'cat': 'II', 'resp': 'reach'}",100,266,Right,61.42525900040269,48.542179323402415,3.071262950020134,0.7624987697581969,Right,Correct,0.0,0.0,-45,45,2004,2903,-0.74
"{'cat': 'II', 'resp': 'reach'}",100,267,Left,67.13376644724988,82.95572151422894,3.3566883223624937,1.303065426411712,Left,Correct,0.0,0.0,-45,45,2007,1565,-2.44
"{'cat': 'II', 'resp': 'reach'}",100,268,Right,55.710563440076854,31.161839286612146,2.7855281720038425,0.48948902687583257,Right,Correct,0.0,0.0,-45,45,2003,848,-0.86
"{'cat': 'II', 'resp': 'reach'}",100,269,Right,75.91712955218712,50.46140444719661,3.795856477609356,0.7926458875056808,Right,Correct,0.0,0.0,-45,45,2002,1200,-0.75
"{'cat': 'II', 'resp': 'reach'}",100,270,Right,54.35436379498142,24.729447242647943,2.7177181897490708,0.3884492489241958,Right,Correct,0.0,0.0,-45,45,2012,1317,-0.74
"{'cat': 'II', 'resp': 'reach'}",100,271,Right,36.96158466313019,14.126983071186523,1.8480792331565095,0.22190613116913474,Right,Correct,0.0,0.0,-45,45,2002,2100,-0.77
"{'cat': 'II', 'resp': 'reach'}",100,272,Right,59.286502488411124,44.53574282257367,2.964325124420556,0.699565812367809,Right,Correct,0.0,0.0,-45,45,2006,1783,-0.71
"{'cat': 'II', 'resp': 'reach'}",100,273,Left,21.17276978109069,39.722801731437116,1.0586384890545346,0.6239643104974337,Left,Correct,0.0,0.0,-45,45,2006,2454,-2.37
"{'cat': 'II', 'resp': 'reach'}",100,274,Right,64.04826394469733,46.15958006126156,3.2024131972348666,0.725072988066246,Right,Correct,0.0,0.0,-45,45,2004,912,-0.73
"{'cat': 'II', 'resp': 'reach'}",100,275,Right,52.040756099997964,39.60771376521353,2.602037804999898,0.6221565129514107,Right,Correct,0.0,0.0,-45,45,2007,973,-0.76
"{'cat': 'II', 'resp': 'reach'}",100,276,Right,64.64119933795494,55.512374789866634,3.232059966897747,0.8719863441158413,Right,Correct,0.0,0.0,-45,45,2002,969,-0.8
"{'cat': 'II', 'resp': 'reach'}",100,277,Right,40.044341873992394,19.19466526391655,2.0022170936996195,0.30150909690617717,Right,Correct,0.0,0.0,-45,45,2006,828,-0.72
"{'cat': 'II', 'resp': 'reach'}",100,278,Right,77.77685054797408,49.559662487024355,3.8888425273987037,0.7784813579181267,Right,Correct,0.0,0.0,-45,45,2006,1374,-0.8
"{'cat': 'II', 'resp': 'reach'}",100,279,Right,82.15564034858171,59.34808855138314,4.107782017429085,0.9322375949881089,Right,Correct,0.0,0.0,-45,45,2002,886,-0.79
"{'cat': 'II', 'resp': 'reach'}",100,280,Right,48.33525550440496,28.146290937761187,2.416762775220248,0.44212090417935757,Right,Correct,0.0,0.0,-45,45,2001,1224,-0.72
"{'cat': 'II', 'resp': 'reach'}",100,281,Right,80.64338775737691,59.64125161174616,4.032169387868845,0.9368425895718108,Right,Correct,0.0,0.0,-45,45,2008,714,-0.76
"{'cat': 'II', 'resp': 'reach'}",100,282,Left,48.67727741427574,79.22135679549393,2.4338638707137874,1.2444061625806977,Left,Correct,0.0,0.0,-45,45,2002,1122,-2.42
"{'cat': 'II', 'resp': 'reach'}",100,283,Left,20.59493464957477,35.11903866920953,1.0297467324787386,0.5516485694216227,Left,Correct,0.0,0.0,-45,45,2005,1336,-2.45
"{'cat': 'II', 'resp': 'reach'}",100,284,Left,30.248370217766382,56.24743252511787,1.512418510888319,0.8835326040209895,Left,Correct,0.0,0.0,-45,45,2012,1253,-2.42
"{'cat': 'II', 'resp': 'reach'}",100,285,Left,14.752735736001291,43.06808153701311,0.7376367868000645,0.6765118428044329,Left,Correct,0.0,0.0,-45,45,2004,1368,-2.37
"{'cat': 'II', 'resp': 'reach'}",100,286,Left,67.10984220383763,86.54099633873395,3.3554921101918813,1.3593827916605388,Left,Correct,0.0,0.0,-45,45,2009,2095,-2.3
"{'cat': 'II', 'resp': 'reach'}",100,287,Left,51.3803438079233,78.64729116940616,2.569017190396165,1.2353887608127192,Left,Correct,0.0,0.0,-45,45,2008,1424,-2.34
"{'cat': 'II', 'resp': 'reach'}",100,288,Left,58.45268907311675,70.8519296661821,2.9226344536558377,1.112939508659692,Right,Incorrect,0.0,0.0,-45,45,2009,4139,-0.84
"{'cat': 'II', 'resp': 'reach'}",100,289,Right,60.56401346772416,41.57092509905198,3.0282006733862077,0.6529945644705663,Right,Correct,0.0,0.0,-45,45,2007,1093,-0.76
"{'cat': 'II', 'resp': 'reach'}",100,290,Right,61.35152334580803,40.99898777036941,3.0675761672904014,0.6440105939200516,Right,Correct,0.0,0.0,-45,45,2007,949,-0.77
"{'cat': 'II', 'resp': 'reach'}",100,291,Right,37.699442192973095,15.364997541326094,1.8849721096486547,0.24135281699127645,Right,Correct,0.0,0.0,-45,45,2007,2193,-0.75
"{'cat': 'II', 'resp': 'reach'}",100,292,Left,34.48322362037488,66.02803424687431,1.7241611810187438,1.037165936604778,Right,Incorrect,0.0,0.0,-45,45,2001,3449,-0.83
"{'cat': 'II', 'resp': 'reach'}",100,293,Left,27.82938442007834,43.22528675195731,1.391469221003917,0.6789812165463066,Left,Correct,0.0,0.0,-45,45,2009,862,-2.29
"{'cat': 'II', 'resp': 'reach'}",100,294,Left,28.46745367783226,42.47447251793443,1.423372683891613,0.6671874541372218,Left,Correct,0.0,0.0,-45,45,2011,1209,-2.49
"{'cat': 'II', 'resp': 'reach'}",100,295,Right,41.61997623665786,17.19663077449552,2.080998811832893,0.2701240445382564,Right,Correct,0.0,0.0,-45,45,2001,1064,-0.73
"{'cat': 'II', 'resp': 'reach'}",100,296,Left,30.43032325830675,53.95190712441034,1.5215161629153373,0.8474745753460318,Left,Correct,0.0,0.0,-45,45,2013,1475,-2.37
"{'cat': 'II', 'resp': 'reach'}",100,297,Right,55.386493199852225,31.40608788408808,2.7693246599926113,0.4933256748732326,Right,Correct,0.0,0.0,-45,45,2005,1252,-0.78
"{'cat': 'II', 'resp': 'reach'}",100,298,Right,60.99911223672217,44.37394029551413,3.0499556118361086,0.6970242242160964,Right,Correct,0.0,0.0,-45,45,2003,986,-0.81
"{'cat': 'II', 'resp': 'reach'}",100,299,Right,71.91404798279952,51.05017602635343,3.5957023991399755,0.8018942898442886,Right,Correct,0.0,0.0,-45,45,2009,864,-0.87
"{'cat': 'II', 'resp': 'reach'}",100,300,Left,35.02921473544412,61.98291494022103,1.7514607367722062,0.973625351121397,Left,Correct,0.0,0.0,-45,45,2001,1720,-2.33
"{'cat': 'II', 'resp': 'reach'}",100,301,Right,44.22740040278811,16.679470337755028,2.2113700201394058,0.2620005073943003,Right,Correct,0.0,0.0,-45,45,2002,1198,-0.73
"{'cat': 'II', 'resp': 'reach'}",100,302,Left,64.2823007683913,88.02614475857445,3.2141150384195645,1.382711448486846,Left,Correct,0.0,0.0,-45,45,2008,2677,-2.26
"{'cat': 'II', 'resp': 'reach'}",100,303,Right,60.58388370662344,40.54280802232999,3.029194185331172,0.6368449391942661,Right,Correct,0.0,0.0,-45,45,2002,1082,-0.76
"{'cat': 'II', 'resp': 'reach'}",100,304,Right,48.878747283651684,34.89650847078233,2.443937364182584,0.5481530732387188,Right,Correct,0.0,0.0,-45,45,2008,1033,-0.78
"{'cat': 'II', 'resp': 'reach'}",100,305,Right,48.04141656943348,22.854337125041017,2.4020708284716736,0.3589950880734667,Right,Correct,0.0,0.0,-45,45,2005,815,-0.79
"{'cat': 'II', 'resp': 'reach'}",100,306,Left,54.83751937655222,66.48619107731007,2.7418759688276113,1.0443626472682228,Left,Correct,0.0,0.0,-45,45,2008,1900,-2.37
"{'cat': 'II', 'resp': 'reach'}",100,307,Left,60.5548967784806,76.43408478740005,3.02774483892403,1.200623796259777,Left,Correct,0.0,0.0,-45,45,2009,2858,-2.42
"{'cat': 'II', 'resp': 'reach'}",100,308,Left,31.318346184335947,52.59393788563932,1.5659173092167973,0.8261436444244119,Left,Correct,0.0,0.0,-45,45,2004,1366,-2.33
"{'cat': 'II', 'resp': 'reach'}",100,309,Left,21.911996432948214,36.9618813923308,1.0955998216474108,0.5805958752250185,Left,Correct,0.0,0.0,-45,45,2003,1374,-2.36
"{'cat': 'II', 'resp': 'reach'}",100,310,Left,42.92158302633066,66.84905985056874,2.146079151316533,1.0500625766296556,Left,Correct,0.0,0.0,-45,45,2008,2035,-2.41
"{'cat': 'II', 'resp': 'reach'}",100,311,Left,49.57695019832363,73.46745188828658,2.4788475099161813,1.1540240356510134,Left,Correct,0.0,0.0,-45,45,2008,2837,-2.31
"{'cat': 'II', 'resp': 'reach'}",100,312,Left,20.136995267197666,39.17812931530281,1.0068497633598832,0.615408616191731,Left,Correct,0.0,0.0,-45,45,2001,1223,-2.41
"{'cat': 'II', 'resp': 'reach'}",100,313,Left,46.15179875317395,77.33322452879376,2.3075899376586975,1.2147474502903424,Left,Correct,0.0,0.0,-45,45,2005,1374,-2.43
"{'cat': 'II', 'resp': 'reach'}",100,314,Right,56.807894586086185,28.38184620215317,2.8403947293043093,0.4458209976199988,Right,Correct,0.0,0.0,-45,45,2007,1413,-0.73
"{'cat': 'II', 'resp': 'reach'}",100,315,Left,24.85246816341555,42.44253355574923,1.2426234081707777,0.6666857580924003,Left,Correct,0.0,0.0,-45,45,2001,1198,-2.4
"{'cat': 'II', 'resp': 'reach'}",100,316,Left,31.968743214354532,52.895867319700606,1.5984371607177266,0.8308863408841591,Left,Correct,0.0,0.0,-45,45,2005,1031,-2.42
"{'cat': 'II', 'resp': 'reach'}",100,317,Left,57.454148660033184,83.35433882285359,2.872707433001659,1.3093268924535566,Left,Correct,0.0,0.0,-45,45,2006,1516,-2.34
"{'cat': 'II', 'resp': 'reach'}",100,318,Left,25.70879326729675,53.30391325345286,1.2854396633648375,0.8372959114231755,Left,Correct,0.0,0.0,-45,45,2012,1304,-2.42
"{'cat': 'II', 'resp': 'reach'}",100,319,Left,40.44873284270538,63.035417508285924,2.0224366421352693,0.9901580227999823,Left,Correct,0.0,0.0,-45,45,2003,1317,-2.36
"{'cat': 'II', 'resp': 'reach'}",100,320,Left,51.93012508809079,71.1651593495397,2.5965062544045394,1.1178597090203046,Left,Correct,0.0,0.0,-45,45,2012,3250,-2.42
"{'cat': 'II', 'resp': 'reach'}",100,321,Right,65.61724958639851,37.52980494172142,3.280862479319926,0.5895167974778497,Right,Correct,0.0,0.0,-45,45,2011,835,-0.78
"{'cat': 'II', 'resp': 'reach'}",100,322,Left,46.07795864834086,76.34257525014218,2.3038979324170428,1.199186367809863,Left,Correct,0.0,0.0,-45,45,2005,1172,-2.34
"{'cat': 'II', 'resp': 'reach'}",100,323,Left,16.003086245289513,45.054508128045434,0.8001543122644756,0.7077145587308457,Left,Correct,0.0,0.0,-45,45,2001,1634,-2.42
"{'cat': 'II', 'resp': 'reach'}",100,324,Left,58.14073739822632,83.26861226206333,2.9070368699113156,1.3079803027855756,Left,Correct,0.0,0.0,-45,45,2006,1340,-2.38
"{'cat': 'II', 'resp': 'reach'}",100,325,Right,72.86496538324229,44.76137950500292,3.6432482691621146,0.7031101050873095,Right,Correct,0.0,0.0,-45,45,2004,989,-0.7
"{'cat': 'II', 'resp': 'reach'}",100,326,Right,75.02116739398225,44.82117829673404,3.7510583696991127,0.7040494223112896,Right,Correct,0.0,0.0,-45,45,2001,1007,-0.75
"{'cat': 'II', 'resp': 'reach'}",100,327,Left,66.06437410779408,89.15835406623711,3.303218705389704,1.4004961507032407,Left,Correct,0.0,0.0,-45,45,2008,1197,-2.31
"{'cat': 'II', 'resp': 'reach'}",100,328,Right,85.35656886723876,64.4905579050376,4.267828443361938,1.0130153147018666,Right,Correct,0.0,0.0,-45,45,2002,1948,-0.71
"{'cat': 'II', 'resp': 'reach'}",100,329,Right,69.16806333493584,37.5464373806902,3.4584031667467916,0.5897780592182276,Right,Correct,0.0,0.0,-45,45,2007,835,-0.69
"{'cat': 'II', 'resp': 'reach'}",100,330,Left,64.18440302391714,74.91803596679256,3.209220151195857,1.176809757073257,Right,Incorrect,0.0,0.0,-45,45,2004,927,-0.82
"{'cat': 'II', 'resp': 'reach'}",100,331,Right,32.511241851910754,15.142121905874212,1.6255620925955379,0.23785189469627754,Right,Correct,0.0,0.0,-45,45,2012,2555,-0.74
"{'cat': 'II', 'resp': 'reach'}",100,332,Left,43.27997675810781,64.25239924394603,2.1639988379053903,1.0092743272014961,Left,Correct,0.0,0.0,-45,45,2005,3028,-2.46
"{'cat': 'II', 'resp': 'reach'}",100,333,Left,29.496015672259023,61.16105510920932,1.474800783612951,0.9607156070844622,Left,Correct,0.0,0.0,-45,45,2005,1025,-2.34
"{'cat': 'II', 'resp': 'reach'}",100,334,Left,48.338601437583286,68.1554819843497,2.416930071879164,1.0705838075195226,Left,Correct,0.0,0.0,-45,45,2002,1971,-2.44
"{'cat': 'II', 'resp': 'reach'}",100,335,Right,80.20167876634626,57.753090617813385,4.0100839383173135,0.9071834260351407,Right,Correct,0.0,0.0,-45,45,2006,750,-0.78
"{'cat': 'II', 'resp': 'reach'}",100,336,Left,49.397261369453204,65.34354358303584,2.46986306847266,1.0264139823999492,Left,Correct,0.0,0.0,-45,45,2004,1236,-2.36
"{'cat': 'II', 'resp': 'reach'}",100,337,Right,50.8275574301602,43.41465182022246,2.54137787150801,0.6819557560828481,Right,Correct,0.0,0.0,-45,45,2005,2310,-0.69
"{'cat': 'II', 'resp': 'reach'}",100,338,Right,45.97735714026444,27.426443981702786,2.298867857013222,0.4308135746350474,Right,Correct,0.0,0.0,-45,45,2011,2667,-0.78
"{'cat': 'II', 'resp': 'reach'}",100,339,Left,49.94048608280556,69.10845470901415,2.497024304140278,1.085553068073909,Left,Correct,0.0,0.0,-45,45,2006,1634,-2.39
"{'cat': 'II', 'resp': 'reach'}",100,340,Right,39.80172638904992,16.25439416261047,1.9900863194524958,0.2553234264490494,Right,Correct,0.0,0.0,-45,45,2004,1024,-0.73
"{'cat': 'II', 'resp': 'reach'}",100,341,Left,38.75285684034365,49.14112437604313,1.9376428420171823,0.7719069766445971,Right,Incorrect,0.0,0.0,-45,45,2007,1544,-0.73
"{'cat': 'II', 'resp': 'reach'}",100,342,Left,21.034177827046147,46.22062109841815,1.0517088913523074,0.7260318184357393,Left,Correct,0.0,0.0,-45,45,2005,1065,-2.39
"{'cat': 'II', 'resp': 'reach'}",100,343,Left,38.054885352555516,52.76039163361939,1.9027442676277757,0.8287582937834953,Left,Correct,0.0,0.0,-45,45,2013,1167,-2.37
"{'cat': 'II', 'resp': 'reach'}",100,344,Right,49.04767350726087,40.371067566510725,2.4523836753630435,0.6341472464226362,Right,Correct,0.0,0.0,-45,45,2006,4538,-0.8
"{'cat': 'II', 'resp': 'reach'}",100,345,Left,35.77798628738672,58.52902011903228,1.7888993143693357,0.919371698138805,Left,Correct,0.0,0.0,-45,45,2006,1159,-2.37
"{'cat': 'II', 'resp': 'reach'}",100,346,Left,22.139394622555134,48.4289755502678,1.1069697311277567,0.7607205690480051,Left,Correct,0.0,0.0,-45,45,2005,1811,-2.31
"{'cat': 'II', 'resp': 'reach'}",100,347,Right,40.8636336746385,26.025263141148585,2.043181683731925,0.4088038774598681,Left,Incorrect,0.0,0.0,-45,45,2005,3407,-2.42
"{'cat': 'II', 'resp': 'reach'}",100,348,Left,52.37717213403813,78.17455346905741,2.6188586067019064,1.2279630143802662,Left,Correct,0.0,0.0,-45,45,2007,1941,-2.38
"{'cat': 'II', 'resp': 'reach'}",100,349,Right,41.87491650180432,18.505257765895145,2.093745825090216,0.29067990925060827,Right,Correct,0.0,0.0,-45,45,2001,1132,-0.74
"{'cat': 'II', 'resp': 'reach'}",100,350,Left,26.78177207972882,56.180575321953626,1.339088603986441,0.8824824135294876,Left,Correct,0.0,0.0,-45,45,2002,1375,-2.4
"{'cat': 'II', 'resp': 'reach'}",100,351,Right,66.02386470135347,42.278299841622285,3.301193235067674,0.6641059809435355,Right,Correct,0.0,0.0,-45,45,2013,1085,-0.72
"{'cat': 'II', 'resp': 'reach'}",100,352,Left,33.39616311136809,54.100876901002074,1.6698081555684043,0.8498145871247693,Left,Correct,0.0,0.0,-45,45,2007,1582,-2.35
"{'cat': 'II', 'resp': 'reach'}",100,353,Left,62.37469199267224,73.97822148985568,3.118734599633612,1.1620471857908459,Left,Correct,0.0,0.0,-45,45,2004,2452,-2.27
"{'cat': 'II', 'resp': 'reach'}",100,354,Right,88.32627353708375,62.06220697775156,4.4163136768541875,0.9748708675343676,Right,Correct,0.0,0.0,-45,45,2009,1624,-0.75
"{'cat': 'II', 'resp': 'reach'}",100,355,Right,43.97526092145805,19.616038022957035,2.1987630460729024,0.30812800472729934,Right,Correct,0.0,0.0,-45,45,2012,2106,-0.73
"{'cat': 'II', 'resp': 'reach'}",100,356,Right,68.60707049667566,41.40132812064771,3.430353524833783,0.6503305413634368,Right,Correct,0.0,0.0,-45,45,2001,1042,-0.82
"{'cat': 'II', 'resp': 'reach'}",100,357,Right,65.17388324902315,42.897021519060296,3.2586941624511576,0.6738248383258154,Right,Correct,0.0,0.0,-45,45,2012,1298,-0.82
"{'cat': 'II', 'resp': 'reach'}",100,358,Right,59.36439258841386,47.33223379083705,2.968219629420693,0.7434929897764412,Left,Incorrect,0.0,0.0,-45,45,2003,2887,-2.51
"{'cat': 'II', 'resp': 'reach'}",100,359,Left,55.42860888258193,64.5027878701056,2.7714304441290967,1.013207422543923,Left,Correct,0.0,0.0,-45,45,2001,1179,-2.26
"{'cat': 'II', 'resp': 'reach'}",100,360,Right,56.433001282806266,43.63104516652406,2.821650064140313,0.6853548548179822,Right,Correct,0.0,0.0,-45,45,2007,1053,-0.73
"{'cat': 'II', 'resp': 'reach'}",100,361,Left,65.24220658919842,88.46795327222489,3.262110329459921,1.3896513603907341,Left,Correct,0.0,0.0,-45,45,2006,1201,-2.32
"{'cat': 'II', 'resp': 'reach'}",100,362,Left,55.2162700835088,70.63958766324545,2.76081350417544,1.1096040482773204,Left,Correct,0.0,0.0,-45,45,2006,1356,-2.36
"{'cat': 'II', 'resp': 'reach'}",100,363,Right,47.848783731714214,27.793001866316423,2.3924391865857104,0.43657145242213546,Right,Correct,0.0,0.0,-45,45,2007,1659,-0.64
"{'cat': 'II', 'resp': 'reach'}",100,364,Left,58.21524520163347,78.5177380847885,2.9107622600816736,1.2333537457182953,Left,Correct,0.0,0.0,-45,45,2009,1713,-2.36
"{'cat': 'II', 'resp': 'reach'}",100,365,Left,29.185373244912846,51.995053869799364,1.4592686622456423,0.8167363963018361,Left,Correct,0.0,0.0,-45,45,2007,1393,-2.4
"{'cat': 'II', 'resp': 'reach'}",100,366,Right,37.61687786259058,14.839219955853594,1.8808438931295288,0.23309392199156354,Right,Correct,0.0,0.0,-45,45,2003,2548,-0.73
"{'cat': 'II', 'resp': 'reach'}",100,367,Left,19.448154408852332,46.581693836258374,0.9724077204426166,0.7317035357387913,Left,Correct,0.0,0.0,-45,45,2009,935,-2.36
"{'cat': 'II', 'resp': 'reach'}",100,368,Right,37.132479694770836,26.80679341274905,1.8566239847385417,0.42108012625895846,Right,Correct,0.0,0.0,-45,45,2008,1800,-0.8
"{'cat': 'II', 'resp': 'reach'}",100,369,Left,19.871149473563047,43.804061919045054,0.9935574736781524,0.6880725956113218,Left,Correct,0.0,0.0,-45,45,2012,1195,-2.5
"{'cat': 'II', 'resp': 'reach'}",100,370,Right,46.11946034289868,37.03348877806325,2.3059730171449337,0.5817206814098177,Right,Correct,0.0,0.0,-45,45,2008,1443,-0.74
"{'cat': 'II', 'resp': 'reach'}",100,371,Left,30.422252492738068,63.6246159860529,1.5211126246369033,0.9994131308462774,Left,Correct,0.0,0.0,-45,45,2005,1188,-2.4
"{'cat': 'II', 'resp': 'reach'}",100,372,Right,84.70644132167905,63.67630309401147,4.235322066083953,1.0002250300395172,Right,Correct,0.0,0.0,-45,45,2002,2140,-0.67
"{'cat': 'II', 'resp': 'reach'}",100,373,Right,62.07768827522434,50.268328654846535,3.103884413761217,0.7896130600515158,Right,Correct,0.0,0.0,-45,45,2001,1059,-0.78
"{'cat': 'II', 'resp': 'reach'}",100,374,Right,67.36625127158062,42.97792469870338,3.368312563579031,0.6750956624999094,Right,Correct,0.0,0.0,-45,45,2009,1059,-0.72
"{'cat': 'II', 'resp': 'reach'}",100,375,Right,83.32701378899446,68.10529614707225,4.1663506894497235,1.0697954902309972,Right,Correct,0.0,0.0,-45,45,2009,1047,-0.77
"{'cat': 'II', 'resp': 'reach'}",100,376,Left,58.45765393231689,83.28217987242067,2.922882696615844,1.3081934223107026,Left,Correct,0.0,0.0,-45,45,2008,869,-2.32
"{'cat': 'II', 'resp': 'reach'}",100,377,Left,20.407748228653883,50.93437890080635,1.0203874114326943,0.800075352849661,Left,Correct,0.0,0.0,-45,45,2004,1716,-2.38
"{'cat': 'II', 'resp': 'reach'}",100,378,Right,56.63218052370714,29.427111905665704,2.8316090261853573,0.4622399928960205,Right,Correct,0.0,0.0,-45,45,2005,1279,-0.67
"{'cat': 'II', 'resp': 'reach'}",100,379,Left,28.080174878077905,57.90393339597025,1.4040087439038953,0.9095528588536641,Left,Correct,0.0,0.0,-45,45,2002,2384,-2.38
"{'cat': 'II', 'resp': 'reach'}",100,380,Right,60.19309735158671,45.233229829965744,3.0096548675793353,0.7105219126597954,Right,Correct,0.0,0.0,-45,45,2004,1242,-0.8
"{'cat': 'II', 'resp': 'reach'}",100,381,Left,40.380316954381016,54.10875160394595,2.019015847719051,0.8499382826693577,Left,Correct,0.0,0.0,-45,45,2003,1664,-2.45
"{'cat': 'II', 'resp': 'reach'}",100,382,Left,18.218530294328303,47.16834722607388,0.9109265147164152,0.7409186656370309,Left,Correct,0.0,0.0,-45,45,2002,1000,-2.4
"{'cat': 'II', 'resp': 'reach'}",100,383,Right,75.60931310341934,46.591024390447856,3.780465655170967,0.7318500997412694,Right,Correct,0.0,0.0,-45,45,2007,1338,-0.79
"{'cat': 'II', 'resp': 'reach'}",100,384,Left,18.002540880027563,34.369943152576425,0.9001270440013782,0.5398818045621645,Left,Correct,0.0,0.0,-45,45,2006,993,-2.46
"{'cat': 'II', 'resp': 'reach'}",100,385,Left,31.087622700584994,55.79782183472878,1.5543811350292498,0.8764701358114806,Left,Correct,0.0,0.0,-45,45,2010,2751,-2.52
"{'cat': 'II', 'resp': 'reach'}",100,386,Left,14.302587980430555,35.55485435379009,0.7151293990215278,0.5584943461866101,Left,Correct,0.0,0.0,-45,45,2008,963,-2.42
"{'cat': 'II', 'resp': 'reach'}",100,387,Left,62.24213038054884,72.3324835782039,3.1121065190274417,1.1361959951259488,Left,Correct,0.0,0.0,-45,45,2005,1367,-2.41
"{'cat': 'II', 'resp': 'reach'}",100,388,Left,24.075852715692527,44.6492660518325,1.2037926357846263,0.7013490310830656,Left,Correct,0.0,0.0,-45,45,2004,1779,-2.45
"{'cat': 'II', 'resp': 'reach'}",100,389,Right,81.72530515198672,65.54204133072271,4.086265257599336,1.0295319777293854,Right,Correct,0.0,0.0,-45,45,2009,2428,-0.79
"{'cat': 'II', 'resp': 'reach'}",100,390,Right,82.92207783737857,60.619694422119316,4.146103891868928,0.9522119332969412,Right,Correct,0.0,0.0,-45,45,2004,763,-0.81
"{'cat': 'II', 'resp': 'reach'}",100,391,Right,76.73680057616663,60.382606627303346,3.8368400288083313,0.9484877669246928,Right,Correct,0.0,0.0,-45,45,2010,826,-0.8
"{'cat': 'II', 'resp': 'reach'}",100,392,Left,41.349950846680265,50.02584392326346,2.067497542334013,0.7858041187947704,Left,Correct,0.0,0.0,-45,45,2007,1619,-2.41
"{'cat': 'II', 'resp': 'reach'}",100,393,Left,29.97017784071449,57.84128827925408,1.4985088920357246,0.9085688316613701,Left,Correct,0.0,0.0,-45,45,2010,1520,-2.41
"{'cat': 'II', 'resp': 'reach'}",100,394,Left,18.790145074549095,48.77343335506363,0.9395072537274547,0.7661312995930964,Left,Correct,0.0,0.0,-45,45,2009,1346,-2.47
"{'cat': 'II', 'resp': 'reach'}",100,395,Left,49.78785306621285,71.64312051029117,2.4893926533106425,1.125367505376895,Left,Correct,0.0,0.0,-45,45,2004,1415,-2.32
"{'cat': 'II', 'resp': 'reach'}",100,396,Right,54.07457445750681,31.61080430989759,2.7037287228753404,0.49654135297019414,Right,Correct,0.0,0.0,-45,45,2002,1315,-0.78
"{'cat': 'II', 'resp': 'reach'}",100,397,Left,44.48501740227944,54.33770900970039,2.2242508701139716,0.8535347371888733,Left,Correct,0.0,0.0,-45,45,2011,1639,-2.39
"{'cat': 'II', 'resp': 'reach'}",100,398,Right,74.23333415632507,50.730531590363924,3.7116667078162537,0.7968733267849611,Right,Correct,0.0,0.0,-45,45,2004,969,-0.78
"{'cat': 'II', 'resp': 'reach'}",100,399,Left,40.26818439054297,49.13268673172299,2.0134092195271482,0.7717744384375483,Left,Correct,0.0,0.0,-45,45,2004,1596,-2.36
