condition,subject,trial,cat,x,y,xt,yt,resp,fb,rotation,su,target_angle_left,target_angle_right,rt,mt,ep
"{'cat': 'II', 'resp': 'button'}",39,0,Right,74.39121327401284,56.585424867474124,3.719560663700642,0.8888417753195695,Right,Correct,0.0,0.0,-45,45,1940,-1,-1
"{'cat': 'II', 'resp': 'button'}",39,1,Right,68.70208321675929,36.89720251267897,3.4351041608379647,0.5795799017592357,Right,Correct,0.0,0.0,-45,45,1288,-1,-1
"{'cat': 'II', 'resp': 'button'}",39,2,Left,27.96936336307732,54.5011774516824,1.398468168153866,0.8561024934709957,Right,Incorrect,0.0,0.0,-45,45,1684,-1,-1
"{'cat': 'II', 'resp': 'button'}",39,3,Left,32.379252627445815,40.76624607570231,1.618962631372291,0.6403546959293006,Left,Correct,0.0,0.0,-45,45,1475,-1,-1
"{'cat': 'II', 'resp': 'button'}",39,4,Left,13.719540114774567,39.305606770629076,0.6859770057387283,0.6174110273774878,Left,Correct,0.0,0.0,-45,45,983,-1,-1
"{'cat': 'II', 'resp': 'button'}",39,5,Left,41.32251525605238,49.290753459659875,2.066125762802619,0.7742573447938658,Right,Incorrect,0.0,0.0,-45,45,934,-1,-1
"{'cat': 'II', 'resp': 'button'}",39,6,Right,78.96969602151671,58.12694094778081,3.9484848010758355,0.9130558532859797,Right,Correct,0.0,0.0,-45,45,3015,-1,-1
"{'cat': 'II', 'resp': 'button'}",39,7,Left,66.04193857312133,86.15554377606466,3.3020969286560664,1.3533281169645928,Right,Incorrect,0.0,0.0,-45,45,1285,-1,-1
"{'cat': 'II', 'resp': 'button'}",39,8,Right,71.6102609897182,58.67498865166418,3.58051304948591,0.9216645664876634,Right,Correct,0.0,0.0,-45,45,3834,-1,-1
"{'cat': 'II', 'resp': 'button'}",39,9,Right,49.412051218600666,19.421882510909693,2.470602560930033,0.30507821707578986,Left,Incorrect,0.0,0.0,-45,45,1422,-1,-1
"{'cat': 'II', 'resp': 'button'}",39,10,Left,45.49106487990884,75.0176840779741,2.274553243995442,1.178375025943417,Right,Incorrect,0.0,0.0,-45,45,1549,-1,-1
"{'cat': 'II', 'resp': 'button'}",39,11,Right,51.60927336504329,23.49114149212786,2.5804636682521647,0.3689979876805362,Right,Correct,0.0,0.0,-45,45,2578,-1,-1
"{'cat': 'II', 'resp': 'button'}",39,12,Left,31.133348836915985,64.03149680213481,1.5566674418457993,1.0058043997597255,Left,Correct,0.0,0.0,-45,45,1064,-1,-1
"{'cat': 'II', 'resp': 'button'}",39,13,Left,39.56609680705183,68.2459124281016,1.9783048403525914,1.0720042856082819,Left,Correct,0.0,0.0,-45,45,4945,-1,-1
"{'cat': 'II', 'resp': 'button'}",39,14,Right,53.94149248383877,45.683337642134816,2.6970746241919388,0.717592189639964,Right,Correct,0.0,0.0,-45,45,1690,-1,-1
"{'cat': 'II', 'resp': 'button'}",39,15,Left,40.12560191177875,62.48633325153679,2.0062800955889375,0.981533027463958,Left,Correct,0.0,0.0,-45,45,2640,-1,-1
"{'cat': 'II', 'resp': 'button'}",39,16,Left,36.766530851853425,52.994387643272375,1.8383265425926711,0.832433894507971,Right,Incorrect,0.0,0.0,-45,45,3893,-1,-1
"{'cat': 'II', 'resp': 'button'}",39,17,Right,41.142600915589654,29.512650867547507,2.0571300457794823,0.46358363576723843,Left,Incorrect,0.0,0.0,-45,45,2143,-1,-1
"{'cat': 'II', 'resp': 'button'}",39,18,Left,17.272058735177424,44.016503181342664,0.8636029367588712,0.6914096151560893,Left,Correct,0.0,0.0,-45,45,881,-1,-1
"{'cat': 'II', 'resp': 'button'}",39,19,Left,57.55583713785047,75.57192170680847,2.8777918568925234,1.1870809702588625,Right,Incorrect,0.0,0.0,-45,45,5426,-1,-1
"{'cat': 'II', 'resp': 'button'}",39,20,Right,55.44303826493871,26.002316830813694,2.7721519132469354,0.4084434376599926,Right,Correct,0.0,0.0,-45,45,1378,-1,-1
"{'cat': 'II', 'resp': 'button'}",39,21,Right,72.98883685802248,40.72107270839338,3.649441842901124,0.6396451143349222,Left,Incorrect,0.0,0.0,-45,45,1500,-1,-1
"{'cat': 'II', 'resp': 'button'}",39,22,Right,65.95719305565751,55.129138517548306,3.2978596527828756,0.8659664828273194,Right,Correct,0.0,0.0,-45,45,928,-1,-1
"{'cat': 'II', 'resp': 'button'}",39,23,Right,73.08297348277952,62.81269228400656,3.654148674138976,0.9866594631581563,Right,Correct,0.0,0.0,-45,45,1292,-1,-1
"{'cat': 'II', 'resp': 'button'}",39,24,Left,24.808621833037357,52.98862012336757,1.240431091651868,0.8323432985171592,Left,Correct,0.0,0.0,-45,45,1450,-1,-1
"{'cat': 'II', 'resp': 'button'}",39,25,Right,39.12029951541702,14.629000752395484,1.9560149757708507,0.22979180646542605,Left,Incorrect,0.0,0.0,-45,45,2274,-1,-1
"{'cat': 'II', 'resp': 'button'}",39,26,Right,50.93542279225912,29.6467669965201,2.546771139612956,0.4656903269947794,Right,Correct,0.0,0.0,-45,45,869,-1,-1
"{'cat': 'II', 'resp': 'button'}",39,27,Left,54.218852107557964,69.56458055166497,2.710942605377898,1.0927178760558305,Right,Incorrect,0.0,0.0,-45,45,1012,-1,-1
"{'cat': 'II', 'resp': 'button'}",39,28,Left,18.382134308696955,35.52947972006154,0.9191067154348477,0.5580957623720644,Left,Correct,0.0,0.0,-45,45,1312,-1,-1
"{'cat': 'II', 'resp': 'button'}",39,29,Left,48.44008959283801,75.46172875642043,2.4220044796419002,1.1853500634417802,Left,Correct,0.0,0.0,-45,45,1165,-1,-1
"{'cat': 'II', 'resp': 'button'}",39,30,Right,46.398819696547406,27.7092975882602,2.31994098482737,0.43525662869705806,Right,Correct,0.0,0.0,-45,45,996,-1,-1
"{'cat': 'II', 'resp': 'button'}",39,31,Right,77.33305331100878,60.30187389901869,3.866652665550439,0.9472196201942761,Right,Correct,0.0,0.0,-45,45,1200,-1,-1
"{'cat': 'II', 'resp': 'button'}",39,32,Left,52.925830586633,67.67826090234337,2.64629152933165,1.0630876362926762,Right,Incorrect,0.0,0.0,-45,45,845,-1,-1
"{'cat': 'II', 'resp': 'button'}",39,33,Right,77.28028228414352,54.53024854424784,3.864014114207176,0.8565591411251726,Left,Incorrect,0.0,0.0,-45,45,4058,-1,-1
"{'cat': 'II', 'resp': 'button'}",39,34,Right,45.76341870626233,18.737364460989877,2.2881709353131163,0.2943258326914014,Right,Correct,0.0,0.0,-45,45,881,-1,-1
"{'cat': 'II', 'resp': 'button'}",39,35,Left,59.26000980926597,76.18433734465951,2.963000490463299,1.1967007726029442,Left,Correct,0.0,0.0,-45,45,3441,-1,-1
"{'cat': 'II', 'resp': 'button'}",39,36,Right,79.92986989259015,56.243852927320106,3.996493494629507,0.8834763758302681,Left,Incorrect,0.0,0.0,-45,45,2120,-1,-1
"{'cat': 'II', 'resp': 'button'}",39,37,Left,29.061185764529146,43.97201065978378,1.4530592882264575,0.6907107282617438,Left,Correct,0.0,0.0,-45,45,915,-1,-1
"{'cat': 'II', 'resp': 'button'}",39,38,Left,40.85422364660372,68.24459266208875,2.042711182330186,1.0719835547722296,Left,Correct,0.0,0.0,-45,45,3109,-1,-1
"{'cat': 'II', 'resp': 'button'}",39,39,Left,63.41897804381803,77.43101578600046,3.170948902190901,1.2162835517664716,Right,Incorrect,0.0,0.0,-45,45,7692,-1,-1
"{'cat': 'II', 'resp': 'button'}",39,40,Right,69.28345178092269,36.33358429957463,3.4641725890461346,0.5707266075706456,Left,Incorrect,0.0,0.0,-45,45,5864,-1,-1
"{'cat': 'II', 'resp': 'button'}",39,41,Left,38.00598788924933,63.416931431256224,1.9002993944624667,0.996150829488211,Left,Correct,0.0,0.0,-45,45,1863,-1,-1
"{'cat': 'II', 'resp': 'button'}",39,42,Right,76.4620450837734,52.74333878398711,3.8231022541886706,0.8284904282478576,Right,Correct,0.0,0.0,-45,45,1257,-1,-1
"{'cat': 'II', 'resp': 'button'}",39,43,Left,25.16252179575483,56.250656551124294,1.2581260897877415,0.8835832469030732,Left,Correct,0.0,0.0,-45,45,2502,-1,-1
"{'cat': 'II', 'resp': 'button'}",39,44,Left,50.11672537784976,69.22572610784272,2.5058362688924882,1.0873951628990892,Right,Incorrect,0.0,0.0,-45,45,6516,-1,-1
"{'cat': 'II', 'resp': 'button'}",39,45,Right,32.76371287711011,13.56759203365944,1.6381856438555054,0.2131192372992395,Left,Incorrect,0.0,0.0,-45,45,1995,-1,-1
"{'cat': 'II', 'resp': 'button'}",39,46,Right,73.1163511380018,59.09112011967777,3.65581755690009,0.9282011443018585,Left,Incorrect,0.0,0.0,-45,45,1370,-1,-1
"{'cat': 'II', 'resp': 'button'}",39,47,Right,38.94242786898878,27.079915662804275,1.947121393449439,0.42537032053048546,Left,Incorrect,0.0,0.0,-45,45,1360,-1,-1
"{'cat': 'II', 'resp': 'button'}",39,48,Right,70.536068565355,51.47030941218531,3.5268034282677494,0.8084937296365747,Right,Correct,0.0,0.0,-45,45,1033,-1,-1
"{'cat': 'II', 'resp': 'button'}",39,49,Left,66.7156869340293,78.81467462056929,3.335784346701465,1.238018013915252,Right,Incorrect,0.0,0.0,-45,45,1172,-1,-1
"{'cat': 'II', 'resp': 'button'}",39,50,Left,33.135319038630655,43.23654711618925,1.6567659519315328,0.6791580939340456,Right,Incorrect,0.0,0.0,-45,45,1994,-1,-1
"{'cat': 'II', 'resp': 'button'}",39,51,Right,68.76324293093742,36.970935714462364,3.438162146546871,0.5807381001844772,Right,Correct,0.0,0.0,-45,45,2228,-1,-1
"{'cat': 'II', 'resp': 'button'}",39,52,Right,84.24691227535263,66.56605308296203,4.212345613767631,1.0456171167195085,Right,Correct,0.0,0.0,-45,45,2668,-1,-1
"{'cat': 'II', 'resp': 'button'}",39,53,Left,38.39882421011158,49.52167617837735,1.9199412105055789,0.7778846703772148,Left,Correct,0.0,0.0,-45,45,1417,-1,-1
"{'cat': 'II', 'resp': 'button'}",39,54,Right,72.25728931575628,47.26977776675222,3.612864465787814,0.7425119328442547,Right,Correct,0.0,0.0,-45,45,6558,-1,-1
"{'cat': 'II', 'resp': 'button'}",39,55,Left,39.47507557261095,64.6395308587229,1.9737537786305472,1.0153553763862733,Left,Correct,0.0,0.0,-45,45,625,-1,-1
"{'cat': 'II', 'resp': 'button'}",39,56,Right,60.61007105152142,37.16862990495107,3.030503552576071,0.5838434732669607,Right,Correct,0.0,0.0,-45,45,953,-1,-1
"{'cat': 'II', 'resp': 'button'}",39,57,Right,54.815692921009436,29.124598793181484,2.740784646050472,0.4574881280370456,Right,Correct,0.0,0.0,-45,45,6777,-1,-1
"{'cat': 'II', 'resp': 'button'}",39,58,Left,17.138741190637827,42.573425734619505,0.8569370595318914,0.6687418076301563,Left,Correct,0.0,0.0,-45,45,891,-1,-1
"{'cat': 'II', 'resp': 'button'}",39,59,Left,58.302070066155295,85.23182184236057,2.9151035033077646,1.3388183267601703,Right,Incorrect,0.0,0.0,-45,45,2216,-1,-1
"{'cat': 'II', 'resp': 'button'}",39,60,Left,29.79069093894281,43.09620331267093,1.4895345469471406,0.6769535786234954,Right,Incorrect,0.0,0.0,-45,45,1234,-1,-1
"{'cat': 'II', 'resp': 'button'}",39,61,Right,33.266951890504515,20.698608842272748,1.6633475945252258,0.325132987392064,Left,Incorrect,0.0,0.0,-45,45,859,-1,-1
"{'cat': 'II', 'resp': 'button'}",39,62,Left,51.07481043689709,74.99753984062237,2.5537405218448543,1.1780586010030352,Right,Incorrect,0.0,0.0,-45,45,810,-1,-1
"{'cat': 'II', 'resp': 'button'}",39,63,Left,32.32087302435859,65.43308763663673,1.6160436512179297,1.0278205371047753,Right,Incorrect,0.0,0.0,-45,45,1045,-1,-1
"{'cat': 'II', 'resp': 'button'}",39,64,Right,68.86943767212676,56.39090643157864,3.443471883606338,0.8857862868735844,Right,Correct,0.0,0.0,-45,45,576,-1,-1
"{'cat': 'II', 'resp': 'button'}",39,65,Right,34.843845150026524,12.730244938770756,1.7421922575013264,0.19996621989020427,Left,Incorrect,0.0,0.0,-45,45,1096,-1,-1
"{'cat': 'II', 'resp': 'button'}",39,66,Right,48.94475012650245,19.584201103323462,2.447237506325122,0.3076279115631305,Left,Incorrect,0.0,0.0,-45,45,2597,-1,-1
"{'cat': 'II', 'resp': 'button'}",39,67,Right,71.13700347735706,55.2097972974861,3.5568501738678524,0.8672334679798197,Right,Correct,0.0,0.0,-45,45,1099,-1,-1
"{'cat': 'II', 'resp': 'button'}",39,68,Right,68.26763091840357,45.145310655048796,3.4133815459201786,0.7091408814896516,Right,Correct,0.0,0.0,-45,45,699,-1,-1
"{'cat': 'II', 'resp': 'button'}",39,69,Left,61.79229276585067,71.55713629628437,3.089614638292533,1.1240168685016525,Right,Incorrect,0.0,0.0,-45,45,1957,-1,-1
"{'cat': 'II', 'resp': 'button'}",39,70,Right,85.60700926136612,67.55865988678526,4.280350463068306,1.06120894793348,Right,Correct,0.0,0.0,-45,45,713,-1,-1
"{'cat': 'II', 'resp': 'button'}",39,71,Right,74.57356854233309,51.97953882710163,3.7286784271166544,0.8164926865810395,Right,Correct,0.0,0.0,-45,45,3212,-1,-1
"{'cat': 'II', 'resp': 'button'}",39,72,Right,32.829912122970654,17.90253339979419,1.6414956061485326,0.28121233704719667,Left,Incorrect,0.0,0.0,-45,45,1051,-1,-1
"{'cat': 'II', 'resp': 'button'}",39,73,Right,76.48787988938128,51.89074977679771,3.8243939944690637,0.8150979914402694,Right,Correct,0.0,0.0,-45,45,9764,-1,-1
"{'cat': 'II', 'resp': 'button'}",39,74,Left,53.93528818537949,72.61659862544082,2.696764409268974,1.1406588638518178,Right,Incorrect,0.0,0.0,-45,45,9050,-1,-1
"{'cat': 'II', 'resp': 'button'}",39,75,Left,33.21030917810825,41.55860496919864,1.6605154589054123,0.6528010403233736,Right,Incorrect,0.0,0.0,-45,45,2138,-1,-1
"{'cat': 'II', 'resp': 'button'}",39,76,Left,31.211120361522866,46.16500550210869,1.5605560180761433,0.7251582106917851,Left,Correct,0.0,0.0,-45,45,565,-1,-1
"{'cat': 'II', 'resp': 'button'}",39,77,Left,39.265541512351405,70.82987677343695,1.9632770756175701,1.1125931026304992,Right,Incorrect,0.0,0.0,-45,45,2148,-1,-1
"{'cat': 'II', 'resp': 'button'}",39,78,Right,66.01246256486868,40.190620198128116,3.300623128243434,0.6313127857882842,Right,Correct,0.0,0.0,-45,45,874,-1,-1
"{'cat': 'II', 'resp': 'button'}",39,79,Left,51.19563112507561,58.268539555330676,2.5597815562537805,0.9152800790121657,Right,Incorrect,0.0,0.0,-45,45,5434,-1,-1
"{'cat': 'II', 'resp': 'button'}",39,80,Right,78.95405161216101,64.10583903659338,3.9477025806080506,1.0069721648478578,Right,Correct,0.0,0.0,-45,45,789,-1,-1
"{'cat': 'II', 'resp': 'button'}",39,81,Left,25.56486134265,39.29705083118428,1.2782430671325,0.6172766309949661,Left,Correct,0.0,0.0,-45,45,942,-1,-1
"{'cat': 'II', 'resp': 'button'}",39,82,Left,23.854242636379414,52.85116573243115,1.1927121318189706,0.8301841699933116,Left,Correct,0.0,0.0,-45,45,4411,-1,-1
"{'cat': 'II', 'resp': 'button'}",39,83,Left,56.399357984986075,66.67519410122797,2.819967899249304,1.0473314998254566,Right,Incorrect,0.0,0.0,-45,45,2897,-1,-1
"{'cat': 'II', 'resp': 'button'}",39,84,Right,63.41352223170763,40.34145759548732,3.1706761115853817,0.6336821340854357,Right,Correct,0.0,0.0,-45,45,7634,-1,-1
"{'cat': 'II', 'resp': 'button'}",39,85,Right,31.666303310717147,14.298728442834118,1.5833151655358575,0.22460390115841544,Left,Incorrect,0.0,0.0,-45,45,2750,-1,-1
"{'cat': 'II', 'resp': 'button'}",39,86,Right,31.629821134163848,15.380586613818515,1.5814910567081923,0.24159768956936883,Right,Correct,0.0,0.0,-45,45,1340,-1,-1
"{'cat': 'II', 'resp': 'button'}",39,87,Right,89.66844691314165,66.50760279855412,4.4834223456570825,1.044698981799028,Right,Correct,0.0,0.0,-45,45,1833,-1,-1
"{'cat': 'II', 'resp': 'button'}",39,88,Left,47.49354728148931,58.14657795079088,2.374677364074466,0.9133643106079543,Right,Incorrect,0.0,0.0,-45,45,2496,-1,-1
"{'cat': 'II', 'resp': 'button'}",39,89,Right,45.86649299703733,27.250092765241078,2.2933246498518662,0.4280434562046087,Left,Incorrect,0.0,0.0,-45,45,1809,-1,-1
"{'cat': 'II', 'resp': 'button'}",39,90,Right,50.12045422207332,39.900527044217895,2.506022711103666,0.626756013182379,Right,Correct,0.0,0.0,-45,45,5109,-1,-1
"{'cat': 'II', 'resp': 'button'}",39,91,Right,57.88970396651532,41.78427883703754,2.894485198325766,0.656345917149923,Right,Correct,0.0,0.0,-45,45,2440,-1,-1
"{'cat': 'II', 'resp': 'button'}",39,92,Left,43.02943228343389,68.938831822978,2.1514716141716947,1.0828886380106497,Left,Correct,0.0,0.0,-45,45,1838,-1,-1
"{'cat': 'II', 'resp': 'button'}",39,93,Right,72.33563537439434,42.02416013451528,3.616781768719717,0.6601139637593711,Right,Correct,0.0,0.0,-45,45,7146,-1,-1
"{'cat': 'II', 'resp': 'button'}",39,94,Left,21.237392568435858,35.04944975483757,1.061869628421793,0.5505554693108115,Left,Correct,0.0,0.0,-45,45,1103,-1,-1
"{'cat': 'II', 'resp': 'button'}",39,95,Left,28.36633997289113,45.65795278859633,1.4183169986445565,0.7171934452930192,Right,Incorrect,0.0,0.0,-45,45,1276,-1,-1
"{'cat': 'II', 'resp': 'button'}",39,96,Right,81.85263557474161,56.32547903259321,4.092631778737081,0.8847585556936037,Right,Correct,0.0,0.0,-45,45,952,-1,-1
"{'cat': 'II', 'resp': 'button'}",39,97,Right,53.32845709695719,40.38838468005109,2.6664228548478595,0.6344192630060352,Right,Correct,0.0,0.0,-45,45,1509,-1,-1
"{'cat': 'II', 'resp': 'button'}",39,98,Right,65.1808666481032,49.263089171401774,3.2590433324051604,0.7738227951700735,Right,Correct,0.0,0.0,-45,45,1012,-1,-1
"{'cat': 'II', 'resp': 'button'}",39,99,Left,55.50022742627479,69.60974523421811,2.77501137131374,1.0934273212303836,Right,Incorrect,0.0,0.0,-45,45,1342,-1,-1
"{'cat': 'II', 'resp': 'button'}",39,100,Right,79.13893624724066,56.828432563807695,3.9569468123620335,0.892658931287406,Right,Correct,0.0,0.0,-45,45,1600,-1,-1
"{'cat': 'II', 'resp': 'button'}",39,101,Right,55.634213409256844,37.27386574032867,2.7817106704628425,0.5854965139035441,Right,Correct,0.0,0.0,-45,45,1089,-1,-1
"{'cat': 'II', 'resp': 'button'}",39,102,Left,53.09602087165919,72.7705787560571,2.65480104358296,1.1430775780875324,Right,Incorrect,0.0,0.0,-45,45,804,-1,-1
"{'cat': 'II', 'resp': 'button'}",39,103,Left,15.021307583607765,44.21788302408757,0.7510653791803883,0.6945728823288317,Left,Correct,0.0,0.0,-45,45,826,-1,-1
"{'cat': 'II', 'resp': 'button'}",39,104,Left,58.77324677172397,84.04647447183822,2.9386623385861985,1.3201989338042455,Right,Incorrect,0.0,0.0,-45,45,1874,-1,-1
"{'cat': 'II', 'resp': 'button'}",39,105,Right,48.01215090581492,37.89820452828387,2.400607545290746,0.5953036046515001,Right,Correct,0.0,0.0,-45,45,876,-1,-1
"{'cat': 'II', 'resp': 'button'}",39,106,Right,78.59901919115438,46.69275957909144,3.9299509595577193,0.7334481523475406,Right,Correct,0.0,0.0,-45,45,710,-1,-1
"{'cat': 'II', 'resp': 'button'}",39,107,Left,31.376968287184553,41.738274851125205,1.5688484143592276,0.6556232882290327,Left,Correct,0.0,0.0,-45,45,398,-1,-1
"{'cat': 'II', 'resp': 'button'}",39,108,Right,49.503711317964836,27.77698565797889,2.475185565898242,0.43631987040987763,Left,Incorrect,0.0,0.0,-45,45,1046,-1,-1
"{'cat': 'II', 'resp': 'button'}",39,109,Right,39.735791221787174,18.665400796103228,1.9867895610893587,0.2931954300867349,Right,Correct,0.0,0.0,-45,45,424,-1,-1
"{'cat': 'II', 'resp': 'button'}",39,110,Left,29.31735299148064,42.983422949541165,1.4658676495740321,0.6751820288221072,Right,Incorrect,0.0,0.0,-45,45,396,-1,-1
"{'cat': 'II', 'resp': 'button'}",39,111,Left,18.757929575552417,47.8987358807532,0.937896478777621,0.7523915837960604,Left,Correct,0.0,0.0,-45,45,865,-1,-1
"{'cat': 'II', 'resp': 'button'}",39,112,Left,13.016062755030017,35.61769413269063,0.6508031377515009,0.5594814311253458,Left,Correct,0.0,0.0,-45,45,2142,-1,-1
"{'cat': 'II', 'resp': 'button'}",39,113,Right,78.46866129775255,53.63348618542696,3.923433064887627,0.842472830932735,Right,Correct,0.0,0.0,-45,45,1268,-1,-1
"{'cat': 'II', 'resp': 'button'}",39,114,Left,50.265577802154816,75.35987215484104,2.5132788901077405,1.1837501036855733,Left,Correct,0.0,0.0,-45,45,1246,-1,-1
"{'cat': 'II', 'resp': 'button'}",39,115,Left,56.87564547304588,80.52552067559783,2.843782273652294,1.2648919209047556,Right,Incorrect,0.0,0.0,-45,45,874,-1,-1
"{'cat': 'II', 'resp': 'button'}",39,116,Right,57.24324867102943,40.28379933507792,2.8621624335514713,0.632776440248831,Right,Correct,0.0,0.0,-45,45,1199,-1,-1
"{'cat': 'II', 'resp': 'button'}",39,117,Left,48.61140943671642,72.4222339000958,2.430570471835821,1.1376057898855132,Left,Correct,0.0,0.0,-45,45,2019,-1,-1
"{'cat': 'II', 'resp': 'button'}",39,118,Right,83.8762367188606,55.28635851990505,4.19381183594303,0.8684360888493259,Right,Correct,0.0,0.0,-45,45,1154,-1,-1
"{'cat': 'II', 'resp': 'button'}",39,119,Right,39.162253668399835,23.95205995395299,1.9581126834199918,0.3762380779484049,Left,Incorrect,0.0,0.0,-45,45,1433,-1,-1
"{'cat': 'II', 'resp': 'button'}",39,120,Right,46.485192034322075,22.86434381800445,2.3242596017161037,0.3591522728389699,Right,Correct,0.0,0.0,-45,45,2213,-1,-1
"{'cat': 'II', 'resp': 'button'}",39,121,Left,21.30108080809583,51.38461480865853,1.0650540404047915,0.8071476419521147,Left,Correct,0.0,0.0,-45,45,754,-1,-1
"{'cat': 'II', 'resp': 'button'}",39,122,Left,33.05884022684236,52.8380320542522,1.6529420113421178,0.8299778666589036,Left,Correct,0.0,0.0,-45,45,822,-1,-1
"{'cat': 'II', 'resp': 'button'}",39,123,Left,43.24922945867659,64.28135353664996,2.1624614729338294,1.0097291401677388,Left,Correct,0.0,0.0,-45,45,2261,-1,-1
"{'cat': 'II', 'resp': 'button'}",39,124,Left,15.23148732423336,39.82043319456113,0.761574366211668,0.625497901933982,Left,Correct,0.0,0.0,-45,45,751,-1,-1
"{'cat': 'II', 'resp': 'button'}",39,125,Left,32.09786068942859,46.52088842204226,1.6048930344714296,0.7307484065257921,Left,Correct,0.0,0.0,-45,45,698,-1,-1
"{'cat': 'II', 'resp': 'button'}",39,126,Left,31.909167857795808,42.760138310962816,1.5954583928897903,0.6716746819210212,Left,Correct,0.0,0.0,-45,45,1178,-1,-1
"{'cat': 'II', 'resp': 'button'}",39,127,Left,32.82963435175943,61.793694834267704,1.6414817175879717,0.970653088647525,Left,Correct,0.0,0.0,-45,45,1802,-1,-1
"{'cat': 'II', 'resp': 'button'}",39,128,Right,60.82050624581282,53.11436574150238,3.0410253122906408,0.8343185060679262,Right,Correct,0.0,0.0,-45,45,2336,-1,-1
"{'cat': 'II', 'resp': 'button'}",39,129,Left,18.620009416980064,44.1068212082717,0.9310004708490033,0.6928283274055242,Left,Correct,0.0,0.0,-45,45,764,-1,-1
"{'cat': 'II', 'resp': 'button'}",39,130,Right,39.659161437928745,28.457215395896796,1.982958071896437,0.4470048941468586,Left,Incorrect,0.0,0.0,-45,45,1622,-1,-1
"{'cat': 'II', 'resp': 'button'}",39,131,Left,36.66883789222975,52.518148661534944,1.8334418946114877,0.8249531500760741,Left,Correct,0.0,0.0,-45,45,1140,-1,-1
"{'cat': 'II', 'resp': 'button'}",39,132,Right,46.65125034530219,36.43412826346187,2.332562517265109,0.5723059484622003,Right,Correct,0.0,0.0,-45,45,898,-1,-1
"{'cat': 'II', 'resp': 'button'}",39,133,Right,74.84916525410132,56.7633122445457,3.7424582627050658,0.8916360237044417,Right,Correct,0.0,0.0,-45,45,894,-1,-1
"{'cat': 'II', 'resp': 'button'}",39,134,Right,31.447247367091105,13.223800519151848,1.5723623683545551,0.20771897281752166,Left,Incorrect,0.0,0.0,-45,45,714,-1,-1
"{'cat': 'II', 'resp': 'button'}",39,135,Right,47.4146735724825,38.50564439161076,2.3707336786241253,0.6048452477121269,Right,Correct,0.0,0.0,-45,45,1097,-1,-1
"{'cat': 'II', 'resp': 'button'}",39,136,Right,86.71354913742456,68.47623175164934,4.335677456871228,1.0756221330824685,Right,Correct,0.0,0.0,-45,45,838,-1,-1
"{'cat': 'II', 'resp': 'button'}",39,137,Left,15.526875247071086,35.62381580819684,0.7763437623535543,0.5595775901793356,Left,Correct,0.0,0.0,-45,45,788,-1,-1
"{'cat': 'II', 'resp': 'button'}",39,138,Left,56.71794734577277,76.72539804174293,2.8358973672886383,1.2051997341584615,Right,Incorrect,0.0,0.0,-45,45,823,-1,-1
"{'cat': 'II', 'resp': 'button'}",39,139,Right,61.741443186121636,50.92934682031864,3.0870721593060817,0.7999963091141986,Right,Correct,0.0,0.0,-45,45,636,-1,-1
"{'cat': 'II', 'resp': 'button'}",39,140,Right,34.5415355367448,19.91334783932055,1.72707677683724,0.3127981364019381,Left,Incorrect,0.0,0.0,-45,45,1062,-1,-1
"{'cat': 'II', 'resp': 'button'}",39,141,Left,41.476313410497724,66.96377267796124,2.073815670524886,1.0518644815086997,Right,Incorrect,0.0,0.0,-45,45,10571,-1,-1
"{'cat': 'II', 'resp': 'button'}",39,142,Right,43.46547981628611,30.097484965336,2.1732739908143057,0.47277018829314416,Right,Correct,0.0,0.0,-45,45,874,-1,-1
"{'cat': 'II', 'resp': 'button'}",39,143,Right,64.98300064745276,45.07508568038307,3.2491500323726377,0.7080377901671097,Right,Correct,0.0,0.0,-45,45,802,-1,-1
"{'cat': 'II', 'resp': 'button'}",39,144,Left,37.0670914567649,50.37062609327289,1.853354572838245,0.7912199444567222,Left,Correct,0.0,0.0,-45,45,854,-1,-1
"{'cat': 'II', 'resp': 'button'}",39,145,Right,55.83319102810087,29.189525660407014,2.7916595514050435,0.45850799688252714,Right,Correct,0.0,0.0,-45,45,1165,-1,-1
"{'cat': 'II', 'resp': 'button'}",39,146,Left,50.15765330483397,73.13525358088023,2.5078826652416986,1.1488058768405998,Right,Incorrect,0.0,0.0,-45,45,2928,-1,-1
"{'cat': 'II', 'resp': 'button'}",39,147,Left,51.11790638005266,71.37668312823374,2.555895319002633,1.1211823167663284,Right,Incorrect,0.0,0.0,-45,45,849,-1,-1
"{'cat': 'II', 'resp': 'button'}",39,148,Left,29.20032699838601,48.49131427859778,1.4600163499193004,0.7616997835027831,Left,Correct,0.0,0.0,-45,45,680,-1,-1
"{'cat': 'II', 'resp': 'button'}",39,149,Left,11.4771701135795,32.135136551881104,0.5738585056789751,0.5047775445674726,Left,Correct,0.0,0.0,-45,45,458,-1,-1
"{'cat': 'II', 'resp': 'button'}",39,150,Right,64.17407570526363,47.66374477683131,3.208703785263182,0.7487003521673606,Right,Correct,0.0,0.0,-45,45,4302,-1,-1
"{'cat': 'II', 'resp': 'button'}",39,151,Right,67.21475853399332,53.90496046371307,3.3607379266996658,0.8467371389242462,Right,Correct,0.0,0.0,-45,45,1916,-1,-1
"{'cat': 'II', 'resp': 'button'}",39,152,Right,62.73898074486545,42.701112828895084,3.136949037243273,0.6707475118168282,Right,Correct,0.0,0.0,-45,45,852,-1,-1
"{'cat': 'II', 'resp': 'button'}",39,153,Left,55.7578506914074,79.1822815825785,2.7878925345703696,1.243792370571535,Left,Correct,0.0,0.0,-45,45,1312,-1,-1
"{'cat': 'II', 'resp': 'button'}",39,154,Left,46.27880590147516,59.4625191113378,2.313940295073758,0.9340350660206075,Left,Correct,0.0,0.0,-45,45,1172,-1,-1
"{'cat': 'II', 'resp': 'button'}",39,155,Left,65.32335420190965,82.09652952335269,3.2661677100954822,1.2895692701789119,Right,Incorrect,0.0,0.0,-45,45,2363,-1,-1
"{'cat': 'II', 'resp': 'button'}",39,156,Left,61.04277603848779,86.65421189022359,3.0521388019243894,1.3611611773846988,Left,Correct,0.0,0.0,-45,45,1731,-1,-1
"{'cat': 'II', 'resp': 'button'}",39,157,Left,38.13807726689566,50.47264878262803,1.906903863344783,0.7928225131136102,Left,Correct,0.0,0.0,-45,45,1340,-1,-1
"{'cat': 'II', 'resp': 'button'}",39,158,Left,45.951944339247625,73.62035778888689,2.2975972169623815,1.1564258759210957,Left,Correct,0.0,0.0,-45,45,1131,-1,-1
"{'cat': 'II', 'resp': 'button'}",39,159,Left,34.78728825961106,46.791616798754205,1.7393644129805528,0.7350009979227748,Left,Correct,0.0,0.0,-45,45,719,-1,-1
"{'cat': 'II', 'resp': 'button'}",39,160,Right,43.51282553639217,26.298254124441588,2.1756412768196087,0.41309200979791594,Left,Incorrect,0.0,0.0,-45,45,969,-1,-1
"{'cat': 'II', 'resp': 'button'}",39,161,Left,52.32206263172979,70.25704672007197,2.61610313158649,1.1035951091934648,Right,Incorrect,0.0,0.0,-45,45,1561,-1,-1
"{'cat': 'II', 'resp': 'button'}",39,162,Left,43.072554623803676,69.5286122022655,2.1536277311901837,1.0921528865446548,Right,Incorrect,0.0,0.0,-45,45,1322,-1,-1
"{'cat': 'II', 'resp': 'button'}",39,163,Right,45.1234763677173,19.25279406570419,2.2561738183858653,0.30242218198946724,Right,Correct,0.0,0.0,-45,45,1532,-1,-1
"{'cat': 'II', 'resp': 'button'}",39,164,Left,20.535198973314575,40.76394183094813,1.0267599486657288,0.6403185009373414,Left,Correct,0.0,0.0,-45,45,746,-1,-1
"{'cat': 'II', 'resp': 'button'}",39,165,Left,52.69480730562159,63.2498953952096,2.6347403652810795,0.9935270335695668,Left,Correct,0.0,0.0,-45,45,4848,-1,-1
"{'cat': 'II', 'resp': 'button'}",39,166,Right,46.14355694873569,37.22387676946248,2.3071778474367846,0.5847112889853754,Left,Incorrect,0.0,0.0,-45,45,2018,-1,-1
"{'cat': 'II', 'resp': 'button'}",39,167,Left,43.67387940770941,63.35963205231451,2.1836939703854705,0.9952507729485183,Left,Correct,0.0,0.0,-45,45,1326,-1,-1
"{'cat': 'II', 'resp': 'button'}",39,168,Left,37.716139114872284,59.59543236104145,1.8858069557436141,0.9361228624647764,Left,Correct,0.0,0.0,-45,45,1802,-1,-1
"{'cat': 'II', 'resp': 'button'}",39,169,Left,26.14588969550329,39.144655334922334,1.3072944847751646,0.6148828081374825,Left,Correct,0.0,0.0,-45,45,834,-1,-1
"{'cat': 'II', 'resp': 'button'}",39,170,Right,35.91598466368205,18.224999099236296,1.7957992331841026,0.28627761640920674,Left,Incorrect,0.0,0.0,-45,45,1064,-1,-1
"{'cat': 'II', 'resp': 'button'}",39,171,Left,62.326955286508955,85.02783386420147,3.1163477643254476,1.3356140910921437,Left,Correct,0.0,0.0,-45,45,2246,-1,-1
"{'cat': 'II', 'resp': 'button'}",39,172,Left,51.532048977060136,79.17433806201412,2.576602448853007,1.2436675940422914,Right,Incorrect,0.0,0.0,-45,45,848,-1,-1
"{'cat': 'II', 'resp': 'button'}",39,173,Right,41.80644172428572,29.72095752797538,2.090322086214286,0.4668557091377086,Left,Incorrect,0.0,0.0,-45,45,5836,-1,-1
"{'cat': 'II', 'resp': 'button'}",39,174,Left,44.176941226144,70.21936952531107,2.2088470613072,1.1030032772021212,Right,Incorrect,0.0,0.0,-45,45,3540,-1,-1
"{'cat': 'II', 'resp': 'button'}",39,175,Right,45.423968847554775,26.552334257370056,2.2711984423777385,0.41708309119307185,Right,Correct,0.0,0.0,-45,45,790,-1,-1
"{'cat': 'II', 'resp': 'button'}",39,176,Right,71.86850139724206,50.6693445300053,3.593425069862103,0.7959122026883741,Right,Correct,0.0,0.0,-45,45,1147,-1,-1
"{'cat': 'II', 'resp': 'button'}",39,177,Left,24.160697599322685,40.440819081641806,1.2080348799661342,0.6352429006601992,Left,Correct,0.0,0.0,-45,45,3713,-1,-1
"{'cat': 'II', 'resp': 'button'}",39,178,Left,44.06164109961255,66.31197978471396,2.203082054980628,1.0416261426832611,Left,Correct,0.0,0.0,-45,45,3221,-1,-1
"{'cat': 'II', 'resp': 'button'}",39,179,Right,75.00975009603908,46.66939834609989,3.750487504801954,0.7330811949578153,Right,Correct,0.0,0.0,-45,45,3613,-1,-1
"{'cat': 'II', 'resp': 'button'}",39,180,Right,61.00824180086263,33.13007580154601,3.0504120900431313,0.5204060137550496,Right,Correct,0.0,0.0,-45,45,2461,-1,-1
"{'cat': 'II', 'resp': 'button'}",39,181,Right,83.02430081340415,66.71773223215001,4.151215040670207,1.0479996872234674,Right,Correct,0.0,0.0,-45,45,1142,-1,-1
"{'cat': 'II', 'resp': 'button'}",39,182,Left,23.863697417214116,53.02241658272382,1.1931848708607058,0.832874172059314,Left,Correct,0.0,0.0,-45,45,739,-1,-1
"{'cat': 'II', 'resp': 'button'}",39,183,Right,58.05142716632464,49.67897963747423,2.902571358316232,0.7803555873346297,Right,Correct,0.0,0.0,-45,45,1306,-1,-1
"{'cat': 'II', 'resp': 'button'}",39,184,Left,21.807459753947782,48.17021363820791,1.090372987697389,0.7566559464382242,Left,Correct,0.0,0.0,-45,45,589,-1,-1
"{'cat': 'II', 'resp': 'button'}",39,185,Right,66.20510238218803,50.24282238398476,3.3102551191094016,0.7892124084857166,Right,Correct,0.0,0.0,-45,45,969,-1,-1
"{'cat': 'II', 'resp': 'button'}",39,186,Left,26.331026270056007,48.45387357768243,1.3165513135028004,0.7611116663480785,Left,Correct,0.0,0.0,-45,45,678,-1,-1
"{'cat': 'II', 'resp': 'button'}",39,187,Left,21.12083384083272,46.90076607119661,1.056041692041636,0.7367155106850235,Left,Correct,0.0,0.0,-45,45,696,-1,-1
"{'cat': 'II', 'resp': 'button'}",39,188,Left,12.860503256700419,33.95111820812987,0.6430251628350209,0.5333029177190973,Left,Correct,0.0,0.0,-45,45,655,-1,-1
"{'cat': 'II', 'resp': 'button'}",39,189,Right,69.85925229363387,45.891718241884575,3.4929626146816934,0.7208654244465865,Right,Correct,0.0,0.0,-45,45,789,-1,-1
"{'cat': 'II', 'resp': 'button'}",39,190,Right,32.7609943917338,20.361801788660532,1.63804971958669,0.31984243456553724,Left,Incorrect,0.0,0.0,-45,45,1443,-1,-1
"{'cat': 'II', 'resp': 'button'}",39,191,Left,39.308500812365814,58.82541800769355,1.9654250406182907,0.9240275052865938,Left,Correct,0.0,0.0,-45,45,1644,-1,-1
"{'cat': 'II', 'resp': 'button'}",39,192,Right,71.66107695705847,58.873462482157564,3.5830538478529235,0.9247821861267026,Right,Correct,0.0,0.0,-45,45,690,-1,-1
"{'cat': 'II', 'resp': 'button'}",39,193,Left,18.169063041283586,37.49375468070452,0.9084531520641792,0.5889505213019961,Left,Correct,0.0,0.0,-45,45,1278,-1,-1
"{'cat': 'II', 'resp': 'button'}",39,194,Right,63.35959884050586,52.17777347112455,3.167979942025293,0.8196065490877864,Right,Correct,0.0,0.0,-45,45,1265,-1,-1
"{'cat': 'II', 'resp': 'button'}",39,195,Right,56.64306529141575,34.729616674660434,2.8321532645707874,0.545531543035514,Right,Correct,0.0,0.0,-45,45,886,-1,-1
"{'cat': 'II', 'resp': 'button'}",39,196,Left,57.27855875978325,81.77539489646148,2.8639279379891627,1.2845248992556382,Right,Incorrect,0.0,0.0,-45,45,748,-1,-1
"{'cat': 'II', 'resp': 'button'}",39,197,Right,41.41346879950102,25.323073806740233,2.070673439975051,0.3977739131878363,Right,Correct,0.0,0.0,-45,45,1436,-1,-1
"{'cat': 'II', 'resp': 'button'}",39,198,Right,62.09942537187865,41.05498649522552,3.1049712685939324,0.6448902198331433,Right,Correct,0.0,0.0,-45,45,811,-1,-1
"{'cat': 'II', 'resp': 'button'}",39,199,Left,48.07821720989797,74.61725314919696,2.403910860494898,1.1720850716228353,Right,Incorrect,0.0,0.0,-45,45,844,-1,-1
"{'cat': 'II', 'resp': 'button'}",39,200,Left,60.99749324039554,69.70310638223064,3.049874662019777,1.094893834714018,Right,Incorrect,0.0,0.0,-45,45,1220,-1,-1
"{'cat': 'II', 'resp': 'button'}",39,201,Right,58.91028236522186,35.808411762770355,2.945514118261093,0.5624772166531884,Right,Correct,0.0,0.0,-45,45,1961,-1,-1
"{'cat': 'II', 'resp': 'button'}",39,202,Right,66.791830031917,48.73533966081349,3.33959150159585,0.7655329252430747,Right,Correct,0.0,0.0,-45,45,1218,-1,-1
"{'cat': 'II', 'resp': 'button'}",39,203,Left,38.519412631670754,70.6648996868114,1.9259706315835377,1.1100016486137319,Left,Correct,0.0,0.0,-45,45,751,-1,-1
"{'cat': 'II', 'resp': 'button'}",39,204,Left,58.61449685822084,76.16080210962458,2.930724842911042,1.1963310819955133,Right,Incorrect,0.0,0.0,-45,45,4189,-1,-1
"{'cat': 'II', 'resp': 'button'}",39,205,Left,26.750821856915817,41.667393562773974,1.3375410928457907,0.6545098875552268,Left,Correct,0.0,0.0,-45,45,839,-1,-1
"{'cat': 'II', 'resp': 'button'}",39,206,Right,63.651973101045265,33.32463076444663,3.1825986550522636,0.5234620759658898,Right,Correct,0.0,0.0,-45,45,3413,-1,-1
"{'cat': 'II', 'resp': 'button'}",39,207,Left,24.135939096729544,48.34776406747952,1.2067969548364772,0.7594449020594312,Left,Correct,0.0,0.0,-45,45,1199,-1,-1
"{'cat': 'II', 'resp': 'button'}",39,208,Left,50.45898119670399,61.26799739582313,2.522949059835199,0.9623954525943827,Left,Correct,0.0,0.0,-45,45,2817,-1,-1
"{'cat': 'II', 'resp': 'button'}",39,209,Right,75.26971517712187,44.40859778120012,3.7634857588560933,0.6975686227282114,Right,Correct,0.0,0.0,-45,45,1627,-1,-1
"{'cat': 'II', 'resp': 'button'}",39,210,Right,60.73368440295601,36.2482242176728,3.0366842201478006,0.5693857745395825,Right,Correct,0.0,0.0,-45,45,3662,-1,-1
"{'cat': 'II', 'resp': 'button'}",39,211,Left,31.610227904753117,51.032799802169,1.580511395237656,0.8016213447530638,Left,Correct,0.0,0.0,-45,45,1357,-1,-1
"{'cat': 'II', 'resp': 'button'}",39,212,Left,48.537954098984294,57.25621102038731,2.426897704949215,0.8993784595701786,Right,Incorrect,0.0,0.0,-45,45,4303,-1,-1
"{'cat': 'II', 'resp': 'button'}",39,213,Left,36.53878106912851,52.518737566063706,1.8269390534564254,0.82496240056678,Left,Correct,0.0,0.0,-45,45,1637,-1,-1
"{'cat': 'II', 'resp': 'button'}",39,214,Left,38.01293004901861,55.19376223893691,1.9006465024509305,0.8669815898691295,Left,Correct,0.0,0.0,-45,45,899,-1,-1
"{'cat': 'II', 'resp': 'button'}",39,215,Left,40.185606917459644,62.38052549941094,2.009280345872982,0.9798710031801009,Left,Correct,0.0,0.0,-45,45,1402,-1,-1
"{'cat': 'II', 'resp': 'button'}",39,216,Right,43.05304338273147,22.583412063669165,2.1526521691365734,0.3547394071610708,Left,Incorrect,0.0,0.0,-45,45,2825,-1,-1
"{'cat': 'II', 'resp': 'button'}",39,217,Right,53.31416848768307,35.05274158041342,2.6657084243841536,0.5506071771860412,Right,Correct,0.0,0.0,-45,45,2001,-1,-1
"{'cat': 'II', 'resp': 'button'}",39,218,Right,56.838633739579805,30.0345964759245,2.84193168697899,0.4717823382114915,Right,Correct,0.0,0.0,-45,45,3145,-1,-1
"{'cat': 'II', 'resp': 'button'}",39,219,Right,73.77547162342746,61.52817152011765,3.688773581171373,0.9664822581820718,Right,Correct,0.0,0.0,-45,45,912,-1,-1
"{'cat': 'II', 'resp': 'button'}",39,220,Left,57.91257381550814,67.74157442382393,2.895628690775407,1.0640821627624573,Right,Incorrect,0.0,0.0,-45,45,619,-1,-1
"{'cat': 'II', 'resp': 'button'}",39,221,Left,51.717506141819996,64.56804007883596,2.5858753070909994,1.0142324018418118,Right,Incorrect,0.0,0.0,-45,45,1040,-1,-1
"{'cat': 'II', 'resp': 'button'}",39,222,Left,31.75420618361982,44.42229450916228,1.5877103091809912,0.697783770427932,Left,Correct,0.0,0.0,-45,45,721,-1,-1
"{'cat': 'II', 'resp': 'button'}",39,223,Left,39.65903715083012,65.98845549115612,1.9829518575415062,1.0365442349637657,Right,Incorrect,0.0,0.0,-45,45,911,-1,-1
"{'cat': 'II', 'resp': 'button'}",39,224,Left,61.37409367641826,86.05799963344565,3.068704683820913,1.3517958971553297,Right,Incorrect,0.0,0.0,-45,45,1738,-1,-1
"{'cat': 'II', 'resp': 'button'}",39,225,Left,44.7291149875457,51.83415452506456,2.236455749377285,0.8142089953049049,Left,Correct,0.0,0.0,-45,45,883,-1,-1
"{'cat': 'II', 'resp': 'button'}",39,226,Right,50.63505492971854,20.768969420528116,2.531752746485927,0.32623820877081094,Left,Incorrect,0.0,0.0,-45,45,3021,-1,-1
"{'cat': 'II', 'resp': 'button'}",39,227,Right,35.198336284531464,17.905177354420935,1.7599168142265733,0.28125386818935566,Left,Incorrect,0.0,0.0,-45,45,798,-1,-1
"{'cat': 'II', 'resp': 'button'}",39,228,Left,38.61528502286182,66.00070786279615,1.9307642511430911,1.0367366947674324,Left,Correct,0.0,0.0,-45,45,1835,-1,-1
"{'cat': 'II', 'resp': 'button'}",39,229,Right,85.29059333739967,56.788343582378246,4.264529666869984,0.8920292150396627,Right,Correct,0.0,0.0,-45,45,764,-1,-1
"{'cat': 'II', 'resp': 'button'}",39,230,Right,79.15005987315864,58.09498706134124,3.957502993657932,0.9125539228115186,Right,Correct,0.0,0.0,-45,45,706,-1,-1
"{'cat': 'II', 'resp': 'button'}",39,231,Right,77.75320303177851,55.07984574945725,3.8876601515889257,0.8651921938367694,Right,Correct,0.0,0.0,-45,45,1165,-1,-1
"{'cat': 'II', 'resp': 'button'}",39,232,Right,68.01875772197009,34.8749167132776,3.4009378860985042,0.547813910704944,Right,Correct,0.0,0.0,-45,45,952,-1,-1
"{'cat': 'II', 'resp': 'button'}",39,233,Right,36.299816149596715,11.758304084201662,1.8149908074798358,0.184699008648014,Left,Incorrect,0.0,0.0,-45,45,1460,-1,-1
"{'cat': 'II', 'resp': 'button'}",39,234,Left,35.378872546815934,49.264280292391405,1.7689436273407966,0.7738415052548262,Right,Incorrect,0.0,0.0,-45,45,2199,-1,-1
"{'cat': 'II', 'resp': 'button'}",39,235,Right,32.959039154610146,20.082010437629556,1.6479519577305073,0.3154474823008528,Left,Incorrect,0.0,0.0,-45,45,842,-1,-1
"{'cat': 'II', 'resp': 'button'}",39,236,Left,32.1283124805973,53.39428737375905,1.606415624029865,0.8387155047853184,Left,Correct,0.0,0.0,-45,45,607,-1,-1
"{'cat': 'II', 'resp': 'button'}",39,237,Left,41.39347485483489,68.05944893042773,2.0696737427417444,1.0690753238360073,Left,Correct,0.0,0.0,-45,45,1255,-1,-1
"{'cat': 'II', 'resp': 'button'}",39,238,Left,50.07356694769577,77.93787496378023,2.5036783473847883,1.224245277113059,Left,Correct,0.0,0.0,-45,45,963,-1,-1
"{'cat': 'II', 'resp': 'button'}",39,239,Right,80.40513108804379,63.43668676972384,4.02025655440219,0.9964611456192063,Right,Correct,0.0,0.0,-45,45,1926,-1,-1
"{'cat': 'II', 'resp': 'button'}",39,240,Left,43.67519802083643,58.39851123679659,2.183759901041822,0.9173216694105057,Left,Correct,0.0,0.0,-45,45,647,-1,-1
"{'cat': 'II', 'resp': 'button'}",39,241,Right,63.99319604356948,30.904896197399736,3.199659802178474,0.4854529742685307,Right,Correct,0.0,0.0,-45,45,715,-1,-1
"{'cat': 'II', 'resp': 'button'}",39,242,Right,61.95798534510242,43.6263169295298,3.097899267255121,0.6852805838449542,Right,Correct,0.0,0.0,-45,45,2891,-1,-1
"{'cat': 'II', 'resp': 'button'}",39,243,Right,47.98041881866689,34.91487669390157,2.3990209409333447,0.5484416006127733,Left,Incorrect,0.0,0.0,-45,45,1541,-1,-1
"{'cat': 'II', 'resp': 'button'}",39,244,Right,69.0592031264614,50.866676627584255,3.45296015632307,0.7990118880287317,Right,Correct,0.0,0.0,-45,45,711,-1,-1
"{'cat': 'II', 'resp': 'button'}",39,245,Left,65.43586420891432,82.21032068768177,3.271793210445716,1.29135669760841,Right,Incorrect,0.0,0.0,-45,45,717,-1,-1
"{'cat': 'II', 'resp': 'button'}",39,246,Right,82.02874697242473,66.75271691325455,4.1014373486212365,1.048549225309198,Right,Correct,0.0,0.0,-45,45,2641,-1,-1
"{'cat': 'II', 'resp': 'button'}",39,247,Right,74.40314333189727,52.40205131056173,3.720157166594863,0.8231294971514805,Right,Correct,0.0,0.0,-45,45,2180,-1,-1
"{'cat': 'II', 'resp': 'button'}",39,248,Right,41.22674491087998,32.0296794237657,2.061337245543999,0.5031210278726924,Left,Incorrect,0.0,0.0,-45,45,939,-1,-1
"{'cat': 'II', 'resp': 'button'}",39,249,Left,53.182810577104476,70.83564065996691,2.659140528855224,1.1126836415483925,Left,Correct,0.0,0.0,-45,45,2846,-1,-1
"{'cat': 'II', 'resp': 'button'}",39,250,Right,63.93219572398698,55.97596504381127,3.1966097861993488,0.8792684027961828,Right,Correct,0.0,0.0,-45,45,1074,-1,-1
"{'cat': 'II', 'resp': 'button'}",39,251,Left,41.66951379815696,49.23922124951797,2.083475689907848,0.7734478787298404,Right,Incorrect,0.0,0.0,-45,45,1009,-1,-1
"{'cat': 'II', 'resp': 'button'}",39,252,Right,51.037261883034134,28.835333944479384,2.551863094151707,0.45294436641892405,Right,Correct,0.0,0.0,-45,45,877,-1,-1
"{'cat': 'II', 'resp': 'button'}",39,253,Right,44.96027490405722,36.90143752251251,2.248013745202861,0.5796464251381401,Left,Incorrect,0.0,0.0,-45,45,873,-1,-1
"{'cat': 'II', 'resp': 'button'}",39,254,Left,38.733339447965946,46.52916033873662,1.9366669723982972,0.7308783414893827,Right,Incorrect,0.0,0.0,-45,45,1660,-1,-1
"{'cat': 'II', 'resp': 'button'}",39,255,Right,39.95509418359247,12.536575323265161,1.9977547091796237,0.19692406468372461,Left,Incorrect,0.0,0.0,-45,45,1784,-1,-1
"{'cat': 'II', 'resp': 'button'}",39,256,Right,66.39807534484719,57.89399307357344,3.3199037672423595,0.9093967166345834,Right,Correct,0.0,0.0,-45,45,2339,-1,-1
"{'cat': 'II', 'resp': 'button'}",39,257,Right,65.93042286038893,49.30079937991928,3.2965211430194468,0.7744151457402932,Right,Correct,0.0,0.0,-45,45,1706,-1,-1
"{'cat': 'II', 'resp': 'button'}",39,258,Left,22.043924934268965,49.679236377003775,1.1021962467134483,0.7803596201897293,Left,Correct,0.0,0.0,-45,45,861,-1,-1
"{'cat': 'II', 'resp': 'button'}",39,259,Left,49.72015750724378,73.02302926970233,2.4860078753621893,1.1470430614828464,Left,Correct,0.0,0.0,-45,45,3395,-1,-1
"{'cat': 'II', 'resp': 'button'}",39,260,Right,31.70001812831285,16.842628178732802,1.5850009064156425,0.26456338476725705,Left,Incorrect,0.0,0.0,-45,45,1723,-1,-1
"{'cat': 'II', 'resp': 'button'}",39,261,Left,47.033365692738684,74.37878578519272,2.3516682846369346,1.1683392350284518,Right,Incorrect,0.0,0.0,-45,45,1031,-1,-1
"{'cat': 'II', 'resp': 'button'}",39,262,Left,13.860888553689556,40.66506347538484,0.6930444276844778,0.6387653233601581,Left,Correct,0.0,0.0,-45,45,689,-1,-1
"{'cat': 'II', 'resp': 'button'}",39,263,Left,25.007352526838858,42.82579086677323,1.250367626341943,0.6727059498561382,Left,Correct,0.0,0.0,-45,45,2520,-1,-1
"{'cat': 'II', 'resp': 'button'}",39,264,Left,59.56193606732646,76.96868793089247,2.9780968033663227,1.2090213228006856,Right,Incorrect,0.0,0.0,-45,45,664,-1,-1
"{'cat': 'II', 'resp': 'button'}",39,265,Right,56.37254446340347,47.24480767284611,2.8186272231701737,0.74211970352638,Right,Correct,0.0,0.0,-45,45,5145,-1,-1
"{'cat': 'II', 'resp': 'button'}",39,266,Right,55.426629441719875,34.556969975543396,2.771331472085994,0.5428196150274509,Right,Correct,0.0,0.0,-45,45,2242,-1,-1
"{'cat': 'II', 'resp': 'button'}",39,267,Left,24.58020395331222,35.3241681985221,1.2290101976656111,0.5548707365332362,Left,Correct,0.0,0.0,-45,45,3294,-1,-1
"{'cat': 'II', 'resp': 'button'}",39,268,Left,25.267643878929185,40.39525706008794,1.2633821939464593,0.6345272140992175,Left,Correct,0.0,0.0,-45,45,1477,-1,-1
"{'cat': 'II', 'resp': 'button'}",39,269,Left,59.332551006864605,75.23142783816871,2.9666275503432304,1.1817325050773075,Right,Incorrect,0.0,0.0,-45,45,819,-1,-1
"{'cat': 'II', 'resp': 'button'}",39,270,Left,68.15327131939459,84.68208341357783,3.4076635659697296,1.330183055713871,Right,Incorrect,0.0,0.0,-45,45,699,-1,-1
"{'cat': 'II', 'resp': 'button'}",39,271,Right,75.14955408944793,57.136655419218656,3.7574777044723966,0.8975004845785438,Right,Correct,0.0,0.0,-45,45,1117,-1,-1
"{'cat': 'II', 'resp': 'button'}",39,272,Right,46.293418324764986,21.901555589781918,2.3146709162382493,0.34402883071523666,Left,Incorrect,0.0,0.0,-45,45,1162,-1,-1
"{'cat': 'II', 'resp': 'button'}",39,273,Right,39.958868858918905,16.386071527388015,1.997943442945945,0.25739180965819536,Right,Correct,0.0,0.0,-45,45,969,-1,-1
"{'cat': 'II', 'resp': 'button'}",39,274,Left,54.7612284263776,78.84925684695787,2.7380614213188803,1.2385612302570876,Left,Correct,0.0,0.0,-45,45,1130,-1,-1
"{'cat': 'II', 'resp': 'button'}",39,275,Right,43.23095641839599,15.59124862423539,2.1615478209197994,0.24490676069094933,Left,Incorrect,0.0,0.0,-45,45,1859,-1,-1
"{'cat': 'II', 'resp': 'button'}",39,276,Left,47.262880985184594,58.26796305502091,2.3631440492592297,0.9152710233664758,107,Incorrect,0.0,0.0,-45,45,2548,-1,-1
"{'cat': 'II', 'resp': 'button'}",39,277,Right,53.81728491958884,27.7050645879567,2.690864245979442,0.4351901368837775,Right,Correct,0.0,0.0,-45,45,737,-1,-1
"{'cat': 'II', 'resp': 'button'}",39,278,Right,68.42414971534262,55.89618254729538,3.4212074857671313,0.8780151822714859,Right,Correct,0.0,0.0,-45,45,670,-1,-1
"{'cat': 'II', 'resp': 'button'}",39,279,Left,16.524440217513195,36.21693347211115,0.8262220108756597,0.5688942606576735,Left,Correct,0.0,0.0,-45,45,656,-1,-1
"{'cat': 'II', 'resp': 'button'}",39,280,Left,58.50627368568718,72.01595234800054,2.925313684284359,1.1312239341887556,Right,Incorrect,0.0,0.0,-45,45,663,-1,-1
"{'cat': 'II', 'resp': 'button'}",39,281,Right,88.82242696264132,67.28939320196825,4.441121348132066,1.0569793167390922,Right,Correct,0.0,0.0,-45,45,436,-1,-1
"{'cat': 'II', 'resp': 'button'}",39,282,Right,31.338245693832775,16.051578468913547,1.5669122846916388,0.2521376049822945,Left,Incorrect,0.0,0.0,-45,45,2042,-1,-1
"{'cat': 'II', 'resp': 'button'}",39,283,Left,67.08652739389998,89.76933136527185,3.3543263696949994,1.4100933596740293,Right,Incorrect,0.0,0.0,-45,45,1716,-1,-1
"{'cat': 'II', 'resp': 'button'}",39,284,Left,29.359288434660805,49.15815861694773,1.4679644217330403,0.7721745498750238,Left,Correct,0.0,0.0,-45,45,675,-1,-1
"{'cat': 'II', 'resp': 'button'}",39,285,Left,42.22328256718475,56.10660704123422,2.1111641283592375,0.8813205224929539,Left,Correct,0.0,0.0,-45,45,8529,-1,-1
"{'cat': 'II', 'resp': 'button'}",39,286,Right,49.89891784541715,26.69441007548029,2.4949458922708576,0.41931481292521117,Right,Correct,0.0,0.0,-45,45,1462,-1,-1
"{'cat': 'II', 'resp': 'button'}",39,287,Right,52.663085380854625,44.28478883340958,2.6331542690427314,0.6956238363240742,Right,Correct,0.0,0.0,-45,45,1173,-1,-1
"{'cat': 'II', 'resp': 'button'}",39,288,Right,46.83211502372731,31.09806521961044,2.3416057511863655,0.488487266173922,Right,Correct,0.0,0.0,-45,45,982,-1,-1
"{'cat': 'II', 'resp': 'button'}",39,289,Left,33.46092273254036,63.73898191334962,1.673046136627018,1.0012095866313593,Left,Correct,0.0,0.0,-45,45,1643,-1,-1
"{'cat': 'II', 'resp': 'button'}",39,290,Right,46.09271715745541,38.637648058867356,2.3046358578727704,0.6069187564686281,Right,Correct,0.0,0.0,-45,45,876,-1,-1
"{'cat': 'II', 'resp': 'button'}",39,291,Right,59.22493468567838,44.75939449216236,2.9612467342839186,0.7030789245785236,Left,Incorrect,0.0,0.0,-45,45,1317,-1,-1
"{'cat': 'II', 'resp': 'button'}",39,292,Right,36.82627501466952,25.856364267794255,1.841313750733476,0.40615082016122034,Right,Correct,0.0,0.0,-45,45,841,-1,-1
"{'cat': 'II', 'resp': 'button'}",39,293,Right,76.4664430683681,59.8580616827477,3.8233221534184048,0.9402482342032243,Right,Correct,0.0,0.0,-45,45,1894,-1,-1
"{'cat': 'II', 'resp': 'button'}",39,294,Left,44.358175720872396,71.88609399204653,2.21790878604362,1.1291841239033937,Left,Correct,0.0,0.0,-45,45,1347,-1,-1
"{'cat': 'II', 'resp': 'button'}",39,295,Right,58.53299027899033,47.00740858283261,2.926649513949517,0.7383906473406037,Right,Correct,0.0,0.0,-45,45,1954,-1,-1
"{'cat': 'II', 'resp': 'button'}",39,296,Left,25.257863854301725,48.64935792010575,1.2628931927150862,0.7641823272183231,Left,Correct,0.0,0.0,-45,45,1252,-1,-1
"{'cat': 'II', 'resp': 'button'}",39,297,Left,31.682905793840494,57.85568359873069,1.5841452896920247,0.9087949528109391,Left,Correct,0.0,0.0,-45,45,1431,-1,-1
"{'cat': 'II', 'resp': 'button'}",39,298,Left,55.579649291700925,69.5947416117911,2.778982464585046,1.093191644880414,Left,Correct,0.0,0.0,-45,45,936,-1,-1
"{'cat': 'II', 'resp': 'button'}",39,299,Left,18.603228448876617,32.52624139712606,0.9301614224438309,0.5109210051104971,Right,Incorrect,0.0,0.0,-45,45,911,-1,-1
"{'cat': 'II', 'resp': 'button'}",39,300,Left,42.61456716237182,60.78858440094086,2.130728358118591,0.9548648508805946,Right,Incorrect,0.0,0.0,-45,45,774,-1,-1
"{'cat': 'II', 'resp': 'button'}",39,301,Right,38.392124142079396,23.165744118940626,1.91960620710397,0.36388665769502415,Right,Correct,0.0,0.0,-45,45,696,-1,-1
"{'cat': 'II', 'resp': 'button'}",39,302,Left,51.34226484905958,64.42412127955305,2.5671132424529794,1.0119717306291085,Left,Correct,0.0,0.0,-45,45,753,-1,-1
"{'cat': 'II', 'resp': 'button'}",39,303,Left,31.46216870641271,60.697512540733584,1.5731084353206355,0.9534342974457148,Right,Incorrect,0.0,0.0,-45,45,1570,-1,-1
"{'cat': 'II', 'resp': 'button'}",39,304,Left,58.87515054716644,82.25200717001972,2.9437575273583216,1.2920115073417449,Right,Incorrect,0.0,0.0,-45,45,1181,-1,-1
"{'cat': 'II', 'resp': 'button'}",39,305,Right,32.078106096304055,16.93289361087303,1.6039053048152028,0.2659812708596813,Right,Correct,0.0,0.0,-45,45,526,-1,-1
"{'cat': 'II', 'resp': 'button'}",39,306,Right,38.788869246375086,19.36466203870874,1.9394434623187544,0.3041794000002826,Right,Correct,0.0,0.0,-45,45,713,-1,-1
"{'cat': 'II', 'resp': 'button'}",39,307,Left,58.4726012492134,74.8819147811645,2.92363006246067,1.1762423668162165,Left,Correct,0.0,0.0,-45,45,931,-1,-1
"{'cat': 'II', 'resp': 'button'}",39,308,Left,34.442747023102605,55.31805183090807,1.7221373511551303,0.8689339262144009,Right,Incorrect,0.0,0.0,-45,45,913,-1,-1
"{'cat': 'II', 'resp': 'button'}",39,309,Right,44.58603608743098,18.495699395424786,2.2293018043715493,0.2905297667183584,Right,Correct,0.0,0.0,-45,45,854,-1,-1
"{'cat': 'II', 'resp': 'button'}",39,310,Right,83.49250394601827,60.796118992233275,4.174625197300913,0.9549832039638548,Left,Incorrect,0.0,0.0,-45,45,792,-1,-1
"{'cat': 'II', 'resp': 'button'}",39,311,Left,33.08145069932755,49.304615047305184,1.6540725349663774,0.7744750821034336,Right,Incorrect,0.0,0.0,-45,45,1079,-1,-1
"{'cat': 'II', 'resp': 'button'}",39,312,Left,45.33723856147396,75.62891903006218,2.266861928073698,1.1879762821189033,Left,Correct,0.0,0.0,-45,45,1552,-1,-1
"{'cat': 'II', 'resp': 'button'}",39,313,Right,73.29475516496099,61.23762351339907,3.6647377582480494,0.9619183407649605,Right,Correct,0.0,0.0,-45,45,2321,-1,-1
"{'cat': 'II', 'resp': 'button'}",39,314,Right,79.94238529837999,56.04125504222587,3.9971192649189993,0.8802939756930438,Right,Correct,0.0,0.0,-45,45,1085,-1,-1
"{'cat': 'II', 'resp': 'button'}",39,315,Right,70.60780152169498,54.08109513775807,3.530390076084749,0.8495038559143571,Right,Correct,0.0,0.0,-45,45,3791,-1,-1
"{'cat': 'II', 'resp': 'button'}",39,316,Left,57.11957559039887,77.28305408313693,2.8559787795199436,1.2139593747728283,Left,Correct,0.0,0.0,-45,45,2009,-1,-1
"{'cat': 'II', 'resp': 'button'}",39,317,Left,41.2301843576488,55.99116085571749,2.06150921788244,0.8795070980514323,Left,Correct,0.0,0.0,-45,45,819,-1,-1
"{'cat': 'II', 'resp': 'button'}",39,318,Right,32.42976341960035,17.85845037554917,1.6214881709800175,0.2805198825216158,Left,Incorrect,0.0,0.0,-45,45,913,-1,-1
"{'cat': 'II', 'resp': 'button'}",39,319,Right,81.28412354577178,66.03758273952772,4.064206177288589,1.037315923976642,Right,Correct,0.0,0.0,-45,45,717,-1,-1
"{'cat': 'II', 'resp': 'button'}",39,320,Right,43.02555323764359,34.849959787657994,2.1512776618821796,0.5474218882340304,Left,Incorrect,0.0,0.0,-45,45,739,-1,-1
"{'cat': 'II', 'resp': 'button'}",39,321,Right,56.00450819257068,39.51960164211206,2.8002254096285344,0.6207724509582718,Right,Correct,0.0,0.0,-45,45,902,-1,-1
"{'cat': 'II', 'resp': 'button'}",39,322,Left,49.92776192351981,59.88273049418795,2.496388096175991,0.9406357309871919,107,Incorrect,0.0,0.0,-45,45,878,-1,-1
"{'cat': 'II', 'resp': 'button'}",39,323,Right,46.982265333855246,38.016192321904335,2.3491132666927625,0.5971569525797568,Right,Correct,0.0,0.0,-45,45,676,-1,-1
"{'cat': 'II', 'resp': 'button'}",39,324,Right,40.71535122459669,29.65909765033627,2.0357675612298345,0.4658840164519936,Right,Correct,0.0,0.0,-45,45,3033,-1,-1
"{'cat': 'II', 'resp': 'button'}",39,325,Left,41.456427741429636,63.5928613863041,2.072821387071482,0.9989143307598349,Left,Correct,0.0,0.0,-45,45,1791,-1,-1
"{'cat': 'II', 'resp': 'button'}",39,326,Left,18.39328123738375,47.283743103671796,0.9196640618691875,0.7427312998436117,Left,Correct,0.0,0.0,-45,45,795,-1,-1
"{'cat': 'II', 'resp': 'button'}",39,327,Right,68.22467885717137,55.357235086523964,3.4112339428585687,0.869549415354334,Right,Correct,0.0,0.0,-45,45,833,-1,-1
"{'cat': 'II', 'resp': 'button'}",39,328,Right,72.447499667297,57.28083818433757,3.6223749833648498,0.899765302156903,Right,Correct,0.0,0.0,-45,45,826,-1,-1
"{'cat': 'II', 'resp': 'button'}",39,329,Right,72.67561236552974,51.11731027063028,3.633780618276487,0.8029488320874109,Right,Correct,0.0,0.0,-45,45,1031,-1,-1
"{'cat': 'II', 'resp': 'button'}",39,330,Left,27.491275376157205,48.23208395783467,1.3745637688078602,0.7576278031462975,Left,Correct,0.0,0.0,-45,45,986,-1,-1
"{'cat': 'II', 'resp': 'button'}",39,331,Left,24.299972417477115,39.6049900876569,1.2149986208738557,0.6221137295243975,Left,Correct,0.0,0.0,-45,45,777,-1,-1
"{'cat': 'II', 'resp': 'button'}",39,332,Left,43.916886419365966,52.95307705272606,2.1958443209682983,0.8317849892690922,Left,Correct,0.0,0.0,-45,45,1312,-1,-1
"{'cat': 'II', 'resp': 'button'}",39,333,Left,46.43457469073534,75.30425716547278,2.3217287345367668,1.182876505475429,Right,Incorrect,0.0,0.0,-45,45,1377,-1,-1
"{'cat': 'II', 'resp': 'button'}",39,334,Left,15.411144044812776,30.489442972856207,0.7705572022406387,0.47892705027785,Left,Correct,0.0,0.0,-45,45,628,-1,-1
"{'cat': 'II', 'resp': 'button'}",39,335,Right,78.07449697968826,49.201310532712895,3.903724848984413,0.7728523785828046,Right,Correct,0.0,0.0,-45,45,710,-1,-1
"{'cat': 'II', 'resp': 'button'}",39,336,Right,75.45636487526255,54.85576006765511,3.772818243763128,0.8616722641781482,Right,Correct,0.0,0.0,-45,45,749,-1,-1
"{'cat': 'II', 'resp': 'button'}",39,337,Left,26.583107175733254,58.664870058214824,1.3291553587866627,0.9215056239934375,Left,Correct,0.0,0.0,-45,45,601,-1,-1
"{'cat': 'II', 'resp': 'button'}",39,338,Right,69.13607899527103,41.97357664016726,3.4568039497635517,0.6593194000881881,Right,Correct,0.0,0.0,-45,45,789,-1,-1
"{'cat': 'II', 'resp': 'button'}",39,339,Left,53.24756251887628,75.18925948410069,2.662378125943814,1.181070126120537,Right,Incorrect,0.0,0.0,-45,45,774,-1,-1
"{'cat': 'II', 'resp': 'button'}",39,340,Left,12.768060671088005,35.57281936090159,0.6384030335544003,0.558776539858426,Left,Correct,0.0,0.0,-45,45,633,-1,-1
"{'cat': 'II', 'resp': 'button'}",39,341,Right,39.174851764395186,28.882781291839947,1.9587425882197593,0.4536896676084255,Left,Incorrect,0.0,0.0,-45,45,871,-1,-1
"{'cat': 'II', 'resp': 'button'}",39,342,Left,50.58756010956219,58.53949960667227,2.5293780054781094,0.9195363095457211,Right,Incorrect,0.0,0.0,-45,45,776,-1,-1
"{'cat': 'II', 'resp': 'button'}",39,343,Right,67.96909580154339,58.71384080753538,3.3984547900771696,0.9222748547249687,Right,Correct,0.0,0.0,-45,45,500,-1,-1
"{'cat': 'II', 'resp': 'button'}",39,344,Left,26.741712057225964,47.1637772639058,1.3370856028612983,0.740846880839159,Left,Correct,0.0,0.0,-45,45,600,-1,-1
"{'cat': 'II', 'resp': 'button'}",39,345,Right,63.06849336750791,36.64365387730843,3.1534246683753957,0.5755971691081966,Right,Correct,0.0,0.0,-45,45,863,-1,-1
"{'cat': 'II', 'resp': 'button'}",39,346,Right,43.181665742019455,20.738505527527153,2.1590832871009726,0.3257596830585531,Right,Correct,0.0,0.0,-45,45,1158,-1,-1
"{'cat': 'II', 'resp': 'button'}",39,347,Right,76.48453873814299,44.102074925244835,3.8242269369071495,0.692753772966079,Right,Correct,0.0,0.0,-45,45,745,-1,-1
"{'cat': 'II', 'resp': 'button'}",39,348,Right,47.70240349202005,17.467239488424898,2.3851201746010027,0.27437475627664604,Right,Correct,0.0,0.0,-45,45,1221,-1,-1
"{'cat': 'II', 'resp': 'button'}",39,349,Right,38.356389850783145,28.133982509014295,1.9178194925391574,0.44192756383271525,Right,Correct,0.0,0.0,-45,45,1131,-1,-1
"{'cat': 'II', 'resp': 'button'}",39,350,Right,63.9077145091083,41.99119963192998,3.195385725455415,0.6595962213954683,Right,Correct,0.0,0.0,-45,45,796,-1,-1
"{'cat': 'II', 'resp': 'button'}",39,351,Left,34.957187172159834,43.62247495949419,1.7478593586079916,0.6852202343207583,107,Incorrect,0.0,0.0,-45,45,1640,-1,-1
"{'cat': 'II', 'resp': 'button'}",39,352,Right,60.994876313429955,30.1912920257484,3.0497438156714973,0.4742437061523763,Right,Correct,0.0,0.0,-45,45,781,-1,-1
"{'cat': 'II', 'resp': 'button'}",39,353,Left,66.39936292826698,81.941935487296,3.3199681464133493,1.2871409127390896,Right,Incorrect,0.0,0.0,-45,45,824,-1,-1
"{'cat': 'II', 'resp': 'button'}",39,354,Left,37.185814261934155,70.11945894781577,1.8592907130967078,1.1014338855207455,Left,Correct,0.0,0.0,-45,45,1040,-1,-1
"{'cat': 'II', 'resp': 'button'}",39,355,Left,23.52888652607414,45.15988823351669,1.1764443263037068,0.7093698655567608,Right,Incorrect,0.0,0.0,-45,45,868,-1,-1
"{'cat': 'II', 'resp': 'button'}",39,356,Left,20.04112280932675,34.29197829256564,1.0020561404663375,0.5386571354049242,Left,Correct,0.0,0.0,-45,45,1438,-1,-1
"{'cat': 'II', 'resp': 'button'}",39,357,Right,76.84912670825423,65.8308485449868,3.8424563354127117,1.0340685508425642,Right,Correct,0.0,0.0,-45,45,1336,-1,-1
"{'cat': 'II', 'resp': 'button'}",39,358,Left,43.75584944440226,59.0892675525175,2.1877924722201127,0.9281720442449534,Left,Correct,0.0,0.0,-45,45,2539,-1,-1
"{'cat': 'II', 'resp': 'button'}",39,359,Left,19.669464345470086,33.647110287299796,0.9834732172735043,0.528527572465533,Left,Correct,0.0,0.0,-45,45,1042,-1,-1
"{'cat': 'II', 'resp': 'button'}",39,360,Left,33.20114198217804,56.486361335052734,1.6600570991089016,0.887285688991101,Left,Correct,0.0,0.0,-45,45,1255,-1,-1
"{'cat': 'II', 'resp': 'button'}",39,361,Right,86.07986666778805,64.2383584751624,4.3039933333894025,1.009053775321189,Right,Correct,0.0,0.0,-45,45,1287,-1,-1
"{'cat': 'II', 'resp': 'button'}",39,362,Right,54.088661625771884,34.23159534444724,2.7044330812885944,0.5377086422738702,Right,Correct,0.0,0.0,-45,45,973,-1,-1
"{'cat': 'II', 'resp': 'button'}",39,363,Left,37.52694211204653,64.28868817168876,1.8763471056023264,1.0098443523455123,Left,Correct,0.0,0.0,-45,45,1297,-1,-1
"{'cat': 'II', 'resp': 'button'}",39,364,Right,66.69045541967205,35.32615818881183,3.3345227709836025,0.5549019952276107,Right,Correct,0.0,0.0,-45,45,785,-1,-1
"{'cat': 'II', 'resp': 'button'}",39,365,Right,33.10448829654892,12.07279705269983,1.6552244148274462,0.18963905264521147,107,Incorrect,0.0,0.0,-45,45,2627,-1,-1
"{'cat': 'II', 'resp': 'button'}",39,366,Right,56.30762016214406,34.818602024992614,2.8153810081072033,0.5469293216499176,Left,Incorrect,0.0,0.0,-45,45,784,-1,-1
"{'cat': 'II', 'resp': 'button'}",39,367,Left,62.04229860174184,86.09043400577808,3.102114930087092,1.3523053750845464,107,Incorrect,0.0,0.0,-45,45,1432,-1,-1
"{'cat': 'II', 'resp': 'button'}",39,368,Left,16.838965474361014,33.49983416597631,0.8419482737180508,0.5262141645615377,Left,Correct,0.0,0.0,-45,45,810,-1,-1
"{'cat': 'II', 'resp': 'button'}",39,369,Left,55.89231656108437,80.22498404537374,2.794615828054219,1.2601711025565225,Right,Incorrect,0.0,0.0,-45,45,861,-1,-1
"{'cat': 'II', 'resp': 'button'}",39,370,Right,54.95190709600394,43.79561432239051,2.7475953548001972,0.6879399010733698,Right,Correct,0.0,0.0,-45,45,602,-1,-1
"{'cat': 'II', 'resp': 'button'}",39,371,Right,66.60038595753144,55.855052673318724,3.3300192978765724,0.8773691157218451,Right,Correct,0.0,0.0,-45,45,638,-1,-1
"{'cat': 'II', 'resp': 'button'}",39,372,Right,65.34604763118269,45.274153381266515,3.267302381559134,0.7111647383004219,Right,Correct,0.0,0.0,-45,45,541,-1,-1
"{'cat': 'II', 'resp': 'button'}",39,373,Right,55.22632366452665,32.68642138045053,2.7613161832263327,0.5134371064048188,Right,Correct,0.0,0.0,-45,45,714,-1,-1
"{'cat': 'II', 'resp': 'button'}",39,374,Left,33.39514050511017,58.67564907112228,1.6697570252555085,0.9216749403322527,Left,Correct,0.0,0.0,-45,45,597,-1,-1
"{'cat': 'II', 'resp': 'button'}",39,375,Left,11.180521048310581,33.58663734497562,0.559026052415529,0.5275776657087999,Left,Correct,0.0,0.0,-45,45,649,-1,-1
"{'cat': 'II', 'resp': 'button'}",39,376,Left,11.787474282407697,33.11874344691121,0.5893737141203849,0.5202280055447068,Left,Correct,0.0,0.0,-45,45,569,-1,-1
"{'cat': 'II', 'resp': 'button'}",39,377,Right,78.10161808527576,54.13268019764877,3.9050809042637877,0.8503141521402953,Right,Correct,0.0,0.0,-45,45,549,-1,-1
"{'cat': 'II', 'resp': 'button'}",39,378,Right,47.801733100057,36.637133404109576,2.39008665500285,0.5754947457546993,Right,Correct,0.0,0.0,-45,45,800,-1,-1
"{'cat': 'II', 'resp': 'button'}",39,379,Left,25.900351029372068,50.60760792199885,1.2950175514686035,0.794942446317521,Left,Correct,0.0,0.0,-45,45,616,-1,-1
"{'cat': 'II', 'resp': 'button'}",39,380,Left,34.502339398256915,59.43405590857391,1.7251169699128457,0.933587967077104,Left,Correct,0.0,0.0,-45,45,948,-1,-1
"{'cat': 'II', 'resp': 'button'}",39,381,Right,37.3727735715334,20.082530328732474,1.86863867857667,0.31545564873120074,Left,Incorrect,0.0,0.0,-45,45,887,-1,-1
"{'cat': 'II', 'resp': 'button'}",39,382,Right,65.70010544586728,56.19574834663613,3.285005272293364,0.8827207508438643,Right,Correct,0.0,0.0,-45,45,688,-1,-1
"{'cat': 'II', 'resp': 'button'}",39,383,Left,48.36790793387949,56.82343718934155,2.418395396693975,0.8925804641287822,Left,Correct,0.0,0.0,-45,45,1615,-1,-1
"{'cat': 'II', 'resp': 'button'}",39,384,Right,42.69143594728861,19.126325213700923,2.1345717973644303,0.30043561390766027,Right,Correct,0.0,0.0,-45,45,2019,-1,-1
"{'cat': 'II', 'resp': 'button'}",39,385,Left,39.737554473315605,64.85058771385332,1.9868777236657804,1.0186706497141103,Left,Correct,0.0,0.0,-45,45,958,-1,-1
"{'cat': 'II', 'resp': 'button'}",39,386,Right,69.85845842845413,42.7024692977945,3.492922921422706,0.6707688191804745,Right,Correct,0.0,0.0,-45,45,581,-1,-1
"{'cat': 'II', 'resp': 'button'}",39,387,Left,31.057892642054,49.69336372293609,1.5528946321027002,0.7805815320207077,Left,Correct,0.0,0.0,-45,45,617,-1,-1
"{'cat': 'II', 'resp': 'button'}",39,388,Right,68.55309939410013,42.42809242649574,3.4276549697050065,0.6664589173645388,Right,Correct,0.0,0.0,-45,45,828,-1,-1
"{'cat': 'II', 'resp': 'button'}",39,389,Left,69.3231155513977,85.32343293517812,3.466155777569885,1.3402573504410848,Right,Incorrect,0.0,0.0,-45,45,654,-1,-1
"{'cat': 'II', 'resp': 'button'}",39,390,Left,21.979212997608627,52.635240846275266,1.0989606498804314,0.8267924298129389,Left,Correct,0.0,0.0,-45,45,620,-1,-1
"{'cat': 'II', 'resp': 'button'}",39,391,Right,50.1153444876289,24.05046152761268,2.505767224381445,0.37778376625295973,Right,Correct,0.0,0.0,-45,45,480,-1,-1
"{'cat': 'II', 'resp': 'button'}",39,392,Right,80.80625602388366,50.115964754744866,4.040312801194183,0.7872197335053572,Right,Correct,0.0,0.0,-45,45,625,-1,-1
"{'cat': 'II', 'resp': 'button'}",39,393,Left,26.942403756939207,55.60764442776217,1.3471201878469603,0.8734828360884552,Left,Correct,0.0,0.0,-45,45,583,-1,-1
"{'cat': 'II', 'resp': 'button'}",39,394,Right,46.48566039016363,16.893569480196323,2.324283019508181,0.26536356885946755,Right,Correct,0.0,0.0,-45,45,1304,-1,-1
"{'cat': 'II', 'resp': 'button'}",39,395,Right,78.25580417103413,49.81622756648767,3.9127902085517063,0.7825114727621749,Right,Correct,0.0,0.0,-45,45,781,-1,-1
"{'cat': 'II', 'resp': 'button'}",39,396,Left,68.37118157203908,82.40375214369197,3.4185590786019535,1.2943951118142845,Right,Incorrect,0.0,0.0,-45,45,642,-1,-1
"{'cat': 'II', 'resp': 'button'}",39,397,Right,54.81181504409075,42.514252125102914,2.7405907522045374,0.6678123107454379,Right,Correct,0.0,0.0,-45,45,897,-1,-1
"{'cat': 'II', 'resp': 'button'}",39,398,Right,84.95687791249621,64.53845685788164,4.24784389562481,1.0137677096937137,Right,Correct,0.0,0.0,-45,45,1066,-1,-1
"{'cat': 'II', 'resp': 'button'}",39,399,Left,22.34676556569495,40.80297388263698,1.1173382782847476,0.6409316149715425,Left,Correct,0.0,0.0,-45,45,547,-1,-1
