condition,subject,trial,cat,x,y,xt,yt,resp,fb,rotation,su,target_angle_left,target_angle_right,rt,mt,ep
"{'cat': 'RB', 'resp': 'reach'}",46,0,Left,32.79817487289236,54.056832568437756,1.639908743644618,0.8491227403666877,Right,Incorrect,0.0,0.0,-45,45,2008,36725,-0.09
"{'cat': 'RB', 'resp': 'reach'}",46,1,Left,31.51734116244212,46.769373368039616,1.575867058122106,0.734651598930157,Right,Incorrect,0.0,0.0,-45,45,2007,2355,2.94
"{'cat': 'RB', 'resp': 'reach'}",46,2,Left,32.366113963702944,67.36964394970218,1.6183056981851474,1.058239892536722,Right,Incorrect,0.0,0.0,-45,45,2002,9495,-0.11
"{'cat': 'RB', 'resp': 'reach'}",46,3,Right,60.17584012211148,11.99429440985773,3.008792006105574,0.18840593601501085,Right,Correct,0.0,0.0,-45,45,2006,4673,2.92
"{'cat': 'RB', 'resp': 'reach'}",46,4,Left,45.14720666581904,54.398629329971,2.2573603332909524,0.8544916713419557,Right,Incorrect,0.0,0.0,-45,45,2002,6924,-0.81
"{'cat': 'RB', 'resp': 'reach'}",46,5,Right,54.493935689909755,46.929659032708194,2.724696784495488,0.7371693602631495,Left,Incorrect,0.0,0.0,-45,45,2006,855,-2.62
"{'cat': 'RB', 'resp': 'reach'}",46,6,Left,40.978461433212566,30.700606193845193,2.0489230716606284,0.48224399439668686,Right,Incorrect,0.0,0.0,-45,45,2002,8869,-0.66
"{'cat': 'RB', 'resp': 'reach'}",46,7,Left,43.994084675598884,57.896277517375246,2.1997042337799444,0.9094326005939098,Right,Incorrect,0.0,0.0,-45,45,2012,901,-0.65
"{'cat': 'RB', 'resp': 'reach'}",46,8,Left,32.1373673234401,48.870830757766406,1.6068683661720053,0.7676612144171451,Left,Correct,0.0,0.0,-45,45,2008,68975,-2.54
"{'cat': 'RB', 'resp': 'reach'}",46,9,Right,64.1981743329779,13.981680951314218,3.209908716648895,0.2196237308074255,Right,Correct,0.0,0.0,-45,45,2004,1136,-0.65
"{'cat': 'RB', 'resp': 'reach'}",46,10,Left,46.598766957633735,41.931869856784594,2.329938347881687,0.6586642714667889,Right,Incorrect,0.0,0.0,-45,45,2005,960,-0.72
"{'cat': 'RB', 'resp': 'reach'}",46,11,Right,62.60251850794895,13.618779103249302,3.130125925397447,0.213923281908151,Left,Incorrect,0.0,0.0,-45,45,2008,673,-2.62
"{'cat': 'RB', 'resp': 'reach'}",46,12,Right,52.342561727403634,69.89977970655622,2.6171280863701814,1.0979831720683095,Right,Correct,0.0,0.0,-45,45,2012,528,-0.63
"{'cat': 'RB', 'resp': 'reach'}",46,13,Left,47.24653420538128,24.118761182880732,2.3623267102690644,0.37885661472912385,Left,Correct,0.0,0.0,-45,45,2007,787,-2.62
"{'cat': 'RB', 'resp': 'reach'}",46,14,Left,39.57494663255215,70.94165963729196,1.9787473316276074,1.1143489837499199,Right,Incorrect,0.0,0.0,-45,45,2009,1796,-0.64
"{'cat': 'RB', 'resp': 'reach'}",46,15,Right,61.885333296334565,22.850832089979257,3.0942666648167285,0.35894003111146366,Right,Correct,0.0,0.0,-45,45,2005,1065,-0.59
"{'cat': 'RB', 'resp': 'reach'}",46,16,Left,35.06798155167446,47.90168332497106,1.7533990775837227,0.7524378821415689,Left,Correct,0.0,0.0,-45,45,2014,717,-2.63
"{'cat': 'RB', 'resp': 'reach'}",46,17,Right,59.31440597215238,67.50412615282387,2.965720298607619,1.0603523340435506,Left,Incorrect,0.0,0.0,-45,45,2007,615,-2.59
"{'cat': 'RB', 'resp': 'reach'}",46,18,Left,39.11757795028078,73.62661596299348,1.955878897514039,1.1565241790900866,Right,Incorrect,0.0,0.0,-45,45,2002,564,-0.6
"{'cat': 'RB', 'resp': 'reach'}",46,19,Right,52.81119206569633,61.75490790220378,2.6405596032848164,0.9700438249433884,Right,Correct,0.0,0.0,-45,45,2002,635,-0.67
"{'cat': 'RB', 'resp': 'reach'}",46,20,Left,49.26508253973773,48.181678630437204,2.463254126986887,0.7568360381150291,Left,Correct,0.0,0.0,-45,45,2004,802,-2.63
"{'cat': 'RB', 'resp': 'reach'}",46,21,Left,31.999384441980695,48.15147844150119,1.5999692220990347,0.7563616546565372,Right,Incorrect,0.0,0.0,-45,45,2004,592,-0.66
"{'cat': 'RB', 'resp': 'reach'}",46,22,Left,43.816811541058776,84.02338924748284,2.190840577052939,1.3198363119480385,Right,Incorrect,0.0,0.0,-45,45,2008,580,-0.61
"{'cat': 'RB', 'resp': 'reach'}",46,23,Left,37.80481321001198,36.66407761927949,1.890240660500599,0.5759179844968719,Right,Incorrect,0.0,0.0,-45,45,2008,583,-0.6
"{'cat': 'RB', 'resp': 'reach'}",46,24,Right,58.621436524442316,53.104012314486994,2.9310718262221154,0.8341558748166713,Left,Incorrect,0.0,0.0,-45,45,2007,1579,-2.63
"{'cat': 'RB', 'resp': 'reach'}",46,25,Right,65.97997721485734,60.26812023720733,3.2989988607428673,0.9466894189143844,Right,Correct,0.0,0.0,-45,45,2012,641,-0.7
"{'cat': 'RB', 'resp': 'reach'}",46,26,Right,62.237522002821464,54.41775387498966,3.1118761001410733,0.854792078992625,Left,Incorrect,0.0,0.0,-45,45,2008,661,-2.5
"{'cat': 'RB', 'resp': 'reach'}",46,27,Right,56.01873467331554,72.25456536904824,2.800936733665777,1.134972058758627,Right,Correct,0.0,0.0,-45,45,2001,625,-0.57
"{'cat': 'RB', 'resp': 'reach'}",46,28,Right,61.48635111963689,82.5752612893195,3.0743175559818443,1.2970891711739188,Left,Incorrect,0.0,0.0,-45,45,2005,642,-2.54
"{'cat': 'RB', 'resp': 'reach'}",46,29,Left,39.17118185413628,12.4461328710455,1.958559092706814,0.19550339796639488,Right,Incorrect,0.0,0.0,-45,45,2007,658,-0.56
"{'cat': 'RB', 'resp': 'reach'}",46,30,Right,59.59582378846467,21.745747108673577,2.979791189423233,0.34158139681715194,Right,Correct,0.0,0.0,-45,45,2002,683,-0.57
"{'cat': 'RB', 'resp': 'reach'}",46,31,Right,52.65552027931504,44.60491882889088,2.6327760139657523,0.7006524265340631,Left,Incorrect,0.0,0.0,-45,45,2012,3346,-2.6
"{'cat': 'RB', 'resp': 'reach'}",46,32,Left,39.22529586352211,31.792212691577205,1.9612647931761058,0.49939090916611567,Right,Incorrect,0.0,0.0,-45,45,2012,12880,-0.47
"{'cat': 'RB', 'resp': 'reach'}",46,33,Right,56.712966952434186,19.7373592981825,2.835648347621709,0.3100337148621617,Right,Correct,0.0,0.0,-45,45,2002,638,-0.63
"{'cat': 'RB', 'resp': 'reach'}",46,34,Left,32.556762163211296,50.927504921235474,1.6278381081605646,0.799967376631057,Left,Correct,0.0,0.0,-45,45,2004,1057,-2.82
"{'cat': 'RB', 'resp': 'reach'}",46,35,Right,60.80136338623164,90.98555942900506,3.040068169311582,1.4291978254245992,Right,Correct,0.0,0.0,-45,45,2007,670,-0.64
"{'cat': 'RB', 'resp': 'reach'}",46,36,Left,40.2402567727542,88.61552343409639,2.0120128386377103,1.391969387072857,Right,Incorrect,0.0,0.0,-45,45,2004,1316,-0.51
"{'cat': 'RB', 'resp': 'reach'}",46,37,Left,32.651795184199166,45.419625475793225,1.6325897592099583,0.713449808617759,Right,Incorrect,0.0,0.0,-45,45,2013,771,-0.53
"{'cat': 'RB', 'resp': 'reach'}",46,38,Left,45.69737135955328,33.325995865203254,2.284868567977664,0.5234835189184318,Right,Incorrect,0.0,0.0,-45,45,2005,813,-0.56
"{'cat': 'RB', 'resp': 'reach'}",46,39,Right,63.18441511774257,88.25691677980882,3.1592207558871284,1.3863364069196655,Right,Correct,0.0,0.0,-45,45,2002,2078,-0.59
"{'cat': 'RB', 'resp': 'reach'}",46,40,Left,35.321773724452434,22.023092591184497,1.7660886862226217,0.3459379294689651,Left,Correct,0.0,0.0,-45,45,2003,632,-2.72
"{'cat': 'RB', 'resp': 'reach'}",46,41,Left,40.99341087325527,23.898209432223183,2.0496705436627636,0.3753921959311132,Right,Incorrect,0.0,0.0,-45,45,2007,585,-0.62
"{'cat': 'RB', 'resp': 'reach'}",46,42,Left,32.92780635540764,62.592874039925604,1.646390317770382,0.9832065662545079,Right,Incorrect,0.0,0.0,-45,45,2009,688,-0.57
"{'cat': 'RB', 'resp': 'reach'}",46,43,Right,57.33414044311583,48.402980513039765,2.8667070221557913,0.7603122399580781,Left,Incorrect,0.0,0.0,-45,45,2006,592,-2.6
"{'cat': 'RB', 'resp': 'reach'}",46,44,Left,31.11118282205228,42.80248991845094,1.555559141102614,0.6723399394157833,Right,Incorrect,0.0,0.0,-45,45,2003,1252,-0.62
"{'cat': 'RB', 'resp': 'reach'}",46,45,Left,39.62334597712621,31.829232405591462,1.9811672988563105,0.4999724134740416,Left,Correct,0.0,0.0,-45,45,2012,1431,-2.63
"{'cat': 'RB', 'resp': 'reach'}",46,46,Left,37.39577236204651,71.0964872689711,1.8697886181023253,1.1167810105011993,Right,Incorrect,0.0,0.0,-45,45,2003,985,-0.6
"{'cat': 'RB', 'resp': 'reach'}",46,47,Right,67.86476451474213,31.359375582708225,3.393238225737107,0.4925919197589964,Left,Incorrect,0.0,0.0,-45,45,2005,1350,-2.65
"{'cat': 'RB', 'resp': 'reach'}",46,48,Right,58.34920815847983,46.54201781478497,2.9174604079239916,0.7310803062508687,Left,Incorrect,0.0,0.0,-45,45,2003,1592,-2.55
"{'cat': 'RB', 'resp': 'reach'}",46,49,Right,64.07722273796963,64.20089734526016,3.2038611368984817,1.008465337268709,Right,Correct,0.0,0.0,-45,45,2005,1150,-0.6
"{'cat': 'RB', 'resp': 'reach'}",46,50,Left,37.362717116589515,34.370694009541324,1.8681358558294758,0.5398935989957887,Left,Correct,0.0,0.0,-45,45,2002,1194,-2.59
"{'cat': 'RB', 'resp': 'reach'}",46,51,Left,40.6093166625946,82.78637196389725,2.03046583312973,1.3004052898956582,Left,Correct,0.0,0.0,-45,45,2003,1378,-2.51
"{'cat': 'RB', 'resp': 'reach'}",46,52,Right,58.172454528279516,41.228458079184115,2.9086227264139755,0.6476151051019978,Right,Correct,0.0,0.0,-45,45,2003,1082,-0.58
"{'cat': 'RB', 'resp': 'reach'}",46,53,Right,60.46106606987292,85.34306945972256,3.023053303493646,1.340565800247339,Right,Correct,0.0,0.0,-45,45,2012,1076,-0.61
"{'cat': 'RB', 'resp': 'reach'}",46,54,Left,34.80401297681797,19.520131251348985,1.7402006488408985,0.3066215046817326,Left,Correct,0.0,0.0,-45,45,2012,925,-2.64
"{'cat': 'RB', 'resp': 'reach'}",46,55,Right,66.73952166259068,61.438014237150846,3.336976083129534,0.9650660708928911,Right,Correct,0.0,0.0,-45,45,2007,767,-0.59
"{'cat': 'RB', 'resp': 'reach'}",46,56,Right,66.62905118862633,31.848430568214585,3.331452559431317,0.5002739775073377,Right,Correct,0.0,0.0,-45,45,2009,1228,-0.63
"{'cat': 'RB', 'resp': 'reach'}",46,57,Left,32.2608189070982,73.12705029866879,1.61304094535491,1.1486770199849459,Left,Correct,0.0,0.0,-45,45,2014,994,-2.55
"{'cat': 'RB', 'resp': 'reach'}",46,58,Right,61.918297794180546,60.890106767743355,3.0959148897090274,0.9564595604892034,Right,Correct,0.0,0.0,-45,45,2001,1146,-0.66
"{'cat': 'RB', 'resp': 'reach'}",46,59,Left,35.355556962607736,42.90526223449208,1.767777848130387,0.6739542831811196,Left,Correct,0.0,0.0,-45,45,2001,950,-2.53
"{'cat': 'RB', 'resp': 'reach'}",46,60,Right,59.64317418064311,79.0919996282891,2.9821587090321553,1.2423742249497984,Right,Correct,0.0,0.0,-45,45,2002,1514,-0.59
"{'cat': 'RB', 'resp': 'reach'}",46,61,Left,37.08432872433076,56.682002296077336,1.854216436216538,0.8903588100205815,Left,Correct,0.0,0.0,-45,45,2012,960,-2.48
"{'cat': 'RB', 'resp': 'reach'}",46,62,Right,65.45478679906515,21.31223380923531,3.272739339953257,0.33477178583340833,Right,Correct,0.0,0.0,-45,45,2002,993,-0.71
"{'cat': 'RB', 'resp': 'reach'}",46,63,Right,56.20896799333878,19.58707585909483,2.810448399666939,0.30767306812119155,Right,Correct,0.0,0.0,-45,45,2012,3202,-0.55
"{'cat': 'RB', 'resp': 'reach'}",46,64,Left,32.61143283587672,62.25463315046388,1.6305716417938358,0.9778934907871247,Left,Correct,0.0,0.0,-45,45,2007,756,-2.48
"{'cat': 'RB', 'resp': 'reach'}",46,65,Right,58.34877542223801,28.24834200985983,2.9174387711119003,0.44372391867133787,Right,Correct,0.0,0.0,-45,45,2008,1023,-0.67
"{'cat': 'RB', 'resp': 'reach'}",46,66,Left,48.12295888830202,35.42853782209745,2.4061479444151015,0.5565101707466472,Left,Correct,0.0,0.0,-45,45,2004,1327,-2.52
"{'cat': 'RB', 'resp': 'reach'}",46,67,Right,56.36210475646507,35.711238640794164,2.818105237823254,0.5609508248225544,Right,Correct,0.0,0.0,-45,45,2005,2975,-0.62
"{'cat': 'RB', 'resp': 'reach'}",46,68,Left,45.047639388125894,28.305648175759412,2.252381969406295,0.44462408182031543,Left,Correct,0.0,0.0,-45,45,2007,1489,-2.47
"{'cat': 'RB', 'resp': 'reach'}",46,69,Left,33.75683264473219,26.737373436402244,1.6878416322366094,0.4199896798204409,Left,Correct,0.0,0.0,-45,45,2002,1422,-2.56
"{'cat': 'RB', 'resp': 'reach'}",46,70,Left,41.68212503335568,68.09143500444267,2.084106251667784,1.06957775991172,Left,Correct,0.0,0.0,-45,45,2001,1012,-2.39
"{'cat': 'RB', 'resp': 'reach'}",46,71,Left,48.19808493523071,40.84209966446358,2.4099042467615357,0.6415462013153047,Right,Incorrect,0.0,0.0,-45,45,2006,1929,-0.66
"{'cat': 'RB', 'resp': 'reach'}",46,72,Right,62.87058287853551,60.44108852238131,3.1435291439267754,0.9494063983844174,Right,Correct,0.0,0.0,-45,45,2002,1470,-0.67
"{'cat': 'RB', 'resp': 'reach'}",46,73,Right,66.8424903169672,40.35580277580732,3.34212451584836,0.6339074676509742,Right,Correct,0.0,0.0,-45,45,2008,3374,-0.62
"{'cat': 'RB', 'resp': 'reach'}",46,74,Right,56.914865473218306,74.40605935203354,2.8457432736609154,1.1687676472145734,Left,Incorrect,0.0,0.0,-45,45,2009,1179,-2.49
"{'cat': 'RB', 'resp': 'reach'}",46,75,Right,52.454080791677825,56.80783759011979,2.6227040395838914,0.8923354261972121,Left,Incorrect,0.0,0.0,-45,45,2006,1819,-2.49
"{'cat': 'RB', 'resp': 'reach'}",46,76,Right,56.325868065611026,83.67796741064143,2.8162934032805516,1.3144104384229862,Left,Incorrect,0.0,0.0,-45,45,2006,1099,-2.48
"{'cat': 'RB', 'resp': 'reach'}",46,77,Left,34.71408278361722,34.43571465194978,1.735704139180861,0.5409149408583992,Left,Correct,0.0,0.0,-45,45,2002,1565,-2.53
"{'cat': 'RB', 'resp': 'reach'}",46,78,Right,62.456162114312924,42.95603056852488,3.1228081057156465,0.6747517503072817,Right,Correct,0.0,0.0,-45,45,2008,675,-0.63
"{'cat': 'RB', 'resp': 'reach'}",46,79,Left,36.48398892314496,44.23938242609032,1.8241994461572484,0.6949105941457738,Left,Correct,0.0,0.0,-45,45,2003,905,-2.61
"{'cat': 'RB', 'resp': 'reach'}",46,80,Right,68.52066909457373,42.1327321600487,3.426033454728687,0.6618194091483769,Right,Correct,0.0,0.0,-45,45,2003,609,-0.73
"{'cat': 'RB', 'resp': 'reach'}",46,81,Left,40.49945216614015,23.090882900469648,2.0249726083070074,0.36271074042508816,Left,Correct,0.0,0.0,-45,45,2005,823,-2.46
"{'cat': 'RB', 'resp': 'reach'}",46,82,Left,37.212616997479635,51.58364744043223,1.8606308498739819,0.810274039221139,Left,Correct,0.0,0.0,-45,45,2002,730,-2.54
"{'cat': 'RB', 'resp': 'reach'}",46,83,Right,64.80696165274767,40.79314300329797,3.2403480826373836,0.6407771918799938,Right,Correct,0.0,0.0,-45,45,2009,693,-0.73
"{'cat': 'RB', 'resp': 'reach'}",46,84,Right,58.45383190360907,88.24907304419685,2.9226915951804533,1.3862131978087895,Left,Incorrect,0.0,0.0,-45,45,2002,951,-2.51
"{'cat': 'RB', 'resp': 'reach'}",46,85,Right,57.8214723505902,51.32801816585282,2.8910736175295098,0.8062586239658334,Right,Correct,0.0,0.0,-45,45,2010,828,-0.73
"{'cat': 'RB', 'resp': 'reach'}",46,86,Right,63.84790929681572,14.571900453436697,3.192395464840786,0.22889487706679254,Right,Correct,0.0,0.0,-45,45,2005,782,-0.73
"{'cat': 'RB', 'resp': 'reach'}",46,87,Right,62.18967764685663,18.674813903394192,3.1094838823428312,0.29334329083029864,Right,Correct,0.0,0.0,-45,45,2008,775,-0.77
"{'cat': 'RB', 'resp': 'reach'}",46,88,Left,46.24849704941397,62.557564181198934,2.3124248524706985,0.9826519202906328,Left,Correct,0.0,0.0,-45,45,2009,775,-2.56
"{'cat': 'RB', 'resp': 'reach'}",46,89,Left,40.962375285921006,19.752657445315876,2.0481187642960506,0.31027401759540046,Left,Correct,0.0,0.0,-45,45,2010,993,-2.54
"{'cat': 'RB', 'resp': 'reach'}",46,90,Left,33.769534432117304,34.518244845032605,1.6884767216058651,0.5422113220998409,Left,Correct,0.0,0.0,-45,45,2008,861,-2.47
"{'cat': 'RB', 'resp': 'reach'}",46,91,Left,38.83596647274831,52.206117747021686,1.9417983236374154,0.8200517799324353,Left,Correct,0.0,0.0,-45,45,2003,628,-2.58
"{'cat': 'RB', 'resp': 'reach'}",46,92,Right,62.96189290577482,13.718948546512806,3.1480946452887406,0.215496739843505,Right,Correct,0.0,0.0,-45,45,2001,579,-0.74
"{'cat': 'RB', 'resp': 'reach'}",46,93,Right,65.79547914711412,69.29064124423854,3.289773957355706,1.0884148474771287,Left,Incorrect,0.0,0.0,-45,45,2001,812,-2.35
"{'cat': 'RB', 'resp': 'reach'}",46,94,Right,56.6124091634114,83.89083204331382,2.8306204581705696,1.3177541082540496,Right,Correct,0.0,0.0,-45,45,2005,1118,-0.66
"{'cat': 'RB', 'resp': 'reach'}",46,95,Right,57.68087877761209,72.63217758093958,2.8840439388806045,1.1409035775125453,Right,Correct,0.0,0.0,-45,45,2004,631,-0.7
"{'cat': 'RB', 'resp': 'reach'}",46,96,Left,46.05263939211046,43.528406416197875,2.302631969605523,0.6837426090979902,Left,Correct,0.0,0.0,-45,45,2002,891,-2.6
"{'cat': 'RB', 'resp': 'reach'}",46,97,Left,39.84686429186337,78.95694023689106,1.9923432145931685,1.2402527169907265,Left,Correct,0.0,0.0,-45,45,2002,1018,-2.56
"{'cat': 'RB', 'resp': 'reach'}",46,98,Left,41.201089494404556,18.47721090755713,2.0600544747202276,0.2902393502300534,Right,Incorrect,0.0,0.0,-45,45,2004,1204,-0.81
"{'cat': 'RB', 'resp': 'reach'}",46,99,Left,46.263675093788535,67.02375858467177,2.313183754689427,1.0528067379279031,Left,Correct,0.0,0.0,-45,45,2006,1510,-2.51
"{'cat': 'RB', 'resp': 'reach'}",46,100,Left,41.279506692166194,49.58362378599972,2.0639753346083096,0.7788577411222843,Left,Correct,0.0,0.0,-45,45,2003,1088,-2.46
"{'cat': 'RB', 'resp': 'reach'}",46,101,Right,57.03461807813161,61.28628507508893,2.8517309039065806,0.9626827147885458,Right,Correct,0.0,0.0,-45,45,2013,866,-0.73
"{'cat': 'RB', 'resp': 'reach'}",46,102,Left,47.71071593717621,74.06836462246888,2.3855357968588105,1.1634631508067919,Right,Incorrect,0.0,0.0,-45,45,2008,1066,-0.72
"{'cat': 'RB', 'resp': 'reach'}",46,103,Left,44.922818941439175,68.20202765044816,2.2461409470719587,1.0713149451328794,Left,Correct,0.0,0.0,-45,45,2006,1067,-2.42
"{'cat': 'RB', 'resp': 'reach'}",46,104,Right,68.62025891200604,39.897903198430576,3.4310129456003016,0.626714797909131,Left,Incorrect,0.0,0.0,-45,45,2009,1337,-2.49
"{'cat': 'RB', 'resp': 'reach'}",46,105,Left,45.9121833566076,20.129394142950982,2.29560916783038,0.316191783803541,Right,Incorrect,0.0,0.0,-45,45,2010,460,-0.73
"{'cat': 'RB', 'resp': 'reach'}",46,106,Left,46.89061366462379,50.49068005717777,2.3445306832311896,0.7931057477119119,Left,Correct,0.0,0.0,-45,45,2005,1051,-2.45
"{'cat': 'RB', 'resp': 'reach'}",46,107,Right,57.59564252546118,70.12416300687326,2.8797821262730587,1.101507776707631,Left,Incorrect,0.0,0.0,-45,45,2014,1474,-2.2
"{'cat': 'RB', 'resp': 'reach'}",46,108,Left,44.52551518556636,67.36724059209057,2.226275759278318,1.058202140683639,Right,Incorrect,0.0,0.0,-45,45,2002,1502,-0.64
"{'cat': 'RB', 'resp': 'reach'}",46,109,Right,59.320500317916334,30.617381473650294,2.966025015895817,0.48093670354888,Right,Correct,0.0,0.0,-45,45,2004,834,-0.75
"{'cat': 'RB', 'resp': 'reach'}",46,110,Right,53.89920938190335,24.40944715778626,2.694960469095167,0.3834226993454478,Left,Incorrect,0.0,0.0,-45,45,2013,979,-2.46
"{'cat': 'RB', 'resp': 'reach'}",46,111,Left,44.7004624367499,44.12714498617542,2.2350231218374947,0.6931475725623019,Right,Incorrect,0.0,0.0,-45,45,2002,491,-0.71
"{'cat': 'RB', 'resp': 'reach'}",46,112,Right,61.932780550307704,39.73709719163834,3.0966390275153852,0.624188863061173,Right,Correct,0.0,0.0,-45,45,2010,1064,-0.77
"{'cat': 'RB', 'resp': 'reach'}",46,113,Left,35.260063452432476,51.72605328431873,1.7630031726216238,0.8125109449860497,Left,Correct,0.0,0.0,-45,45,2002,858,-2.41
"{'cat': 'RB', 'resp': 'reach'}",46,114,Right,65.69839657515008,68.67446996483467,3.284919828757504,1.0787360516534874,Right,Correct,0.0,0.0,-45,45,2011,656,-0.81
"{'cat': 'RB', 'resp': 'reach'}",46,115,Right,61.82380973130407,51.41969928991237,3.091190486565204,0.8076987476949251,Right,Correct,0.0,0.0,-45,45,2009,714,-0.77
"{'cat': 'RB', 'resp': 'reach'}",46,116,Right,64.93115857889248,71.18387227463738,3.2465579289446236,1.1181536509603747,Right,Correct,0.0,0.0,-45,45,2005,663,-0.78
"{'cat': 'RB', 'resp': 'reach'}",46,117,Left,46.06675735246567,35.919030220168175,2.303337867623284,0.5642148073187505,Left,Correct,0.0,0.0,-45,45,2013,850,-2.56
"{'cat': 'RB', 'resp': 'reach'}",46,118,Left,41.8275510591572,27.255452497830817,2.09137755295786,0.4281276466872544,Left,Correct,0.0,0.0,-45,45,2005,860,-2.57
"{'cat': 'RB', 'resp': 'reach'}",46,119,Right,57.69505180516921,47.31962913866394,2.88475259025846,0.7432949963631008,Right,Correct,0.0,0.0,-45,45,2005,569,-0.78
"{'cat': 'RB', 'resp': 'reach'}",46,120,Left,31.6038251045329,33.0286483030425,1.580191255226645,0.5188127943341966,Left,Correct,0.0,0.0,-45,45,2012,747,-2.46
"{'cat': 'RB', 'resp': 'reach'}",46,121,Right,62.75116895576486,55.86604066097385,3.137558447788243,0.8775417146283206,Right,Correct,0.0,0.0,-45,45,2013,535,-0.76
"{'cat': 'RB', 'resp': 'reach'}",46,122,Right,55.24849426730503,41.80765113597003,2.762424713365251,0.6567130483630421,Left,Incorrect,0.0,0.0,-45,45,2007,716,-2.45
"{'cat': 'RB', 'resp': 'reach'}",46,123,Left,38.8267642101415,81.82186731123052,1.941338210507075,1.2852548862398032,Left,Correct,0.0,0.0,-45,45,2008,923,-2.59
"{'cat': 'RB', 'resp': 'reach'}",46,124,Right,50.88951513983391,48.9126542992016,2.544475756991696,0.7683181770697448,Right,Correct,0.0,0.0,-45,45,2009,1092,-0.74
"{'cat': 'RB', 'resp': 'reach'}",46,125,Left,42.167038660985924,65.15626948283382,2.1083519330492964,1.0234722877129379,Left,Correct,0.0,0.0,-45,45,2006,593,-2.42
"{'cat': 'RB', 'resp': 'reach'}",46,126,Right,58.97199597331329,18.318183913681384,2.9485997986656645,0.2877413600516408,Right,Correct,0.0,0.0,-45,45,2004,691,-0.78
"{'cat': 'RB', 'resp': 'reach'}",46,127,Left,45.9326252773564,67.90336118785422,2.29663126386782,1.0666235033090854,Left,Correct,0.0,0.0,-45,45,2008,744,-2.48
"{'cat': 'RB', 'resp': 'reach'}",46,128,Right,55.88251332204763,36.20243858004881,2.794125666102382,0.5686665754255853,Right,Correct,0.0,0.0,-45,45,2004,683,-0.82
"{'cat': 'RB', 'resp': 'reach'}",46,129,Right,67.74500176314135,63.72827466074446,3.387250088157067,1.0010413975007368,Right,Correct,0.0,0.0,-45,45,2002,632,-0.76
"{'cat': 'RB', 'resp': 'reach'}",46,130,Right,69.30563522510496,42.92672205874689,3.4652817612552487,0.6742913733122508,Right,Correct,0.0,0.0,-45,45,2004,666,-0.75
"{'cat': 'RB', 'resp': 'reach'}",46,131,Right,64.32755845482716,47.56900665294621,3.216377922741358,0.747212209197299,Right,Correct,0.0,0.0,-45,45,2008,639,-0.77
"{'cat': 'RB', 'resp': 'reach'}",46,132,Left,38.9247549930296,64.44849993454699,1.9462377496514802,1.0123546696462755,Left,Correct,0.0,0.0,-45,45,2001,569,-2.42
"{'cat': 'RB', 'resp': 'reach'}",46,133,Right,61.68531921866057,68.57260869968755,3.084265960933028,1.0771360186421297,Right,Correct,0.0,0.0,-45,45,2004,643,-0.77
"{'cat': 'RB', 'resp': 'reach'}",46,134,Right,59.40886850852982,24.04376857199428,2.9704434254264913,0.3776786335519519,Right,Correct,0.0,0.0,-45,45,2003,537,-0.84
"{'cat': 'RB', 'resp': 'reach'}",46,135,Left,32.86468668741201,36.852184091957106,1.6432343343706006,0.5788727540601555,Left,Correct,0.0,0.0,-45,45,2013,770,-2.48
"{'cat': 'RB', 'resp': 'reach'}",46,136,Left,41.52426496903183,85.36164337649464,2.076213248451592,1.3408575586497369,Left,Correct,0.0,0.0,-45,45,2008,842,-2.43
"{'cat': 'RB', 'resp': 'reach'}",46,137,Right,55.92301737806833,41.45832658545503,2.7961508689034167,0.6512258711549597,Right,Correct,0.0,0.0,-45,45,2009,663,-0.71
"{'cat': 'RB', 'resp': 'reach'}",46,138,Left,40.83340447564787,49.98368727294596,2.0416702237823934,0.7851419236800834,Left,Correct,0.0,0.0,-45,45,2013,816,-2.36
"{'cat': 'RB', 'resp': 'reach'}",46,139,Right,53.45412065124201,48.516038711858705,2.6727060325621004,0.7620881539922667,Right,Correct,0.0,0.0,-45,45,2014,706,-0.73
"{'cat': 'RB', 'resp': 'reach'}",46,140,Left,39.587665023173486,91.05750351561841,1.9793832511586742,1.4303279204944677,Left,Correct,0.0,0.0,-45,45,2001,809,-2.59
"{'cat': 'RB', 'resp': 'reach'}",46,141,Left,33.11290610504868,61.69058235853728,1.655645305252434,0.969033401666284,Left,Correct,0.0,0.0,-45,45,2006,710,-2.5
"{'cat': 'RB', 'resp': 'reach'}",46,142,Right,57.0840510759953,33.35857696232334,2.8542025537997646,0.5239953015952237,Right,Correct,0.0,0.0,-45,45,2003,557,-0.8
"{'cat': 'RB', 'resp': 'reach'}",46,143,Right,53.666591780633496,49.77836907520251,2.6833295890316746,0.7819167929716877,Right,Correct,0.0,0.0,-45,45,2007,962,-0.75
"{'cat': 'RB', 'resp': 'reach'}",46,144,Left,42.01749904402106,30.421496738195703,2.100874952201053,0.4778597533196074,Left,Correct,0.0,0.0,-45,45,2012,651,-2.46
"{'cat': 'RB', 'resp': 'reach'}",46,145,Left,45.77550063815981,56.79394198855031,2.2887750319079907,0.8921171545981728,Right,Incorrect,0.0,0.0,-45,45,2004,976,-0.69
"{'cat': 'RB', 'resp': 'reach'}",46,146,Right,66.19319985731121,48.79618643853125,3.309659992865561,0.7664887041924383,Right,Correct,0.0,0.0,-45,45,2006,648,-0.77
"{'cat': 'RB', 'resp': 'reach'}",46,147,Right,52.34521166177974,33.62680788023008,2.617260583088987,0.528208663001031,Right,Correct,0.0,0.0,-45,45,2001,1086,-0.69
"{'cat': 'RB', 'resp': 'reach'}",46,148,Right,56.97793076479224,70.17367347317989,2.8488965382396123,1.1022854852937545,Right,Correct,0.0,0.0,-45,45,2005,1275,-0.81
"{'cat': 'RB', 'resp': 'reach'}",46,149,Right,65.86417406726673,21.392046068726454,3.2932087033633364,0.3360254738738272,Right,Correct,0.0,0.0,-45,45,2006,692,-0.73
"{'cat': 'RB', 'resp': 'reach'}",46,150,Left,38.10388017891379,33.53662196313522,1.9051940089456894,0.5267920259280185,Left,Correct,0.0,0.0,-45,45,2005,943,-2.52
"{'cat': 'RB', 'resp': 'reach'}",46,151,Left,34.44060208387832,43.975569188349475,1.7220301041939161,0.6907666254977419,Left,Correct,0.0,0.0,-45,45,2002,767,-2.53
"{'cat': 'RB', 'resp': 'reach'}",46,152,Left,48.27417981922242,30.495097213721845,2.413708990961121,0.47901586688567555,Right,Incorrect,0.0,0.0,-45,45,2004,675,-0.74
"{'cat': 'RB', 'resp': 'reach'}",46,153,Left,44.78204158315835,38.62921380745547,2.239102079157918,0.6067862715572576,Left,Correct,0.0,0.0,-45,45,2004,1297,-2.37
"{'cat': 'RB', 'resp': 'reach'}",46,154,Left,46.84092869060474,37.35530301360082,2.3420464345302374,0.586775727600745,Right,Incorrect,0.0,0.0,-45,45,2004,2212,-0.74
"{'cat': 'RB', 'resp': 'reach'}",46,155,Right,66.69025284858873,21.85160809114268,3.3345126424294365,0.3432442572412856,Right,Correct,0.0,0.0,-45,45,2003,903,-0.68
"{'cat': 'RB', 'resp': 'reach'}",46,156,Right,56.68085885287949,72.7581231415148,2.834042942643974,1.1428819257518221,Right,Correct,0.0,0.0,-45,45,2007,1700,-0.76
"{'cat': 'RB', 'resp': 'reach'}",46,157,Left,40.997710636332286,81.15409122494361,2.049885531816614,1.2747654840051938,Left,Correct,0.0,0.0,-45,45,2004,901,-2.42
"{'cat': 'RB', 'resp': 'reach'}",46,158,Left,45.72119303336598,34.44195630420206,2.2860596516682987,0.5410129845027093,Left,Correct,0.0,0.0,-45,45,2003,1109,-2.46
"{'cat': 'RB', 'resp': 'reach'}",46,159,Right,61.106374226234706,69.40670395133618,3.0553187113117355,1.0902379562169973,Left,Incorrect,0.0,0.0,-45,45,2002,1694,-2.43
"{'cat': 'RB', 'resp': 'reach'}",46,160,Left,38.06972711563374,16.467759031135856,1.9034863557816868,0.25867495396651685,Left,Correct,0.0,0.0,-45,45,2002,1271,-2.37
"{'cat': 'RB', 'resp': 'reach'}",46,161,Left,40.07801510246957,33.43720787972122,2.0039007551234786,0.5252304331574346,Left,Correct,0.0,0.0,-45,45,2001,887,-2.46
"{'cat': 'RB', 'resp': 'reach'}",46,162,Right,55.283348971138025,29.242562551839143,2.7641674485569014,0.4593410984249892,Right,Correct,0.0,0.0,-45,45,2008,675,-0.82
"{'cat': 'RB', 'resp': 'reach'}",46,163,Left,40.64410996897451,30.731761786346425,2.0322054984487257,0.4827333852992874,Left,Correct,0.0,0.0,-45,45,2006,694,-2.55
"{'cat': 'RB', 'resp': 'reach'}",46,164,Left,33.49181513110645,44.49587109204846,1.6745907565553224,0.6989395086892896,Left,Correct,0.0,0.0,-45,45,2008,700,-2.52
"{'cat': 'RB', 'resp': 'reach'}",46,165,Left,41.67906086468509,51.688170336457745,2.0839530432342546,0.8119158810325676,Left,Correct,0.0,0.0,-45,45,2008,739,-2.45
"{'cat': 'RB', 'resp': 'reach'}",46,166,Right,60.842818275484206,75.43102167119935,3.0421409137742104,1.1848677176750615,Right,Correct,0.0,0.0,-45,45,2002,770,-0.69
"{'cat': 'RB', 'resp': 'reach'}",46,167,Left,39.1933463722327,72.68621620992805,1.9596673186116351,1.1417524143117463,Left,Correct,0.0,0.0,-45,45,2009,1096,-2.45
"{'cat': 'RB', 'resp': 'reach'}",46,168,Left,40.82437191507927,56.64119219219954,2.0412185957539632,0.8897177664079081,Left,Correct,0.0,0.0,-45,45,2004,803,-2.45
"{'cat': 'RB', 'resp': 'reach'}",46,169,Left,42.33242148941915,69.20939287927953,2.1166210744709573,1.0871386011447717,Left,Correct,0.0,0.0,-45,45,2007,718,-2.47
"{'cat': 'RB', 'resp': 'reach'}",46,170,Right,58.54001281530575,23.691990628936693,2.9270006407652875,0.3721529185439287,Right,Correct,0.0,0.0,-45,45,2006,723,-0.75
"{'cat': 'RB', 'resp': 'reach'}",46,171,Right,58.27649094786485,43.794611968548,2.9138245473932427,0.6879241561360301,Right,Correct,0.0,0.0,-45,45,2010,736,-0.79
"{'cat': 'RB', 'resp': 'reach'}",46,172,Left,35.03075867802032,70.95542417739172,1.7515379339010162,1.114565196640207,Left,Correct,0.0,0.0,-45,45,2002,720,-2.52
"{'cat': 'RB', 'resp': 'reach'}",46,173,Right,62.64591422289247,79.09401553494452,3.1322957111446237,1.2424058907374933,Right,Correct,0.0,0.0,-45,45,2005,616,-0.68
"{'cat': 'RB', 'resp': 'reach'}",46,174,Left,41.11817173627831,74.42143490272876,2.0559085868139158,1.1690091658001185,Left,Correct,0.0,0.0,-45,45,2009,874,-2.49
"{'cat': 'RB', 'resp': 'reach'}",46,175,Left,36.828039752510385,79.33631110946284,1.8414019876255194,1.2462118607220138,Left,Correct,0.0,0.0,-45,45,2013,760,-2.42
"{'cat': 'RB', 'resp': 'reach'}",46,176,Left,46.05117890797118,65.38462636538546,2.302558945398559,1.0270593092360423,Left,Correct,0.0,0.0,-45,45,2003,1574,-2.26
"{'cat': 'RB', 'resp': 'reach'}",46,177,Left,39.24500879219577,28.666571431817115,1.9622504396097884,0.45029345106901847,Left,Correct,0.0,0.0,-45,45,2012,905,-2.34
"{'cat': 'RB', 'resp': 'reach'}",46,178,Left,37.673389112616036,73.09570291562297,1.8836694556308018,1.1481846164435157,Left,Correct,0.0,0.0,-45,45,2008,981,-2.41
"{'cat': 'RB', 'resp': 'reach'}",46,179,Right,63.36196480469973,44.377585532760314,3.1680982402349867,0.6970814834688623,Right,Correct,0.0,0.0,-45,45,2005,621,-0.75
"{'cat': 'RB', 'resp': 'reach'}",46,180,Right,64.40578741402318,66.47608230044014,3.220289370701159,1.044203858972466,Right,Correct,0.0,0.0,-45,45,2003,703,-0.74
"{'cat': 'RB', 'resp': 'reach'}",46,181,Right,63.992657277872276,25.77192146633449,3.199632863893614,0.40482439573764756,Right,Correct,0.0,0.0,-45,45,2009,678,-0.65
"{'cat': 'RB', 'resp': 'reach'}",46,182,Right,64.31026739297883,77.08080590084937,3.2155133696489417,1.2107824677544459,Right,Correct,0.0,0.0,-45,45,2009,625,-0.72
"{'cat': 'RB', 'resp': 'reach'}",46,183,Right,61.58286448537308,49.634169650794334,3.079143224268654,0.7796517137098246,Right,Correct,0.0,0.0,-45,45,2009,649,-0.69
"{'cat': 'RB', 'resp': 'reach'}",46,184,Right,65.20770707731698,66.31972058716735,3.260385353865849,1.0417477349238635,Right,Correct,0.0,0.0,-45,45,2008,587,-0.68
"{'cat': 'RB', 'resp': 'reach'}",46,185,Left,30.787559605945063,48.73335693885283,1.5393779802972531,0.7655017807193462,Left,Correct,0.0,0.0,-45,45,2007,763,-2.53
"{'cat': 'RB', 'resp': 'reach'}",46,186,Right,60.18930505332342,35.09718553986784,3.009465252666171,0.5513053012686335,Right,Correct,0.0,0.0,-45,45,2005,737,-0.7
"{'cat': 'RB', 'resp': 'reach'}",46,187,Left,36.65813258542934,88.21635458793892,1.832906629271467,1.3856992574997058,Left,Correct,0.0,0.0,-45,45,2005,797,-2.43
"{'cat': 'RB', 'resp': 'reach'}",46,188,Left,43.727769993036425,34.28359451511205,2.1863884996518212,0.5385254433366367,Left,Correct,0.0,0.0,-45,45,2003,775,-2.63
"{'cat': 'RB', 'resp': 'reach'}",46,189,Left,38.81385556840763,16.689510143604878,1.9406927784203816,0.26215821229580705,Left,Correct,0.0,0.0,-45,45,2004,1438,-2.57
"{'cat': 'RB', 'resp': 'reach'}",46,190,Left,31.17187574513898,45.86768295104073,1.558593787256949,0.7204878789808767,Left,Correct,0.0,0.0,-45,45,2008,685,-2.41
"{'cat': 'RB', 'resp': 'reach'}",46,191,Left,41.15757940469662,33.18150237938306,2.057878970234831,0.5212138205507104,Left,Correct,0.0,0.0,-45,45,2009,1128,-2.36
"{'cat': 'RB', 'resp': 'reach'}",46,192,Right,60.423379447608106,79.88644585793679,3.021168972380405,1.254853357143465,Right,Correct,0.0,0.0,-45,45,2004,758,-0.76
"{'cat': 'RB', 'resp': 'reach'}",46,193,Left,39.37826802949819,47.72180675290845,1.9689134014749095,0.7496123875548447,Left,Correct,0.0,0.0,-45,45,2013,784,-2.42
"{'cat': 'RB', 'resp': 'reach'}",46,194,Left,40.22000668375852,70.51381999997933,2.011000334187926,1.1076284944424406,Left,Correct,0.0,0.0,-45,45,2012,857,-2.44
"{'cat': 'RB', 'resp': 'reach'}",46,195,Right,57.23708907333047,61.38738586576202,2.8618544536665236,0.9642708022947993,Right,Correct,0.0,0.0,-45,45,2006,569,-0.81
"{'cat': 'RB', 'resp': 'reach'}",46,196,Right,53.132534459984456,25.187437561075875,2.656626722999223,0.395643344023138,Right,Correct,0.0,0.0,-45,45,2005,586,-0.78
"{'cat': 'RB', 'resp': 'reach'}",46,197,Right,66.35984389665585,30.406384571316448,3.317992194832792,0.4776223719573689,Right,Correct,0.0,0.0,-45,45,2009,678,-0.78
"{'cat': 'RB', 'resp': 'reach'}",46,198,Right,67.67657672654705,26.51705341828758,3.383828836327353,0.4165289010687019,Right,Correct,0.0,0.0,-45,45,2003,606,-0.67
"{'cat': 'RB', 'resp': 'reach'}",46,199,Right,64.04506015731064,16.18812567181302,3.2022530078655325,0.25428248342978055,Right,Correct,0.0,0.0,-45,45,2007,601,-0.67
"{'cat': 'RB', 'resp': 'reach'}",46,200,Left,47.283435852844896,57.98608304712219,2.3641717926422445,0.9108432625564337,Left,Correct,0.0,0.0,-45,45,2004,752,-2.5
"{'cat': 'RB', 'resp': 'reach'}",46,201,Left,46.851234767977665,45.22236245876904,2.3425617383988833,0.7103512083922183,Left,Correct,0.0,0.0,-45,45,2007,795,-2.46
"{'cat': 'RB', 'resp': 'reach'}",46,202,Left,37.3057299122146,36.0213679929496,1.86528649561073,0.5658223252945248,Left,Correct,0.0,0.0,-45,45,2009,708,-2.42
"{'cat': 'RB', 'resp': 'reach'}",46,203,Left,32.56372233264723,43.52567372513448,1.6281861166323615,0.6836996840871439,Left,Correct,0.0,0.0,-45,45,2009,574,-2.54
"{'cat': 'RB', 'resp': 'reach'}",46,204,Left,41.3323435657035,42.71367984045019,2.066617178285175,0.6709449139727237,Left,Correct,0.0,0.0,-45,45,2008,736,-2.48
"{'cat': 'RB', 'resp': 'reach'}",46,205,Right,69.1001317549576,41.21746761747563,3.45500658774788,0.647442467333183,Right,Correct,0.0,0.0,-45,45,2009,593,-0.76
"{'cat': 'RB', 'resp': 'reach'}",46,206,Right,59.94848464371562,79.08584406099313,2.997424232185781,1.24227753352482,Left,Incorrect,0.0,0.0,-45,45,2004,1138,-2.51
"{'cat': 'RB', 'resp': 'reach'}",46,207,Right,63.0216219751858,84.1547554025237,3.15108109875929,1.321899806686072,Right,Correct,0.0,0.0,-45,45,2003,1149,-0.77
"{'cat': 'RB', 'resp': 'reach'}",46,208,Right,56.07071061271447,36.26410117952377,2.8035355306357235,0.5696351692731442,Right,Correct,0.0,0.0,-45,45,2009,758,-0.75
"{'cat': 'RB', 'resp': 'reach'}",46,209,Left,38.1177145029643,89.70868165742814,1.9058857251482149,1.4091406762910084,Left,Correct,0.0,0.0,-45,45,2004,651,-2.54
"{'cat': 'RB', 'resp': 'reach'}",46,210,Right,59.146674333898524,56.58782588318823,2.9573337166949263,0.8888794903862125,Right,Correct,0.0,0.0,-45,45,2008,623,-0.89
"{'cat': 'RB', 'resp': 'reach'}",46,211,Left,35.6866301132964,18.5579637065343,1.7843315056648203,0.2915078122301708,Left,Correct,0.0,0.0,-45,45,2007,620,-2.55
"{'cat': 'RB', 'resp': 'reach'}",46,212,Right,62.00983162241061,73.63247834050169,3.1004915811205302,1.1566162651006484,Right,Correct,0.0,0.0,-45,45,2007,642,-0.77
"{'cat': 'RB', 'resp': 'reach'}",46,213,Right,61.48528920182638,32.017742336230654,3.074264460091319,0.5029335205401656,Right,Correct,0.0,0.0,-45,45,2008,612,-0.78
"{'cat': 'RB', 'resp': 'reach'}",46,214,Left,45.75052689582245,39.377034821829994,2.2875263447911225,0.618533016582053,Left,Correct,0.0,0.0,-45,45,2013,683,-2.52
"{'cat': 'RB', 'resp': 'reach'}",46,215,Right,57.24657752154408,82.44627831663831,2.862328876077204,1.2950631113768518,Right,Correct,0.0,0.0,-45,45,2007,912,-0.8
"{'cat': 'RB', 'resp': 'reach'}",46,216,Right,56.43457902272969,70.7056368818254,2.8217289511364845,1.1106415469766509,Right,Correct,0.0,0.0,-45,45,2008,707,-0.87
"{'cat': 'RB', 'resp': 'reach'}",46,217,Right,61.44870479955529,32.80626966315995,3.0724352399777644,0.515319678827345,Right,Correct,0.0,0.0,-45,45,2012,701,-0.85
"{'cat': 'RB', 'resp': 'reach'}",46,218,Left,38.4799469493874,49.49196749091644,1.92399734746937,0.7774180074058398,Left,Correct,0.0,0.0,-45,45,2008,848,-2.44
"{'cat': 'RB', 'resp': 'reach'}",46,219,Right,68.71819320681706,52.93313029222891,3.435909660340853,0.8314716662878884,Right,Correct,0.0,0.0,-45,45,2001,574,-0.77
"{'cat': 'RB', 'resp': 'reach'}",46,220,Left,32.054226585339514,50.64794764900195,1.6027113292669757,0.7955761012675249,Left,Correct,0.0,0.0,-45,45,2003,751,-2.51
"{'cat': 'RB', 'resp': 'reach'}",46,221,Left,37.422206543836076,46.29397911683578,1.8711103271918037,0.7271841234944528,Left,Correct,0.0,0.0,-45,45,2012,846,-2.55
"{'cat': 'RB', 'resp': 'reach'}",46,222,Left,44.55565885423496,83.159295801401,2.227782942711748,1.3062631638369095,Left,Correct,0.0,0.0,-45,45,2004,812,-2.57
"{'cat': 'RB', 'resp': 'reach'}",46,223,Left,42.22775453348057,25.431631372479192,2.1113877266740286,0.3994791314429217,Left,Correct,0.0,0.0,-45,45,2010,718,-2.44
"{'cat': 'RB', 'resp': 'reach'}",46,224,Left,46.636502228597514,24.59779211286516,2.331825111429876,0.3863812149815307,Left,Correct,0.0,0.0,-45,45,2007,893,-2.48
"{'cat': 'RB', 'resp': 'reach'}",46,225,Left,40.960080454721094,40.117521382474685,2.0480040227360545,0.6301645522770696,Left,Correct,0.0,0.0,-45,45,2001,987,-2.51
"{'cat': 'RB', 'resp': 'reach'}",46,226,Right,58.458497356043495,72.63964260798188,2.9229248678021746,1.14102083788312,Right,Correct,0.0,0.0,-45,45,2013,785,-0.76
"{'cat': 'RB', 'resp': 'reach'}",46,227,Right,50.69865985018994,46.45808927227956,2.5349329925094968,0.7297619597880611,Right,Correct,0.0,0.0,-45,45,2008,689,-0.74
"{'cat': 'RB', 'resp': 'reach'}",46,228,Left,42.30505351919356,79.3968545078379,2.115252675959678,1.2471628741998058,Left,Correct,0.0,0.0,-45,45,2010,685,-2.5
"{'cat': 'RB', 'resp': 'reach'}",46,229,Left,42.87851736505561,86.92776741577214,2.1439258682527806,1.3654581775317598,Right,Incorrect,0.0,0.0,-45,45,2007,1183,-0.75
"{'cat': 'RB', 'resp': 'reach'}",46,230,Left,33.40731232327781,76.05890323523576,1.6703656161638905,1.194730458219568,Left,Correct,0.0,0.0,-45,45,2004,809,-2.58
"{'cat': 'RB', 'resp': 'reach'}",46,231,Right,54.74838863347435,67.86133303630471,2.7374194316737173,1.0659633266483262,Right,Correct,0.0,0.0,-45,45,2002,649,-0.83
"{'cat': 'RB', 'resp': 'reach'}",46,232,Right,54.004563228925456,57.53877733312229,2.7002281614462724,0.9038170008313795,Right,Correct,0.0,0.0,-45,45,2008,597,-0.76
"{'cat': 'RB', 'resp': 'reach'}",46,233,Right,58.927683307367005,45.03497376951409,2.9463841653683507,0.7074077137445726,Left,Incorrect,0.0,0.0,-45,45,2007,2842,-2.54
"{'cat': 'RB', 'resp': 'reach'}",46,234,Left,40.10884015564828,29.407812467883804,2.005442007782414,0.46193683803625046,Left,Correct,0.0,0.0,-45,45,2007,906,-2.57
"{'cat': 'RB', 'resp': 'reach'}",46,235,Left,46.50530324488913,31.223520338971923,2.3252651622444565,0.4904579105806284,Left,Correct,0.0,0.0,-45,45,2008,951,-2.48
"{'cat': 'RB', 'resp': 'reach'}",46,236,Left,37.378694921313105,38.294470398840176,1.8689347460656551,0.6015281343905404,Left,Correct,0.0,0.0,-45,45,2009,683,-2.61
"{'cat': 'RB', 'resp': 'reach'}",46,237,Left,43.92594201444965,85.82980512547599,2.1962971007224827,1.3482114262061944,Left,Correct,0.0,0.0,-45,45,2013,663,-2.61
"{'cat': 'RB', 'resp': 'reach'}",46,238,Right,61.79191359208161,67.20819076776667,3.089595679604081,1.0557037918853855,Right,Correct,0.0,0.0,-45,45,2008,675,-0.78
"{'cat': 'RB', 'resp': 'reach'}",46,239,Left,41.140299696911896,18.06467026022084,2.0570149848455945,0.28375917689515906,Left,Correct,0.0,0.0,-45,45,2008,884,-2.41
"{'cat': 'RB', 'resp': 'reach'}",46,240,Right,67.53207193459951,74.6991758463175,3.376603596729976,1.173371910340016,Right,Correct,0.0,0.0,-45,45,2003,678,-0.8
"{'cat': 'RB', 'resp': 'reach'}",46,241,Right,60.444604853533406,47.74028647371528,3.0222302426766703,0.7499026663304805,Right,Correct,0.0,0.0,-45,45,2012,743,-0.75
"{'cat': 'RB', 'resp': 'reach'}",46,242,Left,40.90679026506848,39.65375543310514,2.045339513253424,0.6228797337794473,Left,Correct,0.0,0.0,-45,45,2005,737,-2.64
"{'cat': 'RB', 'resp': 'reach'}",46,243,Right,62.90033121644244,17.903410619304935,3.145016560822122,0.2812261163790494,Right,Correct,0.0,0.0,-45,45,2009,737,-0.74
"{'cat': 'RB', 'resp': 'reach'}",46,244,Right,64.34850341111945,21.656688486986088,3.2174251705559724,0.3401824672589907,Right,Correct,0.0,0.0,-45,45,2005,625,-0.79
"{'cat': 'RB', 'resp': 'reach'}",46,245,Right,58.13862859007726,83.19764787862968,2.906931429503863,1.3068655968572673,Left,Incorrect,0.0,0.0,-45,45,2002,692,-2.53
"{'cat': 'RB', 'resp': 'reach'}",46,246,Right,52.36394117552747,64.98114181793079,2.618197058776374,1.0207213887854394,Right,Correct,0.0,0.0,-45,45,2001,1373,-0.73
"{'cat': 'RB', 'resp': 'reach'}",46,247,Right,59.98973768918825,45.179678678436005,2.999486884459413,0.7096807331386098,Right,Correct,0.0,0.0,-45,45,2001,638,-0.79
"{'cat': 'RB', 'resp': 'reach'}",46,248,Right,65.26662914386117,56.898066219237585,3.2633314571930585,0.8937527341891118,Right,Correct,0.0,0.0,-45,45,2013,660,-0.77
"{'cat': 'RB', 'resp': 'reach'}",46,249,Right,60.621475930210835,33.44869679127206,3.031073796510542,0.525410900558064,Right,Correct,0.0,0.0,-45,45,2002,516,-0.83
"{'cat': 'RB', 'resp': 'reach'}",46,250,Right,67.77793337916205,51.469465590343965,3.3888966689581026,0.8084804749140863,Right,Correct,0.0,0.0,-45,45,2007,661,-0.77
"{'cat': 'RB', 'resp': 'reach'}",46,251,Right,66.61916641010015,24.898245313104535,3.3309583205050073,0.39110072281462843,Right,Correct,0.0,0.0,-45,45,2005,532,-0.76
"{'cat': 'RB', 'resp': 'reach'}",46,252,Right,54.25904331370745,48.00451428642827,2.712952165685373,0.7540531471069465,Left,Incorrect,0.0,0.0,-45,45,2008,838,-2.48
"{'cat': 'RB', 'resp': 'reach'}",46,253,Left,39.74915158756164,63.39585736359889,1.987457579378082,0.9958197988075432,Left,Correct,0.0,0.0,-45,45,2008,860,-2.58
"{'cat': 'RB', 'resp': 'reach'}",46,254,Left,33.32379087581083,47.114356022760745,1.6661895437905414,0.7400705737985959,Right,Incorrect,0.0,0.0,-45,45,2002,827,2.93
"{'cat': 'RB', 'resp': 'reach'}",46,255,Left,42.75824182697673,15.320362662734496,2.1379120913488365,0.24065169395789024,Right,Incorrect,0.0,0.0,-45,45,2008,1277,-0.8
"{'cat': 'RB', 'resp': 'reach'}",46,256,Left,34.497450504250125,68.83755875820349,1.7248725252125063,1.081297844429139,Left,Correct,0.0,0.0,-45,45,2001,746,-2.5
"{'cat': 'RB', 'resp': 'reach'}",46,257,Right,55.30157039838504,25.500932574508994,2.7650785199192516,0.40056771217883047,Right,Correct,0.0,0.0,-45,45,2008,686,-0.72
"{'cat': 'RB', 'resp': 'reach'}",46,258,Right,68.07603381594741,67.44597355950395,3.403801690797371,1.0594388752437454,Right,Correct,0.0,0.0,-45,45,2003,1185,-0.78
"{'cat': 'RB', 'resp': 'reach'}",46,259,Left,35.749000494004285,19.224547729262536,1.7874500247002143,0.3019784895741876,Left,Correct,0.0,0.0,-45,45,2005,727,-2.58
"{'cat': 'RB', 'resp': 'reach'}",46,260,Left,32.50968124129902,64.6628950712044,1.6254840620649509,1.0157223805777171,Left,Correct,0.0,0.0,-45,45,2012,802,-2.37
"{'cat': 'RB', 'resp': 'reach'}",46,261,Left,43.055075578724555,28.956612610144273,2.1527537789362277,0.454849407244374,Right,Incorrect,0.0,0.0,-45,45,2013,853,-0.83
"{'cat': 'RB', 'resp': 'reach'}",46,262,Left,41.1475932663519,19.80687452376606,2.0573796633175947,0.3111256574721914,Left,Correct,0.0,0.0,-45,45,2009,1849,-2.4
"{'cat': 'RB', 'resp': 'reach'}",46,263,Right,66.85993096739774,31.161117234238045,3.3429965483698876,0.48947768490366267,Right,Correct,0.0,0.0,-45,45,2012,746,-0.79
"{'cat': 'RB', 'resp': 'reach'}",46,264,Left,48.5968177354276,49.62164042708706,2.42984088677138,0.779454905124055,Left,Correct,0.0,0.0,-45,45,2002,792,-2.45
"{'cat': 'RB', 'resp': 'reach'}",46,265,Right,59.08844984311772,18.5176487786485,2.9544224921558864,0.29087454682379066,Right,Correct,0.0,0.0,-45,45,2009,588,-0.78
"{'cat': 'RB', 'resp': 'reach'}",46,266,Left,41.73868987902749,67.28082018603561,2.0869344939513748,1.0568446521197268,Left,Correct,0.0,0.0,-45,45,2010,728,-2.56
"{'cat': 'RB', 'resp': 'reach'}",46,267,Left,42.75430427606984,43.87584729563195,2.137715213803492,0.6892001976699247,Left,Correct,0.0,0.0,-45,45,2004,760,-2.4
"{'cat': 'RB', 'resp': 'reach'}",46,268,Left,37.642561995110405,50.30980032197718,1.8821280997555203,0.7902644954754646,Left,Correct,0.0,0.0,-45,45,2005,702,-2.6
"{'cat': 'RB', 'resp': 'reach'}",46,269,Left,35.46406094297671,46.84009576162315,1.7732030471488356,0.7357625036907884,Left,Correct,0.0,0.0,-45,45,2003,743,-2.6
"{'cat': 'RB', 'resp': 'reach'}",46,270,Right,56.82757569155303,77.97673895590984,2.8413787845776515,1.2248557512738767,Right,Correct,0.0,0.0,-45,45,2003,703,-0.88
"{'cat': 'RB', 'resp': 'reach'}",46,271,Right,61.83810855096638,47.011930992098264,3.0919054275483187,0.7384616851792312,Right,Correct,0.0,0.0,-45,45,2012,588,-0.81
"{'cat': 'RB', 'resp': 'reach'}",46,272,Left,38.51357935526442,43.55093166396044,1.9256789677632211,0.6840964348624461,Left,Correct,0.0,0.0,-45,45,2001,667,-2.65
"{'cat': 'RB', 'resp': 'reach'}",46,273,Left,48.128827754164625,31.92709259219448,2.4064413877082313,0.5015095976905964,Right,Incorrect,0.0,0.0,-45,45,2006,2083,-0.77
"{'cat': 'RB', 'resp': 'reach'}",46,274,Right,67.10478740717804,59.63171279790502,3.355239370358902,0.9366927542343743,Right,Correct,0.0,0.0,-45,45,2002,2568,-0.72
"{'cat': 'RB', 'resp': 'reach'}",46,275,Right,56.06013840051309,70.57633965594718,2.803006920025654,1.1086105509019082,Left,Incorrect,0.0,0.0,-45,45,2005,1101,-2.32
"{'cat': 'RB', 'resp': 'reach'}",46,276,Right,51.993095443443785,46.603764525300676,2.599654772172189,0.7320502213115662,Left,Incorrect,0.0,0.0,-45,45,2012,1128,-2.43
"{'cat': 'RB', 'resp': 'reach'}",46,277,Left,42.546439041438454,48.29326743856506,2.1273219520719224,0.7585888710142157,Left,Correct,0.0,0.0,-45,45,2001,808,-2.52
"{'cat': 'RB', 'resp': 'reach'}",46,278,Right,61.43986177545962,41.19875523158387,3.071993088772981,0.6471485338629397,Right,Correct,0.0,0.0,-45,45,2006,647,-0.8
"{'cat': 'RB', 'resp': 'reach'}",46,279,Left,31.816862536088763,60.93851475817779,1.590843126804438,0.9572199514248225,Left,Correct,0.0,0.0,-45,45,2003,665,-2.53
"{'cat': 'RB', 'resp': 'reach'}",46,280,Right,59.34071411501401,85.8361935873757,2.9670357057507006,1.3483117759310541,Right,Correct,0.0,0.0,-45,45,2007,612,-0.88
"{'cat': 'RB', 'resp': 'reach'}",46,281,Left,36.86713976256781,80.71396564465526,1.8433569881283904,1.2678520075567394,Left,Correct,0.0,0.0,-45,45,2007,703,-2.45
"{'cat': 'RB', 'resp': 'reach'}",46,282,Left,42.58021351722788,33.98132842010086,2.129010675861394,0.5337774586190546,Right,Incorrect,0.0,0.0,-45,45,2004,1867,-0.94
"{'cat': 'RB', 'resp': 'reach'}",46,283,Right,51.51463842908653,59.28856421834294,2.5757319214543264,0.9313025889511641,Right,Correct,0.0,0.0,-45,45,2003,785,-0.75
"{'cat': 'RB', 'resp': 'reach'}",46,284,Right,54.82128248696619,15.454043760862348,2.741064124348309,0.24275155173690166,Right,Correct,0.0,0.0,-45,45,2006,738,-0.68
"{'cat': 'RB', 'resp': 'reach'}",46,285,Left,39.21048739127374,77.14665868376542,1.960524369563687,1.2118168808495833,Left,Correct,0.0,0.0,-45,45,2009,662,-2.45
"{'cat': 'RB', 'resp': 'reach'}",46,286,Right,63.647626068416756,54.83207381322499,3.1823813034208377,0.8613002013636044,Right,Correct,0.0,0.0,-45,45,2001,700,-0.71
"{'cat': 'RB', 'resp': 'reach'}",46,287,Left,38.556253504685564,64.18584166840533,1.9278126752342784,1.008228843249699,Left,Correct,0.0,0.0,-45,45,2001,767,-2.36
"{'cat': 'RB', 'resp': 'reach'}",46,288,Right,68.86887083361847,64.07081894556796,3.4434435416809235,1.0064220705443903,Right,Correct,0.0,0.0,-45,45,2008,721,-0.85
"{'cat': 'RB', 'resp': 'reach'}",46,289,Right,51.960229608646166,29.688398225505768,2.5980114804323087,0.46634426881048585,Left,Incorrect,0.0,0.0,-45,45,2008,747,-2.46
"{'cat': 'RB', 'resp': 'reach'}",46,290,Left,36.963073036006186,38.98576774929963,1.8481536518003094,0.6123870077787881,Left,Correct,0.0,0.0,-45,45,2012,706,-2.45
"{'cat': 'RB', 'resp': 'reach'}",46,291,Right,57.33302993383028,83.53636981126226,2.8666514966915138,1.3121862285331085,Right,Correct,0.0,0.0,-45,45,2004,701,-0.91
"{'cat': 'RB', 'resp': 'reach'}",46,292,Right,65.70270732285579,44.10765058344175,3.285135366142789,0.6928413552002308,Right,Correct,0.0,0.0,-45,45,2009,781,-0.82
"{'cat': 'RB', 'resp': 'reach'}",46,293,Right,54.93119982993946,30.312495091685005,2.7465599914969734,0.47614755946007137,Right,Correct,0.0,0.0,-45,45,2013,785,-0.84
"{'cat': 'RB', 'resp': 'reach'}",46,294,Left,39.16170261615037,50.68593831276827,1.9580851308075184,0.7961728572184912,Left,Correct,0.0,0.0,-45,45,2007,771,-2.7
"{'cat': 'RB', 'resp': 'reach'}",46,295,Right,60.87946911016561,90.18614214043293,3.0439734555082807,1.4166406080199447,Right,Correct,0.0,0.0,-45,45,2003,565,-0.84
"{'cat': 'RB', 'resp': 'reach'}",46,296,Right,56.91821106480228,29.75965722549389,2.845910553240114,0.46746360256481,Right,Correct,0.0,0.0,-45,45,2002,551,-0.76
"{'cat': 'RB', 'resp': 'reach'}",46,297,Left,41.372837554915016,36.991006261856406,2.0686418777457507,0.5810533676057106,Left,Correct,0.0,0.0,-45,45,2004,728,-2.49
"{'cat': 'RB', 'resp': 'reach'}",46,298,Left,38.06303007719248,53.54988606479712,1.903151503859624,0.8411596433086853,Left,Correct,0.0,0.0,-45,45,2012,781,-2.43
"{'cat': 'RB', 'resp': 'reach'}",46,299,Right,52.607900471309534,38.61665889263934,2.630395023565477,0.6065890594164935,Right,Correct,0.0,0.0,-45,45,2002,630,-0.75
"{'cat': 'RB', 'resp': 'reach'}",46,300,Right,57.85552150462855,44.62335079521824,2.8927760752314278,0.7009419551840895,Right,Correct,0.0,0.0,-45,45,2003,648,-0.8
"{'cat': 'RB', 'resp': 'reach'}",46,301,Right,63.278367840967896,88.38057799350649,3.163918392048395,1.3882788727220987,Right,Correct,0.0,0.0,-45,45,2006,860,-0.72
"{'cat': 'RB', 'resp': 'reach'}",46,302,Right,62.046635519414316,82.85506199567445,3.1023317759707156,1.3014842703916887,Right,Correct,0.0,0.0,-45,45,2006,700,-0.76
"{'cat': 'RB', 'resp': 'reach'}",46,303,Right,53.475917039098704,63.26764059390908,2.673795851954935,0.9938057744989207,Right,Correct,0.0,0.0,-45,45,2007,696,-0.9
"{'cat': 'RB', 'resp': 'reach'}",46,304,Right,60.9567040789778,57.76798761161185,3.0478352039488903,0.9074174274665298,Right,Correct,0.0,0.0,-45,45,2009,574,-0.8
"{'cat': 'RB', 'resp': 'reach'}",46,305,Right,51.88879699513754,67.97513026387998,2.5944398497568772,1.0677508493190726,Left,Incorrect,0.0,0.0,-45,45,2002,1242,-2.32
"{'cat': 'RB', 'resp': 'reach'}",46,306,Right,56.46583785948051,52.312623035406574,2.823291892974025,0.8217247610902274,Right,Correct,0.0,0.0,-45,45,2008,820,-0.79
"{'cat': 'RB', 'resp': 'reach'}",46,307,Left,38.84562792945541,35.868129888299,1.9422813964727705,0.5634152667754232,Left,Correct,0.0,0.0,-45,45,2003,1161,-2.39
"{'cat': 'RB', 'resp': 'reach'}",46,308,Left,34.532000345990426,79.17671289927796,1.726600017299521,1.2437048978987992,Left,Correct,0.0,0.0,-45,45,2012,721,-2.51
"{'cat': 'RB', 'resp': 'reach'}",46,309,Left,33.60633762373806,60.83160418622268,1.680316881186903,0.9555406040875963,Left,Correct,0.0,0.0,-45,45,2007,1118,-2.44
"{'cat': 'RB', 'resp': 'reach'}",46,310,Right,58.155073615959864,42.55032884279845,2.907753680797993,0.6683790025018276,Right,Correct,0.0,0.0,-45,45,2007,649,-0.85
"{'cat': 'RB', 'resp': 'reach'}",46,311,Left,44.0158807130955,79.98167308025057,2.200794035654775,1.2563491828536786,Left,Correct,0.0,0.0,-45,45,2008,654,-2.43
"{'cat': 'RB', 'resp': 'reach'}",46,312,Right,54.71564440350042,44.0978024307631,2.735782220175021,0.6926866607796974,Right,Correct,0.0,0.0,-45,45,2009,665,-0.77
"{'cat': 'RB', 'resp': 'reach'}",46,313,Right,59.37681298315413,29.058520563708274,2.9688406491577064,0.45645017363566925,Right,Correct,0.0,0.0,-45,45,2008,610,-0.7
"{'cat': 'RB', 'resp': 'reach'}",46,314,Left,40.02394519525855,38.585078474770484,2.001197259762927,0.6060929953726231,Left,Correct,0.0,0.0,-45,45,2006,634,-2.52
"{'cat': 'RB', 'resp': 'reach'}",46,315,Left,38.568816012441474,36.05800495918972,1.9284408006220735,0.5663978174144737,Left,Correct,0.0,0.0,-45,45,2012,659,-2.49
"{'cat': 'RB', 'resp': 'reach'}",46,316,Left,39.11603171299735,60.88266847781688,1.9558015856498674,0.9563427201042619,Left,Correct,0.0,0.0,-45,45,2003,822,-2.51
"{'cat': 'RB', 'resp': 'reach'}",46,317,Left,35.438884433664974,31.791088284603358,1.7719442216832488,0.4993732470226722,Left,Correct,0.0,0.0,-45,45,2010,694,-2.46
"{'cat': 'RB', 'resp': 'reach'}",46,318,Right,54.60782290957945,20.61958314969717,2.730391145478972,0.32389165471586256,Right,Correct,0.0,0.0,-45,45,2004,638,-0.81
"{'cat': 'RB', 'resp': 'reach'}",46,319,Left,41.363588286208085,84.71758479603072,2.0681794143104044,1.3307407101254023,Left,Correct,0.0,0.0,-45,45,2008,741,-2.43
"{'cat': 'RB', 'resp': 'reach'}",46,320,Left,48.427499914261496,61.777455782061395,2.421374995713075,0.9703980062119618,Right,Incorrect,0.0,0.0,-45,45,2006,1414,-0.72
"{'cat': 'RB', 'resp': 'reach'}",46,321,Left,31.414801812704802,43.78370808976661,1.5707400906352402,0.687752878408654,Left,Correct,0.0,0.0,-45,45,2004,1407,-2.33
"{'cat': 'RB', 'resp': 'reach'}",46,322,Left,34.2754561598388,19.359925132215235,1.7137728079919399,0.3041049928470789,Left,Correct,0.0,0.0,-45,45,2001,2765,-2.48
"{'cat': 'RB', 'resp': 'reach'}",46,323,Right,61.16963915698869,32.91295786170791,3.058481957849434,0.51699553313126,Right,Correct,0.0,0.0,-45,45,2003,785,-0.8
"{'cat': 'RB', 'resp': 'reach'}",46,324,Right,62.08293515299566,87.05785130619738,3.104146757649783,1.3675015305043112,Right,Correct,0.0,0.0,-45,45,2003,682,-0.74
"{'cat': 'RB', 'resp': 'reach'}",46,325,Right,57.445940876430434,37.06393643201598,2.872297043821522,0.5821989520397024,Right,Correct,0.0,0.0,-45,45,2002,647,-0.73
"{'cat': 'RB', 'resp': 'reach'}",46,326,Left,41.81642539217941,33.59236771966717,2.0908212696089707,0.5276676782239664,Left,Correct,0.0,0.0,-45,45,2008,865,-2.44
"{'cat': 'RB', 'resp': 'reach'}",46,327,Left,40.06278633631633,72.37627895666625,2.0031393168158163,1.136883931322141,Left,Correct,0.0,0.0,-45,45,2005,672,-2.5
"{'cat': 'RB', 'resp': 'reach'}",46,328,Left,41.594926651352196,69.88345564794741,2.0797463325676095,1.0977267543552987,Left,Correct,0.0,0.0,-45,45,2004,644,-2.55
"{'cat': 'RB', 'resp': 'reach'}",46,329,Right,64.47921454477728,27.292644521333315,3.2239607272388637,0.42871185762629227,Right,Correct,0.0,0.0,-45,45,2004,612,-0.77
"{'cat': 'RB', 'resp': 'reach'}",46,330,Left,47.582579927203874,71.45506410791361,2.3791289963601936,1.1224135223160456,Left,Correct,0.0,0.0,-45,45,2004,739,-2.38
"{'cat': 'RB', 'resp': 'reach'}",46,331,Left,43.85228405295929,32.80263807931261,2.192614202647965,0.5152626340416664,Left,Correct,0.0,0.0,-45,45,2012,762,-2.46
"{'cat': 'RB', 'resp': 'reach'}",46,332,Left,33.405482661914625,55.58918780317828,1.6702741330957311,0.873192920107441,Left,Correct,0.0,0.0,-45,45,2003,737,-2.52
"{'cat': 'RB', 'resp': 'reach'}",46,333,Right,67.3146922103341,73.9598636543063,3.365734610516705,1.161758821584357,Right,Correct,0.0,0.0,-45,45,2006,536,-0.79
"{'cat': 'RB', 'resp': 'reach'}",46,334,Right,62.19795114700398,62.41595310390317,3.109897557350199,0.9804274986901362,Right,Correct,0.0,0.0,-45,45,2001,539,-0.77
"{'cat': 'RB', 'resp': 'reach'}",46,335,Left,42.302287629487275,77.22173933750433,2.115114381474364,1.2129962450006475,Left,Correct,0.0,0.0,-45,45,2007,740,-2.58
"{'cat': 'RB', 'resp': 'reach'}",46,336,Right,60.702975248422526,22.21449100824929,3.035148762421126,0.3489444087737624,Right,Correct,0.0,0.0,-45,45,2007,638,-0.79
"{'cat': 'RB', 'resp': 'reach'}",46,337,Left,41.39456148562687,65.48996697712538,2.0697280742813438,1.0287139956958762,Left,Correct,0.0,0.0,-45,45,2002,791,-2.43
"{'cat': 'RB', 'resp': 'reach'}",46,338,Right,54.73376677495818,41.99255144369192,2.736688338747909,0.65961745560497,Right,Correct,0.0,0.0,-45,45,2001,585,-0.84
"{'cat': 'RB', 'resp': 'reach'}",46,339,Left,34.32326660212174,28.264238016593797,1.7161633301060872,0.4439736125612221,Left,Correct,0.0,0.0,-45,45,2006,606,-2.46
"{'cat': 'RB', 'resp': 'reach'}",46,340,Right,58.708308319012794,66.340055055021,2.9354154159506396,1.0420671479979817,Right,Correct,0.0,0.0,-45,45,2004,802,-0.86
"{'cat': 'RB', 'resp': 'reach'}",46,341,Left,38.58401338765862,56.04328387229453,1.929200669382931,0.8803258444812392,Left,Correct,0.0,0.0,-45,45,2003,669,-2.56
"{'cat': 'RB', 'resp': 'reach'}",46,342,Left,35.71392627365463,69.77737763327599,1.7856963136827315,1.0960604847973028,Left,Correct,0.0,0.0,-45,45,2012,709,-2.55
"{'cat': 'RB', 'resp': 'reach'}",46,343,Left,33.216088602704595,74.09888724848759,1.6608044301352296,1.163942599095135,Left,Correct,0.0,0.0,-45,45,2010,675,-2.46
"{'cat': 'RB', 'resp': 'reach'}",46,344,Right,65.57592336846022,67.1738885995027,3.2787961684230114,1.0551649746862841,Right,Correct,0.0,0.0,-45,45,2005,705,-0.78
"{'cat': 'RB', 'resp': 'reach'}",46,345,Right,51.88449719145342,32.608064373356484,2.594224859572671,0.512206277415599,Right,Correct,0.0,0.0,-45,45,2002,669,-0.78
"{'cat': 'RB', 'resp': 'reach'}",46,346,Left,34.3516148310831,24.287927755138128,1.717580741554155,0.3815138770323079,Left,Correct,0.0,0.0,-45,45,2007,724,-2.56
"{'cat': 'RB', 'resp': 'reach'}",46,347,Right,69.2485321595829,57.11181527179844,3.462426607979145,0.8971102964552967,Right,Correct,0.0,0.0,-45,45,2003,583,-0.75
"{'cat': 'RB', 'resp': 'reach'}",46,348,Left,46.54665008510557,55.23472950420622,2.3273325042552786,0.8676251021671683,Left,Correct,0.0,0.0,-45,45,2012,637,-2.57
"{'cat': 'RB', 'resp': 'reach'}",46,349,Right,61.54057656956314,54.27043238330748,3.077028828478157,0.8524779584127019,Right,Correct,0.0,0.0,-45,45,2009,643,-0.82
"{'cat': 'RB', 'resp': 'reach'}",46,350,Left,37.07719519316968,37.10685025410075,1.8538597596584838,0.5828730407806973,Left,Correct,0.0,0.0,-45,45,2002,739,-2.49
"{'cat': 'RB', 'resp': 'reach'}",46,351,Left,46.053457284778304,32.48906322561233,2.302672864238915,0.51033701175799,Right,Incorrect,0.0,0.0,-45,45,2003,1474,-0.74
"{'cat': 'RB', 'resp': 'reach'}",46,352,Left,32.03718840400452,71.42166328096882,1.6018594202002259,1.1218888633532775,Left,Correct,0.0,0.0,-45,45,2005,650,-2.53
"{'cat': 'RB', 'resp': 'reach'}",46,353,Right,55.6345596385363,65.38489810877216,2.781727981926815,1.027063577771179,Right,Correct,0.0,0.0,-45,45,2012,749,-0.77
"{'cat': 'RB', 'resp': 'reach'}",46,354,Right,64.34822355737383,69.51100466384851,3.2174111778686916,1.0918763079779616,Right,Correct,0.0,0.0,-45,45,2001,523,-0.88
"{'cat': 'RB', 'resp': 'reach'}",46,355,Right,52.615823702525766,74.29690415536642,2.6307911851262884,1.1670530413948206,Right,Correct,0.0,0.0,-45,45,2008,876,-0.88
"{'cat': 'RB', 'resp': 'reach'}",46,356,Right,54.106667703076155,18.371555920441732,2.7053333851538075,0.2885797255733691,Right,Correct,0.0,0.0,-45,45,2002,642,-0.77
"{'cat': 'RB', 'resp': 'reach'}",46,357,Right,60.549698192723596,47.143093758188584,3.02748490963618,0.7405219850911003,Right,Correct,0.0,0.0,-45,45,2013,1419,-0.82
"{'cat': 'RB', 'resp': 'reach'}",46,358,Right,66.47107871424913,52.02890522805847,3.3235539357124564,0.8172681321939402,Right,Correct,0.0,0.0,-45,45,2013,733,-0.76
"{'cat': 'RB', 'resp': 'reach'}",46,359,Left,33.645877991529964,24.797004960360606,1.6822938995764982,0.38951044307249266,Left,Correct,0.0,0.0,-45,45,2007,723,-2.53
"{'cat': 'RB', 'resp': 'reach'}",46,360,Left,48.77870516431709,41.82301940372418,2.4389352582158548,0.6569544525484163,Right,Incorrect,0.0,0.0,-45,45,2008,630,-0.84
"{'cat': 'RB', 'resp': 'reach'}",46,361,Right,59.8279931397476,81.83235937455918,2.9913996569873795,1.2854196951851748,Left,Incorrect,0.0,0.0,-45,45,2007,1092,-2.29
"{'cat': 'RB', 'resp': 'reach'}",46,362,Right,58.614242455244465,36.0754083471535,2.9307121227622237,0.5666711891933466,Right,Correct,0.0,0.0,-45,45,2012,638,-0.74
"{'cat': 'RB', 'resp': 'reach'}",46,363,Left,39.450698536272434,74.29820669583052,1.9725349268136216,1.1670735016525857,Left,Correct,0.0,0.0,-45,45,2004,729,-2.38
"{'cat': 'RB', 'resp': 'reach'}",46,364,Right,58.50584159589008,80.67672989883044,2.925292079794504,1.2672671098290689,Right,Correct,0.0,0.0,-45,45,2006,703,-0.83
"{'cat': 'RB', 'resp': 'reach'}",46,365,Right,59.86507973325146,48.28671002076144,2.9932539866625736,0.758485867336224,Right,Correct,0.0,0.0,-45,45,2004,763,-0.75
"{'cat': 'RB', 'resp': 'reach'}",46,366,Right,63.00198450463179,54.310331661792105,3.1500992252315894,0.853104694813556,Right,Correct,0.0,0.0,-45,45,2002,590,-0.82
"{'cat': 'RB', 'resp': 'reach'}",46,367,Left,30.787129826743385,59.16518827803873,1.5393564913371693,0.929364604212717,Left,Correct,0.0,0.0,-45,45,2002,612,-2.47
"{'cat': 'RB', 'resp': 'reach'}",46,368,Right,58.54446806773571,23.581689464448008,2.927223403386785,0.3704203119037284,Right,Correct,0.0,0.0,-45,45,2010,771,-0.73
"{'cat': 'RB', 'resp': 'reach'}",46,369,Right,65.01874956001349,73.67350878583747,3.250937478000674,1.1572607698288502,Right,Correct,0.0,0.0,-45,45,2003,713,-0.75
"{'cat': 'RB', 'resp': 'reach'}",46,370,Right,56.44446783190337,14.482812685224026,2.822223391595168,0.2274954896760843,Right,Correct,0.0,0.0,-45,45,2007,618,-0.8
"{'cat': 'RB', 'resp': 'reach'}",46,371,Right,52.32528702133819,67.60919242967093,2.6162643510669095,1.0620027112609642,Left,Incorrect,0.0,0.0,-45,45,2012,1165,-2.37
"{'cat': 'RB', 'resp': 'reach'}",46,372,Right,61.354117204211434,10.440285037963328,3.067705860210572,0.1639956138832451,Right,Correct,0.0,0.0,-45,45,2013,835,-0.84
"{'cat': 'RB', 'resp': 'reach'}",46,373,Left,40.93329382914271,64.96937818739417,2.046664691457136,1.0205366061090724,Left,Correct,0.0,0.0,-45,45,2014,812,-2.4
"{'cat': 'RB', 'resp': 'reach'}",46,374,Left,44.189014557338936,54.03896391343792,2.2094507278669466,0.8488420601903025,Left,Correct,0.0,0.0,-45,45,2005,1045,-2.34
"{'cat': 'RB', 'resp': 'reach'}",46,375,Left,37.14404360540251,53.878494873846414,1.8572021802701255,0.8463214184107561,Left,Correct,0.0,0.0,-45,45,2004,1438,-2.35
"{'cat': 'RB', 'resp': 'reach'}",46,376,Right,57.99985940964832,75.55866884926547,2.899992970482416,1.1868727948593818,Right,Correct,0.0,0.0,-45,45,2009,606,-0.81
"{'cat': 'RB', 'resp': 'reach'}",46,377,Right,62.72994972964091,68.71889894184152,3.136497486482045,1.0794339403923436,Right,Correct,0.0,0.0,-45,45,2001,639,-0.81
"{'cat': 'RB', 'resp': 'reach'}",46,378,Left,37.2989082936602,75.11926744967234,1.8649454146830098,1.1799706938146874,Left,Correct,0.0,0.0,-45,45,2006,683,-2.39
"{'cat': 'RB', 'resp': 'reach'}",46,379,Right,54.385602191793694,30.469214651128095,2.7192801095896844,0.4786093045431725,Right,Correct,0.0,0.0,-45,45,2003,1085,-0.95
"{'cat': 'RB', 'resp': 'reach'}",46,380,Left,40.7549351413462,51.8245116232381,2.03774675706731,0.8140575249572183,Left,Correct,0.0,0.0,-45,45,2012,680,-2.51
"{'cat': 'RB', 'resp': 'reach'}",46,381,Left,43.64027398160775,71.0117038344627,2.1820136990803873,1.1154492354262109,Left,Correct,0.0,0.0,-45,45,2006,758,-2.49
"{'cat': 'RB', 'resp': 'reach'}",46,382,Right,58.964629224866876,41.89474873336986,2.948231461243344,0.6580811742237251,Right,Correct,0.0,0.0,-45,45,2006,574,-0.81
"{'cat': 'RB', 'resp': 'reach'}",46,383,Right,56.73996329432729,65.84159617141549,2.8369981647163645,1.0342373741637236,Right,Correct,0.0,0.0,-45,45,2003,676,-0.82
"{'cat': 'RB', 'resp': 'reach'}",46,384,Right,53.94299068707426,51.253910008415275,2.697149534353713,0.8050945357509491,Right,Correct,0.0,0.0,-45,45,2004,656,-0.77
"{'cat': 'RB', 'resp': 'reach'}",46,385,Left,36.98531271748885,22.221802032015667,1.8492656358744426,0.34905925006653576,Left,Correct,0.0,0.0,-45,45,2008,668,-2.49
"{'cat': 'RB', 'resp': 'reach'}",46,386,Right,60.775175331053916,33.618616933478876,3.0387587665526956,0.5280799999103333,Right,Correct,0.0,0.0,-45,45,2005,641,-0.76
"{'cat': 'RB', 'resp': 'reach'}",46,387,Left,41.359232244754004,27.921561840760795,2.0679616122377,0.43859086777843614,Left,Correct,0.0,0.0,-45,45,2003,774,-2.58
"{'cat': 'RB', 'resp': 'reach'}",46,388,Right,56.312346681955475,60.09929361383841,2.815617334097774,0.9440374965158537,Right,Correct,0.0,0.0,-45,45,2006,621,-0.76
"{'cat': 'RB', 'resp': 'reach'}",46,389,Left,39.80865416576377,23.585906020669654,1.9904327082881883,0.3704865454139753,Left,Correct,0.0,0.0,-45,45,2007,784,-2.47
"{'cat': 'RB', 'resp': 'reach'}",46,390,Right,55.9301211073814,35.743342740856136,2.79650605536907,0.5614551148470784,Right,Correct,0.0,0.0,-45,45,2009,703,-0.91
"{'cat': 'RB', 'resp': 'reach'}",46,391,Left,43.26722537037465,77.55352236506539,2.1633612685187327,1.2182078806105057,Left,Correct,0.0,0.0,-45,45,2009,799,-2.33
"{'cat': 'RB', 'resp': 'reach'}",46,392,Right,63.408515156084896,77.01333354717596,3.170425757804245,1.2097226145013416,Right,Correct,0.0,0.0,-45,45,2008,646,-0.81
"{'cat': 'RB', 'resp': 'reach'}",46,393,Left,45.52308837963388,39.789798334461935,2.2761544189816942,0.6250166906768251,Left,Correct,0.0,0.0,-45,45,2003,671,-2.32
"{'cat': 'RB', 'resp': 'reach'}",46,394,Left,43.69419169801045,74.22541579831385,2.1847095849005225,1.165930104908153,Left,Correct,0.0,0.0,-45,45,2004,765,-2.36
"{'cat': 'RB', 'resp': 'reach'}",46,395,Right,64.90897036033925,48.628871408991216,3.2454485180169628,0.7638605258542477,Right,Correct,0.0,0.0,-45,45,2008,564,-0.81
"{'cat': 'RB', 'resp': 'reach'}",46,396,Left,32.24732685592362,71.05090143338587,1.612366342796181,1.1160649498702877,Left,Correct,0.0,0.0,-45,45,2005,664,-2.44
"{'cat': 'RB', 'resp': 'reach'}",46,397,Left,37.97801263541119,84.69106048022843,1.8989006317705595,1.3303240671470722,Left,Correct,0.0,0.0,-45,45,2012,671,-2.5
"{'cat': 'RB', 'resp': 'reach'}",46,398,Right,64.2794618522334,59.487859208993896,3.2139730926116696,0.9344331073437957,Right,Correct,0.0,0.0,-45,45,2007,611,-0.84
"{'cat': 'RB', 'resp': 'reach'}",46,399,Left,48.06142290796439,64.4942189182005,2.4030711453982194,1.013072821762153,Left,Correct,0.0,0.0,-45,45,2004,748,-2.54
