condition,subject,trial,cat,x,y,xt,yt,resp,fb,rotation,su,target_angle_left,target_angle_right,rt,mt,ep
"{'cat': 'II', 'resp': 'reach'}",80,0,Right,54.34340820279108,28.207402886234448,2.7171704101395537,0.4430808484212083,Right,Correct,0.0,0.0,-45,45,2004,6907,-0.69
"{'cat': 'II', 'resp': 'reach'}",80,1,Right,32.85241579835795,13.839195885233089,1.6426207899178977,0.21738558062319185,Right,Correct,0.0,0.0,-45,45,2009,1634,-0.75
"{'cat': 'II', 'resp': 'reach'}",80,2,Right,47.943827060621324,18.257681750445204,2.397191353031066,0.28679099429389543,Right,Correct,0.0,0.0,-45,45,2001,1375,-0.83
"{'cat': 'II', 'resp': 'reach'}",80,3,Left,53.40979600534736,61.18321612840503,2.670489800267368,0.961063711559969,Right,Incorrect,0.0,0.0,-45,45,2002,1519,-0.77
"{'cat': 'II', 'resp': 'reach'}",80,4,Left,26.834270600929234,59.356523460429486,1.3417135300464615,0.9323700902295774,Right,Incorrect,0.0,0.0,-45,45,2008,1740,-0.87
"{'cat': 'II', 'resp': 'reach'}",80,5,Left,16.43445899226246,41.251154409909745,0.8217229496131231,0.6479716182313533,Left,Correct,0.0,0.0,-45,45,2001,3942,-2.45
"{'cat': 'II', 'resp': 'reach'}",80,6,Left,22.751422460024454,38.629530424392755,1.1375711230012227,0.6067912449644784,Right,Incorrect,0.0,0.0,-45,45,2012,1348,-0.77
"{'cat': 'II', 'resp': 'reach'}",80,7,Left,28.602733827552967,51.780136425070516,1.4301366913776485,0.8133604809743938,Right,Incorrect,0.0,0.0,-45,45,2012,1233,-0.79
"{'cat': 'II', 'resp': 'reach'}",80,8,Right,58.21230499692825,29.20442493772115,2.910615249846413,0.4587420341832966,Right,Correct,0.0,0.0,-45,45,2007,2113,-0.83
"{'cat': 'II', 'resp': 'reach'}",80,9,Right,72.73712040870004,58.66374463516944,3.636856020435002,0.9214879458895796,Right,Correct,0.0,0.0,-45,45,2005,1324,-0.79
"{'cat': 'II', 'resp': 'reach'}",80,10,Right,76.69330831541652,51.13873177563398,3.834665415770826,0.8032853203011532,Right,Correct,0.0,0.0,-45,45,2014,977,-0.9
"{'cat': 'II', 'resp': 'reach'}",80,11,Right,78.040761547313,46.413178701402,3.9020380773656496,0.7290565061903739,Right,Correct,0.0,0.0,-45,45,2003,944,-0.83
"{'cat': 'II', 'resp': 'reach'}",80,12,Right,77.36849156349714,48.333235310524515,3.8684245781748574,0.7592166848788529,Right,Correct,0.0,0.0,-45,45,2008,974,-0.91
"{'cat': 'II', 'resp': 'reach'}",80,13,Left,46.77789611831014,70.2892199775668,2.338894805915507,1.1041004855404037,Left,Correct,0.0,0.0,-45,45,2003,1134,-2.55
"{'cat': 'II', 'resp': 'reach'}",80,14,Right,56.584508702388064,26.45075942515131,2.8292254351194033,0.4154875574596318,Right,Correct,0.0,0.0,-45,45,2008,1072,-0.86
"{'cat': 'II', 'resp': 'reach'}",80,15,Right,82.9331468727842,52.655911276996875,4.146657343639211,0.8271171201794467,Right,Correct,0.0,0.0,-45,45,2007,1028,-0.82
"{'cat': 'II', 'resp': 'reach'}",80,16,Right,50.25801948821774,20.746399098462902,2.5129009744108872,0.3258836749808648,Right,Correct,0.0,0.0,-45,45,2001,969,-0.81
"{'cat': 'II', 'resp': 'reach'}",80,17,Right,81.00598593751604,60.516289940856474,4.050299296875802,0.950587659503523,Right,Correct,0.0,0.0,-45,45,2007,727,-0.85
"{'cat': 'II', 'resp': 'reach'}",80,18,Right,66.85986084974745,49.0587832000445,3.3429930424873726,0.7706135644765707,Right,Correct,0.0,0.0,-45,45,2005,1014,-0.85
"{'cat': 'II', 'resp': 'reach'}",80,19,Left,48.294508541198915,76.28899103815299,2.414725427059946,1.198344668976195,Left,Correct,0.0,0.0,-45,45,2013,1178,-2.28
"{'cat': 'II', 'resp': 'reach'}",80,20,Left,48.72084513493106,55.44342126253512,2.436042256746553,0.8709032246413224,Left,Correct,0.0,0.0,-45,45,2007,1224,-2.36
"{'cat': 'II', 'resp': 'reach'}",80,21,Right,72.10068926007901,54.83835025160912,3.60503446300395,0.8613987914271961,Right,Correct,0.0,0.0,-45,45,2001,773,-0.92
"{'cat': 'II', 'resp': 'reach'}",80,22,Left,23.274968168835453,48.5885570389067,1.1637484084417726,0.7632272692097897,Left,Correct,0.0,0.0,-45,45,2006,1077,-2.42
"{'cat': 'II', 'resp': 'reach'}",80,23,Right,37.337866907096725,25.450477367573942,1.8668933453548362,0.39977516364161797,Right,Correct,0.0,0.0,-45,45,2006,1637,-0.72
"{'cat': 'II', 'resp': 'reach'}",80,24,Left,61.55943307884124,70.98644339890274,3.077971653942062,1.1150524454323023,Right,Incorrect,0.0,0.0,-45,45,2007,1235,-0.77
"{'cat': 'II', 'resp': 'reach'}",80,25,Left,14.552189013373251,38.102438828864884,0.7276094506686626,0.598511709543082,Left,Correct,0.0,0.0,-45,45,2009,931,-2.37
"{'cat': 'II', 'resp': 'reach'}",80,26,Left,49.81894912505595,73.78009795847626,2.4909474562527976,1.1589350686374214,Right,Incorrect,0.0,0.0,-45,45,2012,2968,-0.89
"{'cat': 'II', 'resp': 'reach'}",80,27,Left,14.772692644984428,41.45723346868847,0.7386346322492214,0.651208700516943,Left,Correct,0.0,0.0,-45,45,2002,1077,-2.46
"{'cat': 'II', 'resp': 'reach'}",80,28,Left,52.548477381610475,78.89009546430711,2.627423869080524,1.2392027217583235,Right,Incorrect,0.0,0.0,-45,45,2001,948,-0.89
"{'cat': 'II', 'resp': 'reach'}",80,29,Right,77.18535075245099,64.43218526571165,3.859267537622549,1.0120983994274813,Right,Correct,0.0,0.0,-45,45,2012,1121,-0.82
"{'cat': 'II', 'resp': 'reach'}",80,30,Right,69.7458204922859,38.85318015022565,3.4872910246142954,0.6103043266427484,Right,Correct,0.0,0.0,-45,45,2009,1042,-0.75
"{'cat': 'II', 'resp': 'reach'}",80,31,Left,54.54310422068255,81.272566471268,2.7271552110341277,1.2766264888226182,Left,Correct,0.0,0.0,-45,45,2002,1320,-2.53
"{'cat': 'II', 'resp': 'reach'}",80,32,Left,68.0209754476568,83.34152871811605,3.4010487723828398,1.309125671798881,Left,Correct,0.0,0.0,-45,45,2004,1845,-2.4
"{'cat': 'II', 'resp': 'reach'}",80,33,Left,42.238012106684145,73.17541622954268,2.1119006053342075,1.149436750250533,Left,Correct,0.0,0.0,-45,45,2005,2719,-2.5
"{'cat': 'II', 'resp': 'reach'}",80,34,Left,20.67538402759471,47.736802972626066,1.0337692013797355,0.7498479476233273,Left,Correct,0.0,0.0,-45,45,2013,1037,-2.45
"{'cat': 'II', 'resp': 'reach'}",80,35,Right,45.281382564896035,28.384932773054004,2.2640691282448016,0.4458694813623331,Right,Correct,0.0,0.0,-45,45,2001,1117,-0.71
"{'cat': 'II', 'resp': 'reach'}",80,36,Left,19.747582253179747,47.23652663112958,0.9873791126589873,0.7419896252272765,Left,Correct,0.0,0.0,-45,45,2001,1280,-2.45
"{'cat': 'II', 'resp': 'reach'}",80,37,Left,37.815277739991764,54.33135154580195,1.8907638869995882,0.8534348743794793,Left,Correct,0.0,0.0,-45,45,2003,2400,-2.46
"{'cat': 'II', 'resp': 'reach'}",80,38,Left,24.939619034306197,41.01238554714935,1.2469809517153099,0.644221045705583,Left,Correct,0.0,0.0,-45,45,2007,1096,-2.4
"{'cat': 'II', 'resp': 'reach'}",80,39,Right,42.47850841303596,21.15283965157647,2.123925420651798,0.3322680282597776,Right,Correct,0.0,0.0,-45,45,2012,1074,-0.61
"{'cat': 'II', 'resp': 'reach'}",80,40,Left,22.919888064348054,40.764966057346825,1.1459944032174028,0.6403345894479903,Left,Correct,0.0,0.0,-45,45,2003,1265,-2.48
"{'cat': 'II', 'resp': 'reach'}",80,41,Right,62.40589773640201,51.40389972807266,3.120294886820101,0.8074505687578972,Right,Correct,0.0,0.0,-45,45,2002,2323,-0.71
"{'cat': 'II', 'resp': 'reach'}",80,42,Left,19.811960729246138,41.77051328073375,0.9905980364623069,0.6561296882971402,Left,Correct,0.0,0.0,-45,45,2001,1029,-2.54
"{'cat': 'II', 'resp': 'reach'}",80,43,Left,49.03817799725552,70.05378839958638,2.451908899862776,1.1004023349613723,Left,Correct,0.0,0.0,-45,45,2002,1472,-2.43
"{'cat': 'II', 'resp': 'reach'}",80,44,Left,59.84260724256882,79.30528798665445,2.992130362128441,1.2457245506484824,Left,Correct,0.0,0.0,-45,45,2001,1019,-2.35
"{'cat': 'II', 'resp': 'reach'}",80,45,Left,61.23813904733008,77.39896931610474,3.0619069523665043,1.2157801669944823,Left,Correct,0.0,0.0,-45,45,2006,1181,-2.41
"{'cat': 'II', 'resp': 'reach'}",80,46,Left,45.20759046621319,55.78911982234374,2.2603795233106596,0.8763334449205791,Right,Incorrect,0.0,0.0,-45,45,2012,944,-0.8
"{'cat': 'II', 'resp': 'reach'}",80,47,Right,81.35616786709983,54.21950197226654,4.067808393354992,0.8516779453868495,Right,Correct,0.0,0.0,-45,45,2012,937,-0.68
"{'cat': 'II', 'resp': 'reach'}",80,48,Right,45.74364720559746,22.748782694505408,2.287182360279873,0.35733704295584406,Right,Correct,0.0,0.0,-45,45,2004,1093,-0.69
"{'cat': 'II', 'resp': 'reach'}",80,49,Right,46.79812530220634,27.989998986945352,2.339906265110317,0.4396658759568664,Right,Correct,0.0,0.0,-45,45,2002,1024,-0.64
"{'cat': 'II', 'resp': 'reach'}",80,50,Left,32.61452694183522,60.15881255987971,1.630726347091761,0.9449724179340175,Left,Correct,0.0,0.0,-45,45,2003,1226,-2.49
"{'cat': 'II', 'resp': 'reach'}",80,51,Right,72.94994036391269,44.86972877066416,3.6474970181956343,0.7048120513724255,Right,Correct,0.0,0.0,-45,45,2007,820,-0.67
"{'cat': 'II', 'resp': 'reach'}",80,52,Right,74.11447677207198,63.133778768946144,3.705723838603599,0.9917030778694222,Right,Correct,0.0,0.0,-45,45,2009,1164,-0.79
"{'cat': 'II', 'resp': 'reach'}",80,53,Left,66.31628121982978,86.54226014523839,3.315814060991489,1.3594026434866882,Left,Correct,0.0,0.0,-45,45,2010,1588,-2.43
"{'cat': 'II', 'resp': 'reach'}",80,54,Left,35.94691704233288,61.33921326982372,1.7973458521166439,0.9635141089272788,Left,Correct,0.0,0.0,-45,45,2012,1175,-2.5
"{'cat': 'II', 'resp': 'reach'}",80,55,Right,41.06948292508902,23.902904026548818,2.053474146254451,0.3754659384463382,Left,Incorrect,0.0,0.0,-45,45,2012,1749,-2.5
"{'cat': 'II', 'resp': 'reach'}",80,56,Right,58.233694443804445,30.97795286200529,2.9116847221902225,0.4866005456726336,Right,Correct,0.0,0.0,-45,45,2008,912,-0.71
"{'cat': 'II', 'resp': 'reach'}",80,57,Left,34.30786755406968,53.10096055001497,1.715393377703484,0.8341079378124423,Left,Correct,0.0,0.0,-45,45,2013,1298,-2.51
"{'cat': 'II', 'resp': 'reach'}",80,58,Right,78.38355956475169,47.92855853941797,3.9191779782375846,0.7528600370229191,Right,Correct,0.0,0.0,-45,45,2003,846,-0.74
"{'cat': 'II', 'resp': 'reach'}",80,59,Left,30.136010692033125,42.46633059944495,1.5068005346016562,0.6670595611806586,Left,Correct,0.0,0.0,-45,45,2002,1478,-2.44
"{'cat': 'II', 'resp': 'reach'}",80,60,Left,41.183139644459644,62.981771296847896,2.059156982222982,0.9893153500812493,Left,Correct,0.0,0.0,-45,45,2007,2008,-2.43
"{'cat': 'II', 'resp': 'reach'}",80,61,Left,23.541604600954848,53.53023947572799,1.1770802300477425,0.8408510354092471,Left,Correct,0.0,0.0,-45,45,2007,1379,-2.46
"{'cat': 'II', 'resp': 'reach'}",80,62,Right,57.35417614764657,28.194995655115545,2.8677088073823285,0.44288595609053566,Right,Correct,0.0,0.0,-45,45,2009,1025,-0.67
"{'cat': 'II', 'resp': 'reach'}",80,63,Right,70.98334317702977,40.48529037155006,3.5491671588514886,0.6359414540485562,Right,Correct,0.0,0.0,-45,45,2003,698,-0.71
"{'cat': 'II', 'resp': 'reach'}",80,64,Left,47.276300847363636,77.15162180397927,2.363815042368182,1.211894841359597,Left,Correct,0.0,0.0,-45,45,2006,1313,-2.47
"{'cat': 'II', 'resp': 'reach'}",80,65,Right,80.39660681573376,62.24019253893374,4.019830340786688,0.9776666581916424,Right,Correct,0.0,0.0,-45,45,2002,987,-0.78
"{'cat': 'II', 'resp': 'reach'}",80,66,Right,64.82853689576285,55.25220177438278,3.2414268447881427,0.8678995559453094,Right,Correct,0.0,0.0,-45,45,2003,905,-0.75
"{'cat': 'II', 'resp': 'reach'}",80,67,Right,78.37270959350727,60.60388063727279,3.918635479675363,0.9519635309454445,Right,Correct,0.0,0.0,-45,45,2001,983,-0.75
"{'cat': 'II', 'resp': 'reach'}",80,68,Left,40.08510946209398,67.4471710643468,2.004255473104699,1.05945768560583,Left,Correct,0.0,0.0,-45,45,2002,1141,-2.41
"{'cat': 'II', 'resp': 'reach'}",80,69,Left,27.578447659801817,55.166365884979754,1.3789223829900907,0.8665512489474949,Left,Correct,0.0,0.0,-45,45,2007,1147,-2.55
"{'cat': 'II', 'resp': 'reach'}",80,70,Right,76.31975891584874,59.15830833601386,3.815987945792437,0.9292565343361048,Right,Correct,0.0,0.0,-45,45,2006,977,-0.76
"{'cat': 'II', 'resp': 'reach'}",80,71,Left,22.182799648622623,48.83933398632501,1.1091399824311312,0.7671664642882848,Left,Correct,0.0,0.0,-45,45,2005,1113,-2.38
"{'cat': 'II', 'resp': 'reach'}",80,72,Right,87.0941184542907,59.782400590166745,4.354705922714535,0.9390597525401498,Right,Correct,0.0,0.0,-45,45,2001,925,-0.74
"{'cat': 'II', 'resp': 'reach'}",80,73,Right,53.359348225220884,43.0348737632955,2.667967411261044,0.6759902163146664,Right,Correct,0.0,0.0,-45,45,2009,1320,-0.76
"{'cat': 'II', 'resp': 'reach'}",80,74,Right,63.35839424831666,40.228043455287086,3.1679197124158325,0.6319006289371043,Right,Correct,0.0,0.0,-45,45,2007,861,-0.76
"{'cat': 'II', 'resp': 'reach'}",80,75,Right,36.939215354143485,12.917990709950416,1.8469607677071742,0.20291532356760708,Left,Incorrect,0.0,0.0,-45,45,2009,5789,-2.44
"{'cat': 'II', 'resp': 'reach'}",80,76,Left,59.22312589373615,81.22961060344889,2.9611562946868077,1.275951739628773,Left,Correct,0.0,0.0,-45,45,2010,1530,-2.84
"{'cat': 'II', 'resp': 'reach'}",80,77,Right,46.98500448694505,21.05506349156616,2.349250224347253,0.33073216392985455,Right,Correct,0.0,0.0,-45,45,2003,1107,-1.11
"{'cat': 'II', 'resp': 'reach'}",80,78,Right,52.9299955292146,29.648427341587293,2.6464997764607303,0.465716407634107,Right,Correct,0.0,0.0,-45,45,2010,1046,-1.16
"{'cat': 'II', 'resp': 'reach'}",80,79,Left,58.98232258083492,83.42918037106323,2.9491161290417462,1.3105025007437499,Left,Correct,0.0,0.0,-45,45,2006,1316,-2.77
"{'cat': 'II', 'resp': 'reach'}",80,80,Left,67.16333342962645,80.80762061636294,3.3581666714813223,1.2693231364121846,Left,Correct,0.0,0.0,-45,45,2003,1330,-2.58
"{'cat': 'II', 'resp': 'reach'}",80,81,Left,45.57237367419843,58.927836769787014,2.278618683709922,0.9256362954395068,Right,Incorrect,0.0,0.0,-45,45,2001,855,-0.95
"{'cat': 'II', 'resp': 'reach'}",80,82,Right,52.55846581540578,22.733607862922334,2.627923290770289,0.3570986772587398,Right,Correct,0.0,0.0,-45,45,2007,924,-1.02
"{'cat': 'II', 'resp': 'reach'}",80,83,Right,46.67437106091389,34.16527743226913,2.3337185530456948,0.5366669229453691,Right,Correct,0.0,0.0,-45,45,2013,974,-1.03
"{'cat': 'II', 'resp': 'reach'}",80,84,Left,27.695784819069935,50.571360027838935,1.3847892409534968,0.7943730657275166,Left,Correct,0.0,0.0,-45,45,2006,1079,-2.77
"{'cat': 'II', 'resp': 'reach'}",80,85,Right,77.08318364655463,44.868892753908725,3.8541591823277317,0.7047989192519398,Right,Correct,0.0,0.0,-45,45,2006,899,-1.04
"{'cat': 'II', 'resp': 'reach'}",80,86,Right,35.30652412406131,15.055306730551816,1.7653262062030655,0.23648820511121277,Left,Incorrect,0.0,0.0,-45,45,2009,941,-2.7
"{'cat': 'II', 'resp': 'reach'}",80,87,Left,12.469893660485095,39.28491653731001,0.6234946830242548,0.6170860259525065,Left,Correct,0.0,0.0,-45,45,2003,1258,-2.64
"{'cat': 'II', 'resp': 'reach'}",80,88,Right,57.287433582152715,47.68310282939868,2.864371679107636,0.7490044277460279,Right,Correct,0.0,0.0,-45,45,2002,783,-0.99
"{'cat': 'II', 'resp': 'reach'}",80,89,Right,59.89932679137153,44.004953399455765,2.994966339568576,0.6912281916064571,Right,Correct,0.0,0.0,-45,45,2006,800,-0.98
"{'cat': 'II', 'resp': 'reach'}",80,90,Right,84.16306523357093,69.23827717798162,4.208153261678547,1.0875923146478044,Right,Correct,0.0,0.0,-45,45,2004,828,-0.97
"{'cat': 'II', 'resp': 'reach'}",80,91,Left,42.76326392016682,66.20289586074308,2.138163196008341,1.039912656412403,Right,Incorrect,0.0,0.0,-45,45,2004,1372,-1.09
"{'cat': 'II', 'resp': 'reach'}",80,92,Right,41.235493686723295,21.520555505931767,2.061774684336165,0.3380440953930331,Right,Correct,0.0,0.0,-45,45,2004,962,-0.96
"{'cat': 'II', 'resp': 'reach'}",80,93,Left,27.77587503765684,47.41196256380699,1.388793751882842,0.7447453664136516,Left,Correct,0.0,0.0,-45,45,2004,1908,-2.67
"{'cat': 'II', 'resp': 'reach'}",80,94,Right,40.89988399907378,25.440270666713463,2.044994199953689,0.39961483715941465,Right,Correct,0.0,0.0,-45,45,2003,1744,-0.91
"{'cat': 'II', 'resp': 'reach'}",80,95,Right,42.54100794961781,25.15224948117249,2.1270503974808905,0.39509061095654596,Right,Correct,0.0,0.0,-45,45,2002,919,-0.94
"{'cat': 'II', 'resp': 'reach'}",80,96,Right,40.20239317256373,24.47504734264708,2.0101196586281866,0.3844531446396123,Right,Correct,0.0,0.0,-45,45,2003,985,-0.89
"{'cat': 'II', 'resp': 'reach'}",80,97,Right,38.16204926274126,17.51365361038042,1.9081024631370633,0.2751038275994374,Right,Correct,0.0,0.0,-45,45,2012,809,-0.98
"{'cat': 'II', 'resp': 'reach'}",80,98,Right,58.78404006428189,37.036853349626625,2.939202003214094,0.5817735319763476,Right,Correct,0.0,0.0,-45,45,2008,1061,-0.89
"{'cat': 'II', 'resp': 'reach'}",80,99,Left,31.3230803135989,54.46552353276104,1.566154015679945,0.8555424430222205,Left,Correct,0.0,0.0,-45,45,2007,936,-2.7
"{'cat': 'II', 'resp': 'reach'}",80,100,Left,29.959559881799343,50.996744458587834,1.4979779940899673,0.8010549887404776,Left,Correct,0.0,0.0,-45,45,2012,689,-2.74
"{'cat': 'II', 'resp': 'reach'}",80,101,Left,41.55754116811747,68.60343281932941,2.0778770584058734,1.077620202781231,Left,Correct,0.0,0.0,-45,45,2013,3761,-2.77
"{'cat': 'II', 'resp': 'reach'}",80,102,Right,69.20679081063334,43.567101971186304,3.460339540531667,0.6843504374543815,Right,Correct,0.0,0.0,-45,45,2007,965,-0.96
"{'cat': 'II', 'resp': 'reach'}",80,103,Right,72.72145784646307,62.95972987591116,3.6360728923231536,0.9889691242508015,Right,Correct,0.0,0.0,-45,45,2007,873,-0.94
"{'cat': 'II', 'resp': 'reach'}",80,104,Right,83.74086322865088,63.810033028294825,4.187043161432544,1.0023256549350654,Right,Correct,0.0,0.0,-45,45,2001,729,-0.93
"{'cat': 'II', 'resp': 'reach'}",80,105,Right,71.95428428435865,55.16867136223463,3.5977142142179326,0.8665874632995297,Right,Correct,0.0,0.0,-45,45,2012,796,-0.91
"{'cat': 'II', 'resp': 'reach'}",80,106,Left,45.37434534061026,60.592190512804436,2.268717267030513,0.9517799028996978,Left,Correct,0.0,0.0,-45,45,2002,1118,-2.72
"{'cat': 'II', 'resp': 'reach'}",80,107,Right,60.38137130489104,43.28641245122579,3.019068565244552,0.6799413767851434,Right,Correct,0.0,0.0,-45,45,2009,841,-0.88
"{'cat': 'II', 'resp': 'reach'}",80,108,Right,89.34931464771081,65.76010601847446,4.4674657323855405,1.0329573298346266,Right,Correct,0.0,0.0,-45,45,2007,959,-0.92
"{'cat': 'II', 'resp': 'reach'}",80,109,Right,62.66951581736749,53.7907073162631,3.1334757908683746,0.8449424546808544,Right,Correct,0.0,0.0,-45,45,2008,1114,-0.97
"{'cat': 'II', 'resp': 'reach'}",80,110,Left,20.192138094381058,43.22917784164247,1.0096069047190528,0.6790423376401532,Left,Correct,0.0,0.0,-45,45,2001,877,-2.7
"{'cat': 'II', 'resp': 'reach'}",80,111,Right,75.27819629492495,63.23238423022959,3.7639098147462478,0.9932519688332819,Right,Correct,0.0,0.0,-45,45,2003,773,-0.99
"{'cat': 'II', 'resp': 'reach'}",80,112,Right,78.08173233207303,47.99889715478106,3.9040866166036516,0.7539649134093611,Right,Correct,0.0,0.0,-45,45,2004,848,-0.86
"{'cat': 'II', 'resp': 'reach'}",80,113,Right,67.91923476408483,44.01136606396691,3.3959617382042415,0.6913289215050479,Right,Correct,0.0,0.0,-45,45,2008,838,-0.87
"{'cat': 'II', 'resp': 'reach'}",80,114,Right,38.172823232388396,25.388916022264176,1.9086411616194199,0.39880816029076666,Left,Incorrect,0.0,0.0,-45,45,2003,5613,-2.76
"{'cat': 'II', 'resp': 'reach'}",80,115,Right,88.26659381761594,62.37105401431012,4.413329690880797,0.9797222254400442,Right,Correct,0.0,0.0,-45,45,2002,981,-1.0
"{'cat': 'II', 'resp': 'reach'}",80,116,Right,38.5703150578114,29.22861692979812,1.9285157528905699,0.4591220411062202,Right,Correct,0.0,0.0,-45,45,2008,1756,-1.0
"{'cat': 'II', 'resp': 'reach'}",80,117,Left,48.69596752178422,78.36937447186048,2.4347983760892107,1.2310232555361218,Left,Correct,0.0,0.0,-45,45,2004,2586,-2.56
"{'cat': 'II', 'resp': 'reach'}",80,118,Right,68.60658840261173,49.14985001405563,3.4303294201305867,0.7720440386459869,Right,Correct,0.0,0.0,-45,45,2004,1313,-0.93
"{'cat': 'II', 'resp': 'reach'}",80,119,Right,52.399670222301495,26.448848582640515,2.6199835111150747,0.41545754201566126,Right,Correct,0.0,0.0,-45,45,2007,1147,-0.98
"{'cat': 'II', 'resp': 'reach'}",80,120,Right,46.39228682297949,18.403007705729618,2.3196143411489745,0.2890737690613826,Right,Correct,0.0,0.0,-45,45,2005,1134,-0.87
"{'cat': 'II', 'resp': 'reach'}",80,121,Right,78.05293585881239,58.28539798286892,3.9026467929406192,0.9155448905726918,Right,Correct,0.0,0.0,-45,45,2004,914,-0.91
"{'cat': 'II', 'resp': 'reach'}",80,122,Left,35.93638805406899,66.38916793429621,1.7968194027034496,1.0428386113016201,Left,Correct,0.0,0.0,-45,45,2007,1546,-2.56
"{'cat': 'II', 'resp': 'reach'}",80,123,Right,45.070801605683286,36.52423484460041,2.2535400802841643,0.5737213393289249,Right,Correct,0.0,0.0,-45,45,2004,976,-0.88
"{'cat': 'II', 'resp': 'reach'}",80,124,Left,27.0967740569365,46.75680667179027,1.354838702846825,0.7344542017270728,Left,Correct,0.0,0.0,-45,45,2001,1199,-2.58
"{'cat': 'II', 'resp': 'reach'}",80,125,Right,32.083726784551494,18.53597645730808,1.6041863392275746,0.2911624373269621,Left,Incorrect,0.0,0.0,-45,45,2002,1033,-2.67
"{'cat': 'II', 'resp': 'reach'}",80,126,Left,45.272617422659664,61.58085074527368,2.263630871132983,0.9673097415158066,Right,Incorrect,0.0,0.0,-45,45,2008,1002,-0.86
"{'cat': 'II', 'resp': 'reach'}",80,127,Left,56.42190133162544,85.41533922219449,2.821095066581272,1.3417010110216314,Right,Incorrect,0.0,0.0,-45,45,2002,3570,-0.87
"{'cat': 'II', 'resp': 'reach'}",80,128,Right,34.670386708543944,13.558388956170749,1.7335193354271974,0.21297467569609504,Right,Correct,0.0,0.0,-45,45,2007,1024,-0.99
"{'cat': 'II', 'resp': 'reach'}",80,129,Right,32.510475396504155,20.474932999473474,1.6255237698252076,0.32161949546944546,Left,Incorrect,0.0,0.0,-45,45,2001,3055,-2.7
"{'cat': 'II', 'resp': 'reach'}",80,130,Right,46.02724609169051,35.64288182833669,2.3013623045845253,0.5598770785233584,Right,Correct,0.0,0.0,-45,45,2004,850,-0.84
"{'cat': 'II', 'resp': 'reach'}",80,131,Left,14.213632099235955,42.37590406238701,0.7106816049617977,0.6656391444581045,Left,Correct,0.0,0.0,-45,45,2003,1086,-2.68
"{'cat': 'II', 'resp': 'reach'}",80,132,Left,31.221640186964684,63.31204564282755,1.5610820093482343,0.9945032873762435,Left,Correct,0.0,0.0,-45,45,2007,1770,-2.66
"{'cat': 'II', 'resp': 'reach'}",80,133,Right,60.8794195487499,51.36141157140197,3.043970977437495,0.8067831663535913,Right,Correct,0.0,0.0,-45,45,2004,870,-0.99
"{'cat': 'II', 'resp': 'reach'}",80,134,Left,40.498261434185316,57.892132756071526,2.024913071709266,0.9093674948355966,Right,Incorrect,0.0,0.0,-45,45,2005,4910,-0.94
"{'cat': 'II', 'resp': 'reach'}",80,135,Right,56.9618034323225,40.010695961038465,2.848090171616125,0.6284865424810663,Right,Correct,0.0,0.0,-45,45,2011,896,-0.95
"{'cat': 'II', 'resp': 'reach'}",80,136,Left,36.91473208842363,57.5962130033536,1.8457366044211811,0.9047191982296429,Left,Correct,0.0,0.0,-45,45,2008,1702,-2.71
"{'cat': 'II', 'resp': 'reach'}",80,137,Left,33.61695071631809,42.36716116540919,1.6808475358159043,0.6655018113535215,Left,Correct,0.0,0.0,-45,45,2001,838,-2.69
"{'cat': 'II', 'resp': 'reach'}",80,138,Right,49.01604859716025,41.21047065743662,2.4508024298580127,0.6473325593419031,Right,Correct,0.0,0.0,-45,45,2009,841,-0.91
"{'cat': 'II', 'resp': 'reach'}",80,139,Right,56.431757022492846,42.36538581429301,2.821587851124642,0.6654739242034009,Right,Correct,0.0,0.0,-45,45,2006,825,-0.91
"{'cat': 'II', 'resp': 'reach'}",80,140,Left,37.08769733454684,62.68071712495849,1.854384866727342,0.9845864022075478,Left,Correct,0.0,0.0,-45,45,2009,1818,-2.8
"{'cat': 'II', 'resp': 'reach'}",80,141,Right,38.02502051359899,13.724038906049135,1.9012510256799493,0.21557669902412233,Right,Correct,0.0,0.0,-45,45,2002,1196,-0.95
"{'cat': 'II', 'resp': 'reach'}",80,142,Right,68.48598741726778,45.38376477832329,3.424299370863389,0.7128865100991383,Right,Correct,0.0,0.0,-45,45,2002,950,-0.91
"{'cat': 'II', 'resp': 'reach'}",80,143,Left,61.17632750801311,83.97114523987803,3.058816375400655,1.3190156649956115,Left,Correct,0.0,0.0,-45,45,2006,1550,-2.67
"{'cat': 'II', 'resp': 'reach'}",80,144,Left,36.647387540870085,65.18850389630043,1.8323693770435043,1.0239786246956353,Left,Correct,0.0,0.0,-45,45,2008,1344,-2.69
"{'cat': 'II', 'resp': 'reach'}",80,145,Right,65.48009176843219,54.825442762863666,3.27400458842161,0.8611960410681009,Right,Correct,0.0,0.0,-45,45,2012,948,-1.01
"{'cat': 'II', 'resp': 'reach'}",80,146,Left,17.011793154165293,35.80290407909699,0.8505896577082646,0.5623907021603557,Left,Correct,0.0,0.0,-45,45,2008,868,-2.73
"{'cat': 'II', 'resp': 'reach'}",80,147,Right,41.04192329607285,27.561926620309762,2.052096164803643,0.43294173094573063,Right,Correct,0.0,0.0,-45,45,2002,1039,-0.82
"{'cat': 'II', 'resp': 'reach'}",80,148,Left,47.97110382225643,73.98165172419054,2.3985551911128216,1.1621010677857782,Right,Incorrect,0.0,0.0,-45,45,2005,812,-0.87
"{'cat': 'II', 'resp': 'reach'}",80,149,Left,24.744765108473818,49.93331279986562,1.237238255423691,0.7843506433072951,Left,Correct,0.0,0.0,-45,45,2005,1103,-2.7
"{'cat': 'II', 'resp': 'reach'}",80,150,Right,64.8096687409877,42.10360709974923,3.2404834370493854,0.6613619137710162,Right,Correct,0.0,0.0,-45,45,2004,914,-1.0
"{'cat': 'II', 'resp': 'reach'}",80,151,Right,43.787673578204064,35.29618821240981,2.1893836789102035,0.5544312279391466,Right,Correct,0.0,0.0,-45,45,2001,1035,-0.79
"{'cat': 'II', 'resp': 'reach'}",80,152,Left,45.794671873968305,68.0139980988998,2.2897335936984153,1.0683613838438688,Left,Correct,0.0,0.0,-45,45,2009,2120,-2.65
"{'cat': 'II', 'resp': 'reach'}",80,153,Left,14.020947993225736,30.218879166923497,0.7010473996612867,0.47467704395262256,Left,Correct,0.0,0.0,-45,45,2001,1040,-2.63
"{'cat': 'II', 'resp': 'reach'}",80,154,Right,42.17753717299977,33.260778009414125,2.1088768586499884,0.5224590792352818,Right,Correct,0.0,0.0,-45,45,2009,1870,-1.11
"{'cat': 'II', 'resp': 'reach'}",80,155,Right,74.19923518358763,60.12555783076901,3.7099617591793814,0.9444500538706607,Right,Correct,0.0,0.0,-45,45,2008,1241,-0.92
"{'cat': 'II', 'resp': 'reach'}",80,156,Right,75.93227680877656,45.075696104816366,3.7966138404388285,0.7080473786916858,Right,Correct,0.0,0.0,-45,45,2012,923,-0.9
"{'cat': 'II', 'resp': 'reach'}",80,157,Left,22.450069914742553,45.10529748586829,1.1225034957371276,0.7085123560979301,Left,Correct,0.0,0.0,-45,45,2010,1106,-2.74
"{'cat': 'II', 'resp': 'reach'}",80,158,Right,49.60933801108888,24.485169232668646,2.480466900554444,0.3846121389162732,Right,Correct,0.0,0.0,-45,45,2001,1487,-0.77
"{'cat': 'II', 'resp': 'reach'}",80,159,Left,30.84036278224073,45.55441576377,1.5420181391120367,0.7155670895101746,Left,Correct,0.0,0.0,-45,45,2001,1130,-2.81
"{'cat': 'II', 'resp': 'reach'}",80,160,Right,70.44633497221146,42.03056178826238,3.5223167486105726,0.660214520701285,Right,Correct,0.0,0.0,-45,45,2005,956,-1.01
"{'cat': 'II', 'resp': 'reach'}",80,161,Left,33.49177640343416,65.98498641853607,1.6745888201717078,1.0364897428984758,Left,Correct,0.0,0.0,-45,45,2009,962,-2.66
"{'cat': 'II', 'resp': 'reach'}",80,162,Right,86.11846860126728,57.296261729526094,4.305923430063364,0.9000075746381859,Right,Correct,0.0,0.0,-45,45,2006,954,-1.01
"{'cat': 'II', 'resp': 'reach'}",80,163,Right,80.58766752993554,65.2380165720123,4.029383376496777,1.024756367987015,Right,Correct,0.0,0.0,-45,45,2007,763,-0.91
"{'cat': 'II', 'resp': 'reach'}",80,164,Right,75.16206814655837,57.764948354678964,3.7581034073279183,0.9073696869302662,Right,Correct,0.0,0.0,-45,45,2007,756,-0.92
"{'cat': 'II', 'resp': 'reach'}",80,165,Left,52.082209755415285,74.65135044982462,2.604110487770764,1.1726206707686306,Left,Correct,0.0,0.0,-45,45,2002,1611,-2.66
"{'cat': 'II', 'resp': 'reach'}",80,166,Right,88.68218668771722,64.00231186944262,4.434109334385861,1.0053459639090188,Right,Correct,0.0,0.0,-45,45,2013,885,-0.94
"{'cat': 'II', 'resp': 'reach'}",80,167,Right,34.1530772863277,13.283821571355197,1.707653864316385,0.20866178130083554,Left,Incorrect,0.0,0.0,-45,45,2005,1943,-2.7
"{'cat': 'II', 'resp': 'reach'}",80,168,Left,36.519458848507135,51.78643385974314,1.8259729424253566,0.8134594008469139,Left,Correct,0.0,0.0,-45,45,2005,3591,-2.6
"{'cat': 'II', 'resp': 'reach'}",80,169,Right,64.10752461169031,56.21843855909932,3.2053762305845157,0.8830771678677778,Right,Correct,0.0,0.0,-45,45,2011,793,-0.89
"{'cat': 'II', 'resp': 'reach'}",80,170,Right,59.83809216214429,51.67806410454021,2.9919046081072143,0.8117571327128297,Right,Correct,0.0,0.0,-45,45,2003,1163,-1.01
"{'cat': 'II', 'resp': 'reach'}",80,171,Left,18.84213639807645,49.40524836123158,0.9421068199038224,0.7760558265021213,Left,Correct,0.0,0.0,-45,45,2006,908,-2.72
"{'cat': 'II', 'resp': 'reach'}",80,172,Left,19.494520388030054,45.50436005162095,0.9747260194015027,0.7147808162223863,Left,Correct,0.0,0.0,-45,45,2001,948,-2.7
"{'cat': 'II', 'resp': 'reach'}",80,173,Left,36.54226700172492,66.44197460120752,1.8271133500862462,1.0436680964857659,Left,Correct,0.0,0.0,-45,45,2012,2155,-2.69
"{'cat': 'II', 'resp': 'reach'}",80,174,Left,21.292462481440296,46.79723248580846,1.0646231240720148,0.7350892089287473,Left,Correct,0.0,0.0,-45,45,2003,1784,-2.75
"{'cat': 'II', 'resp': 'reach'}",80,175,Left,38.65461295014617,65.21287026956989,1.9327306475073087,1.024361370791925,Right,Incorrect,0.0,0.0,-45,45,2009,891,-0.79
"{'cat': 'II', 'resp': 'reach'}",80,176,Right,68.83225883879474,46.43688984266279,3.4416129419397374,0.7294289599263394,Right,Correct,0.0,0.0,-45,45,2006,809,-0.85
"{'cat': 'II', 'resp': 'reach'}",80,177,Left,61.88093782296309,82.76888048165466,3.094046891148155,1.3001305343350895,Left,Correct,0.0,0.0,-45,45,2005,1503,-2.7
"{'cat': 'II', 'resp': 'reach'}",80,178,Left,44.28637502505117,75.79913969667754,2.2143187512525584,1.190650102097543,Left,Correct,0.0,0.0,-45,45,2005,2482,-2.61
"{'cat': 'II', 'resp': 'reach'}",80,179,Left,61.584111962371765,73.48842123861216,3.0792055981185884,1.1543534214356805,Left,Correct,0.0,0.0,-45,45,2008,1651,-2.74
"{'cat': 'II', 'resp': 'reach'}",80,180,Left,35.82732469216642,66.78822542722135,1.7913662346083212,1.049106991742288,Left,Correct,0.0,0.0,-45,45,2004,7175,-2.6
"{'cat': 'II', 'resp': 'reach'}",80,181,Left,14.434434858799847,34.074923753211394,0.7217217429399924,0.5352476506736062,Left,Correct,0.0,0.0,-45,45,2013,867,-2.71
"{'cat': 'II', 'resp': 'reach'}",80,182,Right,51.87710579570167,38.08975783399958,2.593855289785083,0.5983125169415368,Right,Correct,0.0,0.0,-45,45,2012,1225,-1.01
"{'cat': 'II', 'resp': 'reach'}",80,183,Right,74.64757857819649,62.806547597207846,3.7323789289098244,0.9865629426436292,Right,Correct,0.0,0.0,-45,45,2004,2807,-0.99
"{'cat': 'II', 'resp': 'reach'}",80,184,Left,50.81052068985457,66.9195913313707,2.5405260344927285,1.0511704825393269,Left,Correct,0.0,0.0,-45,45,2001,1775,-2.73
"{'cat': 'II', 'resp': 'reach'}",80,185,Right,68.50672375313707,45.67462575059142,3.4253361876568533,0.717455343567606,Right,Correct,0.0,0.0,-45,45,2005,906,-0.87
"{'cat': 'II', 'resp': 'reach'}",80,186,Right,42.32114941345617,20.704582518223948,2.1160574706728084,0.32522682167448,Right,Correct,0.0,0.0,-45,45,2009,1140,-0.84
"{'cat': 'II', 'resp': 'reach'}",80,187,Left,15.159538340338749,32.57632060693255,0.7579769170169374,0.5117076474986253,Left,Correct,0.0,0.0,-45,45,2008,1039,-2.6
"{'cat': 'II', 'resp': 'reach'}",80,188,Left,61.18153963689537,87.96589395272983,3.0590769818447687,1.3817650310417742,Left,Correct,0.0,0.0,-45,45,2004,1393,-2.68
"{'cat': 'II', 'resp': 'reach'}",80,189,Left,27.652515161959563,38.656384279390736,1.3826257580979782,0.6072130643323895,Left,Correct,0.0,0.0,-45,45,2003,2350,-2.67
"{'cat': 'II', 'resp': 'reach'}",80,190,Right,59.457412989743936,31.201515034463217,2.972870649487197,0.4901122520657056,Right,Correct,0.0,0.0,-45,45,2012,2651,-0.98
"{'cat': 'II', 'resp': 'reach'}",80,191,Left,32.58714376294854,52.46394416783604,1.629357188147427,0.824101707880094,Left,Correct,0.0,0.0,-45,45,2012,3339,-2.71
"{'cat': 'II', 'resp': 'reach'}",80,192,Left,31.789317419658772,55.794103253315285,1.5894658709829386,0.8764117244712284,Left,Correct,0.0,0.0,-45,45,2007,837,-2.74
"{'cat': 'II', 'resp': 'reach'}",80,193,Left,68.67982316886024,83.0792478527299,3.4339911584430123,1.3050057735995093,Right,Incorrect,0.0,0.0,-45,45,2001,875,-0.85
"{'cat': 'II', 'resp': 'reach'}",80,194,Left,32.86821389389656,52.127416286310634,1.643410694694828,0.8188155402784522,Left,Correct,0.0,0.0,-45,45,2009,2020,-2.61
"{'cat': 'II', 'resp': 'reach'}",80,195,Right,70.15686712986864,41.87622136310442,3.5078433564934324,0.6577901469721439,Right,Correct,0.0,0.0,-45,45,2002,794,-0.82
"{'cat': 'II', 'resp': 'reach'}",80,196,Left,20.343865340278537,39.51134530855843,1.017193267013927,0.6206427607740836,Left,Correct,0.0,0.0,-45,45,2011,1062,-2.53
"{'cat': 'II', 'resp': 'reach'}",80,197,Left,50.67653377828103,70.59134548702653,2.5338266889140515,1.1088462619453077,Right,Incorrect,0.0,0.0,-45,45,2002,2320,-0.92
"{'cat': 'II', 'resp': 'reach'}",80,198,Right,58.828021179677016,42.85684991048359,2.9414010589838506,0.6731938241738782,Right,Correct,0.0,0.0,-45,45,2004,897,-0.81
"{'cat': 'II', 'resp': 'reach'}",80,199,Left,19.875352897467003,50.73010562059436,0.9937676448733501,0.7968666356674674,Left,Correct,0.0,0.0,-45,45,2008,1035,-2.58
"{'cat': 'II', 'resp': 'reach'}",80,200,Right,47.463625819487774,26.791905416065106,2.373181290974389,0.42084626615391363,Right,Correct,0.0,0.0,-45,45,2007,1334,-1.05
"{'cat': 'II', 'resp': 'reach'}",80,201,Right,34.834104389914,23.91881530649326,1.7417052194957001,0.3757158722472516,Right,Correct,0.0,0.0,-45,45,2004,1406,-0.78
"{'cat': 'II', 'resp': 'reach'}",80,202,Right,53.85021024757212,33.23196509222955,2.692510512378606,0.522006486990504,Right,Correct,0.0,0.0,-45,45,2007,960,-0.75
"{'cat': 'II', 'resp': 'reach'}",80,203,Left,18.723692998109705,35.28033902092207,0.9361846499054852,0.5541822694214305,Left,Correct,0.0,0.0,-45,45,2003,1788,-2.71
"{'cat': 'II', 'resp': 'reach'}",80,204,Right,69.12934582197421,35.95186470641883,3.4564672910987104,0.5647305702226978,Right,Correct,0.0,0.0,-45,45,2009,1035,-0.84
"{'cat': 'II', 'resp': 'reach'}",80,205,Left,22.750702750724386,37.86757009674209,1.1375351375362193,0.5948224001261073,Left,Correct,0.0,0.0,-45,45,2004,1209,-2.73
"{'cat': 'II', 'resp': 'reach'}",80,206,Left,46.13111349459545,70.9927740811016,2.306555674729773,1.1151518875557433,Left,Correct,0.0,0.0,-45,45,2006,2510,-2.77
"{'cat': 'II', 'resp': 'reach'}",80,207,Right,59.53215927668616,35.43332498570841,2.976607963834308,0.556585367336806,Right,Correct,0.0,0.0,-45,45,2007,937,-0.94
"{'cat': 'II', 'resp': 'reach'}",80,208,Left,64.1413660231623,85.65612193597977,3.207068301158115,1.345483217045328,Left,Correct,0.0,0.0,-45,45,2002,1209,-2.82
"{'cat': 'II', 'resp': 'reach'}",80,209,Left,39.83851602977382,72.85562628113026,1.991925801488691,1.1444135014874113,Left,Correct,0.0,0.0,-45,45,2002,2938,-2.48
"{'cat': 'II', 'resp': 'reach'}",80,210,Right,81.89144847944544,65.36023056560046,4.094572423972272,1.0266761009091272,Right,Correct,0.0,0.0,-45,45,2012,1355,-1.0
"{'cat': 'II', 'resp': 'reach'}",80,211,Left,53.583224949082634,70.03825399477086,2.679161247454132,1.1001583211011405,Right,Incorrect,0.0,0.0,-45,45,2003,1535,-0.91
"{'cat': 'II', 'resp': 'reach'}",80,212,Left,42.67384301852664,67.32892009346592,2.133692150926332,1.0576002036988337,Left,Correct,0.0,0.0,-45,45,2009,3050,-2.58
"{'cat': 'II', 'resp': 'reach'}",80,213,Left,16.514615319288353,43.88421192536414,0.8257307659644176,0.6893315889665079,Left,Correct,0.0,0.0,-45,45,2008,990,-2.66
"{'cat': 'II', 'resp': 'reach'}",80,214,Right,48.44711593118514,19.475282011105907,2.422355796559257,0.30591701446339886,Right,Correct,0.0,0.0,-45,45,2004,1563,-0.86
"{'cat': 'II', 'resp': 'reach'}",80,215,Left,41.777418501283265,57.73737464765133,2.088870925064163,0.906936560153115,Right,Incorrect,0.0,0.0,-45,45,2003,969,-0.92
"{'cat': 'II', 'resp': 'reach'}",80,216,Left,15.690608847161858,41.38619778183866,0.7845304423580929,0.6500928745571926,Left,Correct,0.0,0.0,-45,45,2009,950,-2.55
"{'cat': 'II', 'resp': 'reach'}",80,217,Right,30.44445833566596,13.867386401639148,1.5222229167832981,0.21782839621940273,Right,Correct,0.0,0.0,-45,45,2003,1282,-0.95
"{'cat': 'II', 'resp': 'reach'}",80,218,Right,53.33964387941647,21.775764500000836,2.666982193970824,0.3420529088975202,Right,Correct,0.0,0.0,-45,45,2001,1589,-0.94
"{'cat': 'II', 'resp': 'reach'}",80,219,Left,43.21491445442139,67.87568000375398,2.160745722721069,1.0661886882860256,Left,Correct,0.0,0.0,-45,45,2002,1949,-2.65
"{'cat': 'II', 'resp': 'reach'}",80,220,Left,45.15220272116758,62.30346888103578,2.2576101360583793,0.9786606006491114,Left,Correct,0.0,0.0,-45,45,2006,1927,-2.73
"{'cat': 'II', 'resp': 'reach'}",80,221,Left,49.928444977412134,77.22413064907296,2.4964222488706067,1.2130338076349299,Left,Correct,0.0,0.0,-45,45,2002,1219,-2.83
"{'cat': 'II', 'resp': 'reach'}",80,222,Right,68.89540000566475,39.49862331227743,3.444770000283238,0.6204429241238066,Right,Correct,0.0,0.0,-45,45,2005,2892,-0.89
"{'cat': 'II', 'resp': 'reach'}",80,223,Left,25.32541265071275,48.76547978485779,1.2662706325356374,0.7660063652044541,Left,Correct,0.0,0.0,-45,45,2007,1131,-2.81
"{'cat': 'II', 'resp': 'reach'}",80,224,Left,18.195711079757157,36.20697553833931,0.9097855539878579,0.5687378417997606,Left,Correct,0.0,0.0,-45,45,2004,4416,-2.79
"{'cat': 'II', 'resp': 'reach'}",80,225,Right,68.84347999081957,40.09661316381412,3.4421739995409784,0.6298361267463511,Right,Correct,0.0,0.0,-45,45,2005,2957,-0.97
"{'cat': 'II', 'resp': 'reach'}",80,226,Left,11.591421533382256,34.49695241830756,0.5795710766691129,0.5418768614429583,Left,Correct,0.0,0.0,-45,45,2007,945,-2.66
"{'cat': 'II', 'resp': 'reach'}",80,227,Right,68.59764652632994,59.81651112284582,3.4298823263164966,0.9395955595345228,Left,Incorrect,0.0,0.0,-45,45,2003,1802,-2.62
"{'cat': 'II', 'resp': 'reach'}",80,228,Left,65.27138105171913,75.93075310831378,3.2635690525859564,1.1927174807330945,Left,Correct,0.0,0.0,-45,45,2004,1498,-2.58
"{'cat': 'II', 'resp': 'reach'}",80,229,Right,41.533730708261345,24.302145987043104,2.0766865354130672,0.3817372164968065,Right,Correct,0.0,0.0,-45,45,2004,1033,-0.93
"{'cat': 'II', 'resp': 'reach'}",80,230,Left,30.655809860809626,41.07892111386319,1.5327904930404812,0.6452661839435362,Right,Incorrect,0.0,0.0,-45,45,2007,3396,-0.95
"{'cat': 'II', 'resp': 'reach'}",80,231,Left,64.0852071242014,88.87763250515485,3.2042603562100704,1.3960865867332393,Left,Correct,0.0,0.0,-45,45,2005,1302,-2.45
"{'cat': 'II', 'resp': 'reach'}",80,232,Left,24.226364317932244,44.45983214006297,1.2113182158966123,0.698373410155286,Left,Correct,0.0,0.0,-45,45,2007,1203,-2.53
"{'cat': 'II', 'resp': 'reach'}",80,233,Left,62.26588112676687,75.6715455585925,3.1132940563383436,1.1886458580632977,Right,Incorrect,0.0,0.0,-45,45,2001,3953,-0.88
"{'cat': 'II', 'resp': 'reach'}",80,234,Right,55.70959188615982,37.56381820945216,2.785479594307991,0.590051076637987,Left,Incorrect,0.0,0.0,-45,45,2006,781,-2.51
"{'cat': 'II', 'resp': 'reach'}",80,235,Left,37.66649364357343,55.6013863346524,1.8833246821786715,0.8733845341917595,Left,Correct,0.0,0.0,-45,45,2012,2258,-2.38
"{'cat': 'II', 'resp': 'reach'}",80,236,Left,45.16137524104562,66.37526008434695,2.258068762052281,1.042620147305481,Left,Correct,0.0,0.0,-45,45,2006,1953,-2.56
"{'cat': 'II', 'resp': 'reach'}",80,237,Right,44.067304278902526,21.22546798888513,2.2033652139451263,0.33340887151443427,Right,Correct,0.0,0.0,-45,45,2003,2110,-1.04
"{'cat': 'II', 'resp': 'reach'}",80,238,Left,63.28218305442248,88.9280042552175,3.164109152721124,1.3968778243329656,Left,Correct,0.0,0.0,-45,45,2003,3166,-2.72
"{'cat': 'II', 'resp': 'reach'}",80,239,Right,47.74129951694953,36.599423981222834,2.3870649758474767,0.5749024075251388,Left,Incorrect,0.0,0.0,-45,45,2009,3457,-2.2
"{'cat': 'II', 'resp': 'reach'}",80,240,Left,42.00114079938298,61.5230158688564,2.1000570399691494,0.9664012734014377,Left,Correct,0.0,0.0,-45,45,2001,1678,-2.66
"{'cat': 'II', 'resp': 'reach'}",80,241,Right,46.15309031418208,17.459263680301568,2.3076545157091037,0.2742494725756125,Right,Correct,0.0,0.0,-45,45,2001,8824,-1.04
"{'cat': 'II', 'resp': 'reach'}",80,242,Right,59.20845690669599,40.54870073334804,2.9604228453348,0.6369375016824864,Right,Correct,0.0,0.0,-45,45,2002,919,-1.12
"{'cat': 'II', 'resp': 'reach'}",80,243,Left,59.15758168873799,75.28667783814895,2.9578790844368994,1.1826003700475511,Left,Correct,0.0,0.0,-45,45,2008,1064,-2.67
"{'cat': 'II', 'resp': 'reach'}",80,244,Right,86.65491135749707,60.632536795188514,4.332745567874854,0.9524136608213852,Right,Correct,0.0,0.0,-45,45,2011,1126,-1.02
"{'cat': 'II', 'resp': 'reach'}",80,245,Right,89.0174472253978,67.42301076155135,4.45087236126989,1.0590781764569763,Right,Correct,0.0,0.0,-45,45,2008,788,-1.05
"{'cat': 'II', 'resp': 'reach'}",80,246,Right,53.52921091841666,34.65383365087438,2.676460545920833,0.5443411460815485,Right,Correct,0.0,0.0,-45,45,2004,850,-0.94
"{'cat': 'II', 'resp': 'reach'}",80,247,Left,38.32279037514943,70.34615896188502,1.9161395187574715,1.1049948810145889,Left,Correct,0.0,0.0,-45,45,2012,1025,-2.7
"{'cat': 'II', 'resp': 'reach'}",80,248,Right,76.97672731176029,44.65674112079764,3.848836365588014,0.7014664491917955,Right,Correct,0.0,0.0,-45,45,2008,1143,-1.03
"{'cat': 'II', 'resp': 'reach'}",80,249,Right,69.28640143543984,58.51353487896797,3.464320071771992,0.9191284565566794,Right,Correct,0.0,0.0,-45,45,2007,965,-1.07
"{'cat': 'II', 'resp': 'reach'}",80,250,Right,79.93049971735337,55.58535202652253,3.9965249858676684,0.8731326678686285,Right,Correct,0.0,0.0,-45,45,2009,769,-1.04
"{'cat': 'II', 'resp': 'reach'}",80,251,Right,54.99807910770208,26.392205485831667,2.749903955385104,0.41456779433160507,Right,Correct,0.0,0.0,-45,45,2003,1017,-0.98
"{'cat': 'II', 'resp': 'reach'}",80,252,Right,67.42550143840677,53.637413484202554,3.3712750719203384,0.8425345207976442,Right,Correct,0.0,0.0,-45,45,2008,729,-1.13
"{'cat': 'II', 'resp': 'reach'}",80,253,Right,63.0462040038302,36.41874810561047,3.15231020019151,0.5720643575076152,Right,Correct,0.0,0.0,-45,45,2002,745,-0.94
"{'cat': 'II', 'resp': 'reach'}",80,254,Left,24.71487536653079,52.63206580902613,1.2357437683265395,0.826742556444455,Left,Correct,0.0,0.0,-45,45,2009,1278,-2.7
"{'cat': 'II', 'resp': 'reach'}",80,255,Right,42.666796695405495,32.88755090635048,2.1333398347702746,0.516596441609755,Right,Correct,0.0,0.0,-45,45,2001,1075,-0.93
"{'cat': 'II', 'resp': 'reach'}",80,256,Left,30.325236305097206,48.2196264812296,1.5162618152548604,0.7574321215613736,Left,Correct,0.0,0.0,-45,45,2009,902,-2.65
"{'cat': 'II', 'resp': 'reach'}",80,257,Left,61.62944713556924,70.81180753663713,3.081472356778462,1.112309271722568,Left,Correct,0.0,0.0,-45,45,2003,1294,-2.77
"{'cat': 'II', 'resp': 'reach'}",80,258,Left,45.34220879450015,77.23667866736926,2.2671104397250077,1.213230911445414,Left,Correct,0.0,0.0,-45,45,2004,1130,-2.59
"{'cat': 'II', 'resp': 'reach'}",80,259,Left,47.33430324206376,73.43416290981081,2.366715162103188,1.1535011335998886,Left,Correct,0.0,0.0,-45,45,2010,1321,-2.7
"{'cat': 'II', 'resp': 'reach'}",80,260,Left,27.42104387133012,43.82597689542186,1.3710521935665059,0.6884168352552665,Left,Correct,0.0,0.0,-45,45,2002,883,-2.61
"{'cat': 'II', 'resp': 'reach'}",80,261,Right,59.16030186905695,32.72061258811047,2.9580150934528477,0.5139741806388277,Right,Correct,0.0,0.0,-45,45,2003,948,-0.96
"{'cat': 'II', 'resp': 'reach'}",80,262,Left,14.734359995467951,44.29483120579899,0.7367179997733976,0.6957815815406903,Left,Correct,0.0,0.0,-45,45,2007,768,-2.7
"{'cat': 'II', 'resp': 'reach'}",80,263,Left,33.81937656711516,58.38572894508672,1.690968828355758,0.9171208856418469,Right,Incorrect,0.0,0.0,-45,45,2006,719,-0.95
"{'cat': 'II', 'resp': 'reach'}",80,264,Left,25.65954761134092,51.05052738551617,1.282977380567046,0.8018998089811106,Left,Correct,0.0,0.0,-45,45,2008,876,-2.61
"{'cat': 'II', 'resp': 'reach'}",80,265,Right,51.216124579386,43.199801370482916,2.5608062289693,0.6785808931102371,Right,Correct,0.0,0.0,-45,45,2002,924,-0.98
"{'cat': 'II', 'resp': 'reach'}",80,266,Left,27.610870812515053,39.53273347424464,1.3805435406257527,0.6209787252950513,Right,Incorrect,0.0,0.0,-45,45,2005,1293,-0.89
"{'cat': 'II', 'resp': 'reach'}",80,267,Left,32.822728220740615,60.050156044128705,1.6411364110370306,0.9432656453757773,Left,Correct,0.0,0.0,-45,45,2006,782,-2.81
"{'cat': 'II', 'resp': 'reach'}",80,268,Right,67.9178192246128,42.734234012218295,3.39589096123064,0.6712677781478602,Right,Correct,0.0,0.0,-45,45,2007,995,-0.98
"{'cat': 'II', 'resp': 'reach'}",80,269,Left,43.02337891425559,67.16927453105814,2.1511689457127794,1.0550924970686413,Left,Correct,0.0,0.0,-45,45,2009,2375,-2.5
"{'cat': 'II', 'resp': 'reach'}",80,270,Right,32.43574864455009,17.517747356347698,1.6217874322275043,0.27516813201071977,Right,Correct,0.0,0.0,-45,45,2005,805,-0.97
"{'cat': 'II', 'resp': 'reach'}",80,271,Left,41.3989187484088,74.12038905908773,2.06994593742044,1.1642803487462363,Left,Correct,0.0,0.0,-45,45,2005,2578,-2.68
"{'cat': 'II', 'resp': 'reach'}",80,272,Left,48.49000629257459,79.91269893512717,2.42450031462873,1.255265739515642,Left,Correct,0.0,0.0,-45,45,2009,1340,-2.73
"{'cat': 'II', 'resp': 'reach'}",80,273,Left,12.28731063937342,34.21284371918043,0.6143655319686709,0.5374140924329646,Left,Correct,0.0,0.0,-45,45,2009,915,-2.77
"{'cat': 'II', 'resp': 'reach'}",80,274,Left,61.35028188698565,82.1730138991839,3.0675140943492822,1.2907706839450404,Right,Incorrect,0.0,0.0,-45,45,2006,962,-1.0
"{'cat': 'II', 'resp': 'reach'}",80,275,Right,65.34882368674809,34.02237470114413,3.2674411843374047,0.5344222120939681,Right,Correct,0.0,0.0,-45,45,2006,768,-0.86
"{'cat': 'II', 'resp': 'reach'}",80,276,Right,66.66766885378274,35.96743328940844,3.3333834426891373,0.5649751209524326,Right,Correct,0.0,0.0,-45,45,2006,830,-0.86
"{'cat': 'II', 'resp': 'reach'}",80,277,Right,42.070929152467045,28.32594910697364,2.1035464576233522,0.44494296810213363,Right,Correct,0.0,0.0,-45,45,2007,754,-0.81
"{'cat': 'II', 'resp': 'reach'}",80,278,Left,51.97769065982002,81.6747336012192,2.598884532991001,1.2829437153274683,Left,Correct,0.0,0.0,-45,45,2012,1667,-2.63
"{'cat': 'II', 'resp': 'reach'}",80,279,Left,21.147869313885547,33.94208014359569,1.0573934656942774,0.5331609481333811,Left,Correct,0.0,0.0,-45,45,2003,938,-2.65
"{'cat': 'II', 'resp': 'reach'}",80,280,Right,48.70969974053676,37.56029842345336,2.4354849870268382,0.5899957879688068,Right,Correct,0.0,0.0,-45,45,2006,1205,-0.78
"{'cat': 'II', 'resp': 'reach'}",80,281,Left,52.36322081141351,67.36823621533165,2.6181610405706754,1.0582177798969388,Left,Correct,0.0,0.0,-45,45,2004,2461,-2.64
"{'cat': 'II', 'resp': 'reach'}",80,282,Left,53.885817286313774,80.64651880293319,2.6942908643156884,1.26679255504443,Left,Correct,0.0,0.0,-45,45,2005,3000,-2.48
"{'cat': 'II', 'resp': 'reach'}",80,283,Left,17.81327726497686,45.52984336383325,0.8906638632488431,0.7151811071545626,Left,Correct,0.0,0.0,-45,45,2008,865,-2.74
"{'cat': 'II', 'resp': 'reach'}",80,284,Right,75.58912058148236,51.5404197502341,3.779456029074118,0.8095950202513488,Right,Correct,0.0,0.0,-45,45,2008,917,-1.0
"{'cat': 'II', 'resp': 'reach'}",80,285,Left,31.776282592610123,48.33196182560013,1.5888141296305063,0.7591966810244385,Right,Incorrect,0.0,0.0,-45,45,2001,1700,-0.91
"{'cat': 'II', 'resp': 'reach'}",80,286,Right,51.919702956394104,38.05600581128609,2.595985147819705,0.5977823414085343,Right,Correct,0.0,0.0,-45,45,2005,776,-0.83
"{'cat': 'II', 'resp': 'reach'}",80,287,Right,57.93993377759453,30.686752776188428,2.8969966888797267,0.48202638542099874,Right,Correct,0.0,0.0,-45,45,2009,751,-0.94
"{'cat': 'II', 'resp': 'reach'}",80,288,Right,79.42441991281564,62.0211120710392,3.971220995640782,0.9742253502492298,Right,Correct,0.0,0.0,-45,45,2004,685,-0.89
"{'cat': 'II', 'resp': 'reach'}",80,289,Right,47.941628571894604,24.258852510523116,2.39708142859473,0.38105716415788865,Left,Incorrect,0.0,0.0,-45,45,2002,1493,-2.73
"{'cat': 'II', 'resp': 'reach'}",80,290,Right,66.73102295507398,50.484950157478714,3.336551147753699,0.7930157426579099,Right,Correct,0.0,0.0,-45,45,2008,2231,-0.98
"{'cat': 'II', 'resp': 'reach'}",80,291,Right,63.53249233359789,53.5246462426408,3.176624616679894,0.8407631771093643,Right,Correct,0.0,0.0,-45,45,2012,788,-0.83
"{'cat': 'II', 'resp': 'reach'}",80,292,Left,58.36087816575902,84.87001118311203,2.9180439082879506,1.3331350182147417,Left,Correct,0.0,0.0,-45,45,2008,1094,-2.77
"{'cat': 'II', 'resp': 'reach'}",80,293,Left,16.791531335880713,44.36114840301505,0.8395765667940356,0.6968232896385933,Left,Correct,0.0,0.0,-45,45,2009,895,-2.59
"{'cat': 'II', 'resp': 'reach'}",80,294,Right,55.62706162439166,45.20345142045674,2.7813530812195832,0.71005415449705,Right,Correct,0.0,0.0,-45,45,2003,851,-0.9
"{'cat': 'II', 'resp': 'reach'}",80,295,Right,44.168200368219104,15.472517641706027,2.208410018410955,0.2430417387786106,Right,Correct,0.0,0.0,-45,45,2006,1101,-0.83
"{'cat': 'II', 'resp': 'reach'}",80,296,Right,73.45145262366789,48.39995774107377,3.672572631183394,0.760264758367069,Right,Correct,0.0,0.0,-45,45,2006,1918,-0.95
"{'cat': 'II', 'resp': 'reach'}",80,297,Left,22.502351678361194,44.90447692417531,1.1251175839180596,0.7053578740914077,Left,Correct,0.0,0.0,-45,45,2005,1020,-2.84
"{'cat': 'II', 'resp': 'reach'}",80,298,Right,66.18246060636795,53.20119071427464,3.3091230303183976,0.8356823495509735,Right,Correct,0.0,0.0,-45,45,2002,882,-0.81
"{'cat': 'II', 'resp': 'reach'}",80,299,Left,31.81286191343761,50.7005090120371,1.5906430956718804,0.7964017332273942,Left,Correct,0.0,0.0,-45,45,2003,819,-2.71
"{'cat': 'II', 'resp': 'reach'}",80,300,Right,65.2896106851856,47.18876056170411,3.2644805342592798,0.741239317563287,Right,Correct,0.0,0.0,-45,45,2007,981,-0.93
"{'cat': 'II', 'resp': 'reach'}",80,301,Right,43.96571830521245,18.31323540543631,2.1982859152606222,0.28766362906589604,Right,Correct,0.0,0.0,-45,45,2007,850,-0.93
"{'cat': 'II', 'resp': 'reach'}",80,302,Left,41.238849701899426,53.05782996023237,2.0619424850949715,0.8334304440924121,Right,Incorrect,0.0,0.0,-45,45,2004,1585,-0.83
"{'cat': 'II', 'resp': 'reach'}",80,303,Left,58.50436019564586,81.39153756687219,2.925218009782293,1.2784952824223166,Right,Incorrect,0.0,0.0,-45,45,2002,1139,-1.08
"{'cat': 'II', 'resp': 'reach'}",80,304,Left,38.721035989411114,56.67178969104587,1.9360517994705557,0.8901983907958775,Right,Incorrect,0.0,0.0,-45,45,2005,1131,-0.95
"{'cat': 'II', 'resp': 'reach'}",80,305,Left,39.98410721692191,69.1237907277887,1.9992053608460958,1.0857939656934963,Left,Correct,0.0,0.0,-45,45,2004,2236,-2.84
"{'cat': 'II', 'resp': 'reach'}",80,306,Left,30.44408413636095,58.757566342906706,1.5222042068180475,0.9229616938284531,Left,Correct,0.0,0.0,-45,45,2004,870,-2.66
"{'cat': 'II', 'resp': 'reach'}",80,307,Left,49.683971522094794,69.93822258837808,2.4841985761047396,1.0985870314438817,Right,Incorrect,0.0,0.0,-45,45,2005,750,-0.89
"{'cat': 'II', 'resp': 'reach'}",80,308,Left,34.4770437503519,52.975606960515144,1.7238521875175952,0.8321388882330734,Right,Incorrect,0.0,0.0,-45,45,2007,756,-0.91
"{'cat': 'II', 'resp': 'reach'}",80,309,Left,51.4357506940479,79.06086074515324,2.571787534702395,1.2418850965172952,Right,Incorrect,0.0,0.0,-45,45,2003,1068,-0.89
"{'cat': 'II', 'resp': 'reach'}",80,310,Left,63.96253237788798,88.10036539574203,3.1981266188943995,1.383877303529198,Left,Correct,0.0,0.0,-45,45,2003,1695,-2.59
"{'cat': 'II', 'resp': 'reach'}",80,311,Left,48.13962757281611,75.36368546951562,2.4069813786408054,1.1838100030924104,Left,Correct,0.0,0.0,-45,45,2007,1681,-2.7
"{'cat': 'II', 'resp': 'reach'}",80,312,Left,37.10555881652354,57.15464711208925,1.855277940826177,0.8977830974292833,Left,Correct,0.0,0.0,-45,45,2013,1299,-2.55
"{'cat': 'II', 'resp': 'reach'}",80,313,Right,57.780184882502425,38.08471312891524,2.8890092441251216,0.5982332748993743,Right,Correct,0.0,0.0,-45,45,2003,1306,-0.92
"{'cat': 'II', 'resp': 'reach'}",80,314,Right,62.628865833020946,29.53205522103842,3.1314432916510473,0.4638884386391119,Right,Correct,0.0,0.0,-45,45,2009,777,-0.85
"{'cat': 'II', 'resp': 'reach'}",80,315,Right,41.5300638513683,25.88207347092137,2.076503192568415,0.4065546593795893,Right,Correct,0.0,0.0,-45,45,2004,848,-0.9
"{'cat': 'II', 'resp': 'reach'}",80,316,Right,56.19327483654997,47.420436281853995,2.8096637418274986,0.7448784712654769,Left,Incorrect,0.0,0.0,-45,45,2010,1561,-2.74
"{'cat': 'II', 'resp': 'reach'}",80,317,Right,61.10287753825103,41.23515086489976,3.055143876912551,0.6477202351341795,Right,Correct,0.0,0.0,-45,45,2009,948,-0.91
"{'cat': 'II', 'resp': 'reach'}",80,318,Right,44.218888228026145,25.63242978850056,2.2109444114013073,0.4026332655860477,Right,Correct,0.0,0.0,-45,45,2001,1714,-0.96
"{'cat': 'II', 'resp': 'reach'}",80,319,Right,77.78033522070464,50.842460279415135,3.889016761035232,0.7986314985212073,Right,Correct,0.0,0.0,-45,45,2006,1375,-0.93
"{'cat': 'II', 'resp': 'reach'}",80,320,Right,37.3780305981042,11.998345670789295,1.86890152990521,0.18846957307291276,Right,Correct,0.0,0.0,-45,45,2006,813,-0.86
"{'cat': 'II', 'resp': 'reach'}",80,321,Right,71.46825537454875,52.21351392614697,3.573412768727437,0.8201679588424584,Right,Correct,0.0,0.0,-45,45,2005,1054,-0.87
"{'cat': 'II', 'resp': 'reach'}",80,322,Right,68.84102914038928,43.84602532147739,3.4420514570194642,0.6887317551953271,Right,Correct,0.0,0.0,-45,45,2008,775,-0.84
"{'cat': 'II', 'resp': 'reach'}",80,323,Right,61.37413751021442,51.035278108417174,3.068706875510721,0.801660273896577,Right,Correct,0.0,0.0,-45,45,2012,735,-0.82
"{'cat': 'II', 'resp': 'reach'}",80,324,Right,75.51496845000032,49.320134549835664,3.775748422500016,0.7747188618791193,Right,Correct,0.0,0.0,-45,45,2006,725,-0.9
"{'cat': 'II', 'resp': 'reach'}",80,325,Left,39.76673028884012,63.36044258697547,1.988336514442006,0.9952635047972002,Left,Correct,0.0,0.0,-45,45,2009,1030,-2.79
"{'cat': 'II', 'resp': 'reach'}",80,326,Right,54.85778896106508,31.567674191535808,2.742889448053254,0.49586386665522497,Right,Correct,0.0,0.0,-45,45,2005,738,-0.86
"{'cat': 'II', 'resp': 'reach'}",80,327,Right,60.69661812281648,42.99806337802648,3.034830906140824,0.6754120001349815,Right,Correct,0.0,0.0,-45,45,2002,695,-0.9
"{'cat': 'II', 'resp': 'reach'}",80,328,Left,68.96803901546852,87.52628221541333,3.4484019507734263,1.3748596260198473,Left,Correct,0.0,0.0,-45,45,2004,1170,-2.72
"{'cat': 'II', 'resp': 'reach'}",80,329,Left,24.211342440521555,42.62311436930797,1.2105671220260776,0.6695223148786773,Left,Correct,0.0,0.0,-45,45,2013,860,-2.71
"{'cat': 'II', 'resp': 'reach'}",80,330,Left,57.49726563774325,67.62173827878074,2.8748632818871624,1.0621997809979464,Right,Incorrect,0.0,0.0,-45,45,2012,805,-0.96
"{'cat': 'II', 'resp': 'reach'}",80,331,Left,59.38444612912484,74.1955205229536,2.969222306456242,1.1654605110209089,Left,Correct,0.0,0.0,-45,45,2003,1414,-2.78
"{'cat': 'II', 'resp': 'reach'}",80,332,Right,47.777061024371626,40.662809727856136,2.388853051218581,0.6387299215767621,Right,Correct,0.0,0.0,-45,45,2005,791,-0.85
"{'cat': 'II', 'resp': 'reach'}",80,333,Left,12.853286003767476,33.773486028944475,0.6426643001883738,0.5305126779732474,Left,Correct,0.0,0.0,-45,45,2003,917,-2.74
"{'cat': 'II', 'resp': 'reach'}",80,334,Left,14.006263454077455,37.74802775773414,0.7003131727038727,0.5929446334560058,Left,Correct,0.0,0.0,-45,45,2012,828,-2.74
"{'cat': 'II', 'resp': 'reach'}",80,335,Left,32.58318474485951,40.93967406821679,1.6291592372429755,0.6430788964653521,Right,Incorrect,0.0,0.0,-45,45,2009,891,-0.82
"{'cat': 'II', 'resp': 'reach'}",80,336,Right,72.65160302097946,40.017903957340074,3.6325801510489732,0.6285997654222074,Right,Correct,0.0,0.0,-45,45,2003,879,-0.81
"{'cat': 'II', 'resp': 'reach'}",80,337,Left,56.637021016261386,75.26412400502016,2.831851050813069,1.1822460952652125,Left,Correct,0.0,0.0,-45,45,2005,1573,-2.65
"{'cat': 'II', 'resp': 'reach'}",80,338,Right,87.23072557435432,66.95986700101703,4.3615362787177165,1.0518031312787235,Right,Correct,0.0,0.0,-45,45,2008,848,-0.84
"{'cat': 'II', 'resp': 'reach'}",80,339,Left,24.073742897162624,48.84383210997883,1.2036871448581312,0.7672371206494137,Left,Correct,0.0,0.0,-45,45,2006,911,-2.68
"{'cat': 'II', 'resp': 'reach'}",80,340,Right,52.388519585542184,25.757578671607316,2.6194259792771093,0.4045990996449135,Right,Correct,0.0,0.0,-45,45,2003,770,-0.77
"{'cat': 'II', 'resp': 'reach'}",80,341,Right,72.55466015469223,59.17118965617154,3.6277330077346113,0.9294588736399845,Right,Correct,0.0,0.0,-45,45,2009,666,-0.87
"{'cat': 'II', 'resp': 'reach'}",80,342,Left,46.510750249206275,55.42636838337669,2.3255375124603135,0.870635358641889,Right,Incorrect,0.0,0.0,-45,45,2005,752,-0.78
"{'cat': 'II', 'resp': 'reach'}",80,343,Left,24.41383651735794,37.095264831179676,1.220691825867897,0.5826910573830094,Left,Correct,0.0,0.0,-45,45,2012,722,-2.64
"{'cat': 'II', 'resp': 'reach'}",80,344,Left,30.302574659899243,52.96056977675787,1.5151287329949623,0.8319026847029608,Left,Correct,0.0,0.0,-45,45,2001,1405,-2.69
"{'cat': 'II', 'resp': 'reach'}",80,345,Left,29.727015458560036,54.52562086951519,1.4863507729280019,0.8564864497804561,Left,Correct,0.0,0.0,-45,45,2003,996,-2.77
"{'cat': 'II', 'resp': 'reach'}",80,346,Left,32.099250338346,60.16800539923572,1.6049625169173,0.9451168187169497,Left,Correct,0.0,0.0,-45,45,2007,3502,-2.98
"{'cat': 'II', 'resp': 'reach'}",80,347,Left,38.74183535321531,63.77410838876142,1.9370917676607655,1.0017613520168602,Left,Correct,0.0,0.0,-45,45,2008,1083,-2.69
"{'cat': 'II', 'resp': 'reach'}",80,348,Right,71.97535391045828,46.69062129596057,3.5987676955229144,0.7334145642746643,Right,Correct,0.0,0.0,-45,45,2010,897,-0.9
"{'cat': 'II', 'resp': 'reach'}",80,349,Left,47.47102304883598,75.44696882342548,2.373551152441799,1.1851182149564583,Left,Correct,0.0,0.0,-45,45,2005,1595,-2.88
"{'cat': 'II', 'resp': 'reach'}",80,350,Left,12.56074071769762,34.47284891105747,0.628037035884881,0.5414982444364451,Left,Correct,0.0,0.0,-45,45,2006,787,-2.64
"{'cat': 'II', 'resp': 'reach'}",80,351,Left,55.13973810393703,80.66406797604665,2.7569869051968516,1.2670682168110792,Left,Correct,0.0,0.0,-45,45,2002,1207,-2.65
"{'cat': 'II', 'resp': 'reach'}",80,352,Right,74.27862740764905,51.83723749125731,3.713931370382453,0.8142574224246169,Right,Correct,0.0,0.0,-45,45,2008,714,-0.98
"{'cat': 'II', 'resp': 'reach'}",80,353,Left,53.89936291303238,80.83567255522517,2.694968145651619,1.2697637752374271,Left,Correct,0.0,0.0,-45,45,2001,1320,-2.64
"{'cat': 'II', 'resp': 'reach'}",80,354,Left,12.921751232711134,37.78756683624606,0.6460875616355567,0.5935657118489195,Left,Correct,0.0,0.0,-45,45,2004,741,-2.56
"{'cat': 'II', 'resp': 'reach'}",80,355,Left,54.1757301963166,67.88394447184989,2.70878650981583,1.0663185062473053,Right,Incorrect,0.0,0.0,-45,45,2006,956,-0.99
"{'cat': 'II', 'resp': 'reach'}",80,356,Left,32.856331989531675,41.48659496357905,1.6428165994765838,0.6516699098001763,Right,Incorrect,0.0,0.0,-45,45,2009,771,-0.88
"{'cat': 'II', 'resp': 'reach'}",80,357,Left,63.039992928806946,76.5368948265398,3.151999646440347,1.2022387325781603,Right,Incorrect,0.0,0.0,-45,45,2003,709,-0.84
"{'cat': 'II', 'resp': 'reach'}",80,358,Right,82.04671488168793,59.49376837689988,4.102335744084397,0.934525928336207,Right,Correct,0.0,0.0,-45,45,2009,1024,-0.9
"{'cat': 'II', 'resp': 'reach'}",80,359,Right,76.01559304954245,56.39800622865934,3.800779652477122,0.8858978102253379,Right,Correct,0.0,0.0,-45,45,2009,1412,-0.84
"{'cat': 'II', 'resp': 'reach'}",80,360,Left,15.191292102278457,43.993381015248744,0.7595646051139228,0.6910464130204106,Left,Correct,0.0,0.0,-45,45,2003,753,-2.78
"{'cat': 'II', 'resp': 'reach'}",80,361,Right,79.69219720738846,55.26369440115126,3.984609860369423,0.868080081704441,Right,Correct,0.0,0.0,-45,45,2011,746,-0.87
"{'cat': 'II', 'resp': 'reach'}",80,362,Left,52.76179984889635,74.3061714427905,2.6380899924448173,1.1671986116052715,Left,Correct,0.0,0.0,-45,45,2013,1807,-2.65
"{'cat': 'II', 'resp': 'reach'}",80,363,Right,72.95508855903034,61.00287059700513,3.6477544279515173,0.9582308505772005,Right,Correct,0.0,0.0,-45,45,2002,910,-0.99
"{'cat': 'II', 'resp': 'reach'}",80,364,Left,48.32932562030403,58.42020127797997,2.4164662810152016,0.9176623757806944,Left,Correct,0.0,0.0,-45,45,2002,1469,-2.77
"{'cat': 'II', 'resp': 'reach'}",80,365,Left,34.7912305380455,57.11955630926053,1.739561526902275,0.897231892387407,Left,Correct,0.0,0.0,-45,45,2007,852,-2.9
"{'cat': 'II', 'resp': 'reach'}",80,366,Left,40.63876464701607,49.76309181778852,2.0319382323508033,0.7816768183733939,Left,Correct,0.0,0.0,-45,45,2012,940,-2.6
"{'cat': 'II', 'resp': 'reach'}",80,367,Right,59.61173769502176,32.751862396043386,2.980586884751088,0.5144650514739685,Right,Correct,0.0,0.0,-45,45,2002,778,-0.9
"{'cat': 'II', 'resp': 'reach'}",80,368,Right,88.47045117756579,61.50971173390198,4.42352255887829,0.9661922925382617,Right,Correct,0.0,0.0,-45,45,2006,918,-0.82
"{'cat': 'II', 'resp': 'reach'}",80,369,Left,23.068633583305385,54.942994030360616,1.1534316791652692,0.8630425320600439,Left,Correct,0.0,0.0,-45,45,2007,943,-2.62
"{'cat': 'II', 'resp': 'reach'}",80,370,Left,60.700554370479125,78.11102036816352,3.0350277185239567,1.226965038765126,Right,Incorrect,0.0,0.0,-45,45,2002,893,-0.87
"{'cat': 'II', 'resp': 'reach'}",80,371,Right,84.81310204351354,67.60853681887477,4.240655102175677,1.06199241295066,Right,Correct,0.0,0.0,-45,45,2004,1412,-0.88
"{'cat': 'II', 'resp': 'reach'}",80,372,Left,18.470836166654426,34.529585152440404,0.9235418083327213,0.5423894552320498,Left,Correct,0.0,0.0,-45,45,2001,790,-2.71
"{'cat': 'II', 'resp': 'reach'}",80,373,Right,53.122984346010824,28.23889355175539,2.656149217300541,0.44357550263849455,Right,Correct,0.0,0.0,-45,45,2006,818,-0.81
"{'cat': 'II', 'resp': 'reach'}",80,374,Right,65.852839327776,44.05762536478268,3.2926419663888,0.692055560903063,Right,Correct,0.0,0.0,-45,45,2004,769,-0.92
"{'cat': 'II', 'resp': 'reach'}",80,375,Right,79.70623356129585,57.70488932894483,3.985311678064792,0.9064262819601256,Right,Correct,0.0,0.0,-45,45,2005,853,-0.75
"{'cat': 'II', 'resp': 'reach'}",80,376,Left,13.0334754562402,39.67543504691169,0.65167377281201,0.6232202763567838,Left,Correct,0.0,0.0,-45,45,2001,877,-2.66
"{'cat': 'II', 'resp': 'reach'}",80,377,Right,73.90508213558029,49.24276781498888,3.6952541067790143,0.7735035880499849,Right,Correct,0.0,0.0,-45,45,2006,1613,-1.04
"{'cat': 'II', 'resp': 'reach'}",80,378,Right,86.03979178686521,64.81516035621456,4.30198958934326,1.0181141580816404,Right,Correct,0.0,0.0,-45,45,2007,731,-1.01
"{'cat': 'II', 'resp': 'reach'}",80,379,Left,60.57823340187818,82.8419357991471,3.0289116700939087,1.3012780845787888,Left,Correct,0.0,0.0,-45,45,2002,1211,-2.39
"{'cat': 'II', 'resp': 'reach'}",80,380,Left,22.25767060113418,46.05867041314443,1.112883530056709,0.7234879030202406,Left,Correct,0.0,0.0,-45,45,2009,802,-2.69
"{'cat': 'II', 'resp': 'reach'}",80,381,Right,82.95848338937728,68.4403464794288,4.147924169468864,1.075058448544568,Right,Correct,0.0,0.0,-45,45,2003,870,-0.85
"{'cat': 'II', 'resp': 'reach'}",80,382,Right,50.44752007977075,27.089838777413064,2.5223760039885375,0.4255261924502639,Right,Correct,0.0,0.0,-45,45,2004,1538,-0.94
"{'cat': 'II', 'resp': 'reach'}",80,383,Left,19.392402775058237,40.96174927368418,0.9696201387529118,0.6434256529819663,Left,Correct,0.0,0.0,-45,45,2001,800,-2.61
"{'cat': 'II', 'resp': 'reach'}",80,384,Right,67.40732003921246,53.13318575319577,3.370366001960623,0.8346141301203086,Right,Correct,0.0,0.0,-45,45,2008,807,-1.08
"{'cat': 'II', 'resp': 'reach'}",80,385,Left,31.82625053561106,50.0248981139052,1.5913125267805528,0.7857892620561123,Left,Correct,0.0,0.0,-45,45,2007,729,-2.73
"{'cat': 'II', 'resp': 'reach'}",80,386,Right,49.75541546628004,25.843600181749004,2.4877707733140024,0.4059503223664726,Right,Correct,0.0,0.0,-45,45,2001,822,-0.94
"{'cat': 'II', 'resp': 'reach'}",80,387,Right,58.41990927556867,35.2116131627719,2.9209954637784334,0.5531027261660492,Right,Correct,0.0,0.0,-45,45,2001,760,-0.97
"{'cat': 'II', 'resp': 'reach'}",80,388,Right,71.11516030994268,58.11545546033143,3.5557580154971338,0.9128754396710104,Right,Correct,0.0,0.0,-45,45,2001,746,-0.96
"{'cat': 'II', 'resp': 'reach'}",80,389,Right,85.24733249981922,65.82938878680997,4.262366624990961,1.0340456210147426,Right,Correct,0.0,0.0,-45,45,2012,786,-0.89
"{'cat': 'II', 'resp': 'reach'}",80,390,Right,62.50718429438623,35.476201705515415,3.1253592147193117,0.5572588732765845,Right,Correct,0.0,0.0,-45,45,2001,851,-0.97
"{'cat': 'II', 'resp': 'reach'}",80,391,Right,44.18462129141235,21.672362769253585,2.2092310645706177,0.3404286783091,Right,Correct,0.0,0.0,-45,45,2012,792,-0.93
"{'cat': 'II', 'resp': 'reach'}",80,392,Right,89.7423064950718,66.05579514121041,4.48711532475359,1.0376020037132947,Right,Correct,0.0,0.0,-45,45,2003,876,-0.95
"{'cat': 'II', 'resp': 'reach'}",80,393,Right,74.71628313280951,42.49972433595975,3.7358141566404752,0.6675841087672125,Right,Correct,0.0,0.0,-45,45,2009,697,-0.93
"{'cat': 'II', 'resp': 'reach'}",80,394,Right,57.43158127760344,34.31684088212004,2.871579063880172,0.539047676048391,Right,Correct,0.0,0.0,-45,45,2001,791,-0.89
"{'cat': 'II', 'resp': 'reach'}",80,395,Left,59.42553961752667,82.05721410154403,2.9712769808763335,1.2889517049772778,Left,Correct,0.0,0.0,-45,45,2006,1238,-2.59
"{'cat': 'II', 'resp': 'reach'}",80,396,Left,30.861597662189723,49.311518812058154,1.543079883109486,0.7745835261865839,Left,Correct,0.0,0.0,-45,45,2005,1646,-2.7
"{'cat': 'II', 'resp': 'reach'}",80,397,Left,55.46447540117978,75.28748418122184,2.7732237700589892,1.1826130360549214,Left,Correct,0.0,0.0,-45,45,2004,3276,-2.62
"{'cat': 'II', 'resp': 'reach'}",80,398,Right,47.023443711081505,38.409504468962844,2.3511721855540753,0.60333508533859,Right,Correct,0.0,0.0,-45,45,2005,976,-0.96
"{'cat': 'II', 'resp': 'reach'}",80,399,Left,42.252342841029915,52.20187632416628,2.112617142051496,0.8199851558180187,Right,Incorrect,0.0,0.0,-45,45,2001,758,-0.93
