condition,subject,trial,cat,x,y,xt,yt,resp,fb,rotation,su,target_angle_left,target_angle_right,rt,mt,ep
"{'cat': 'II', 'resp': 'button'}",51,0,Right,46.0165361651746,21.183530085249732,2.30082680825873,0.3327501124645946,Right,Correct,0.0,0.0,-45,45,3148,-1,-1
"{'cat': 'II', 'resp': 'button'}",51,1,Left,25.535809116941778,43.638851661349705,1.2767904558470888,0.6854774789519549,Right,Incorrect,0.0,0.0,-45,45,952,-1,-1
"{'cat': 'II', 'resp': 'button'}",51,2,Right,48.674996502260434,30.962886379635066,2.4337498251130216,0.48636388192098495,Right,Correct,0.0,0.0,-45,45,1264,-1,-1
"{'cat': 'II', 'resp': 'button'}",51,3,Left,23.364310952140116,54.45372002657926,1.1682155476070057,0.8553570339806841,Left,Correct,0.0,0.0,-45,45,1509,-1,-1
"{'cat': 'II', 'resp': 'button'}",51,4,Left,25.62305459344712,45.57290624160919,1.281152729672356,0.7158575372568794,Left,Correct,0.0,0.0,-45,45,978,-1,-1
"{'cat': 'II', 'resp': 'button'}",51,5,Right,70.41568858864109,42.126436545608435,3.5207844294320547,0.6617205178680001,Left,Incorrect,0.0,0.0,-45,45,1553,-1,-1
"{'cat': 'II', 'resp': 'button'}",51,6,Right,57.33813470520561,28.77232297799962,2.8669067352602804,0.451954592471982,Left,Incorrect,0.0,0.0,-45,45,1718,-1,-1
"{'cat': 'II', 'resp': 'button'}",51,7,Left,67.35646196493263,84.5688292072582,3.3678230982466317,1.3284040628010616,Right,Incorrect,0.0,0.0,-45,45,1100,-1,-1
"{'cat': 'II', 'resp': 'button'}",51,8,Left,11.330757182751018,35.76955966081408,0.5665378591375508,0.5618669292627767,Right,Incorrect,0.0,0.0,-45,45,1728,-1,-1
"{'cat': 'II', 'resp': 'button'}",51,9,Left,47.1304175730457,67.97457068740071,2.356520878652285,1.0677420595122908,Right,Incorrect,0.0,0.0,-45,45,4054,-1,-1
"{'cat': 'II', 'resp': 'button'}",51,10,Right,39.584213637692045,19.653336456092635,1.9792106818846023,0.3087138871449454,Right,Correct,0.0,0.0,-45,45,2575,-1,-1
"{'cat': 'II', 'resp': 'button'}",51,11,Right,66.41302688615527,50.10790901090148,3.320651344307763,0.7870931941769694,Left,Incorrect,0.0,0.0,-45,45,1134,-1,-1
"{'cat': 'II', 'resp': 'button'}",51,12,Left,36.21043028102618,46.028295943686196,1.8105215140513087,0.7230107819697071,Right,Incorrect,0.0,0.0,-45,45,2777,-1,-1
"{'cat': 'II', 'resp': 'button'}",51,13,Right,72.77520792288496,51.81159142052531,3.638760396144248,0.8138545748875915,Right,Correct,0.0,0.0,-45,45,3563,-1,-1
"{'cat': 'II', 'resp': 'button'}",51,14,Right,54.28231988594035,26.836151131733246,2.7141159942970177,0.4215412762303929,Right,Correct,0.0,0.0,-45,45,1419,-1,-1
"{'cat': 'II', 'resp': 'button'}",51,15,Right,78.67558976803127,64.80707570033157,3.9337794884015636,1.0179871646039962,Left,Incorrect,0.0,0.0,-45,45,1424,-1,-1
"{'cat': 'II', 'resp': 'button'}",51,16,Right,44.283201627696435,18.508911341148853,2.2141600813848217,0.2907372994764902,Right,Correct,0.0,0.0,-45,45,3521,-1,-1
"{'cat': 'II', 'resp': 'button'}",51,17,Right,79.70156664657151,64.53549405041534,3.9850783323285754,1.0137211700228632,Right,Correct,0.0,0.0,-45,45,1711,-1,-1
"{'cat': 'II', 'resp': 'button'}",51,18,Right,74.12415214254254,47.50128208438759,3.706207607127127,0.7461483941620426,Left,Incorrect,0.0,0.0,-45,45,2375,-1,-1
"{'cat': 'II', 'resp': 'button'}",51,19,Left,10.17292511329278,32.11511856772009,0.508646255664639,0.5044631028075729,Left,Correct,0.0,0.0,-45,45,1031,-1,-1
"{'cat': 'II', 'resp': 'button'}",51,20,Left,36.48396667361671,68.57114818151466,1.8241983336808358,1.077113076876318,Left,Correct,0.0,0.0,-45,45,1288,-1,-1
"{'cat': 'II', 'resp': 'button'}",51,21,Left,53.141810990448384,75.58105731092006,2.657090549522419,1.1872244719926779,Left,Correct,0.0,0.0,-45,45,849,-1,-1
"{'cat': 'II', 'resp': 'button'}",51,22,Left,65.6660706639482,78.35292618050045,3.28330353319741,1.2307648863796177,Left,Correct,0.0,0.0,-45,45,1213,-1,-1
"{'cat': 'II', 'resp': 'button'}",51,23,Right,84.4599091211779,59.635423860391015,4.222995456058896,0.9367510474675893,Left,Incorrect,0.0,0.0,-45,45,660,-1,-1
"{'cat': 'II', 'resp': 'button'}",51,24,Left,41.69893807484404,48.82585519456452,2.0849469037422015,0.7669547399224146,Left,Correct,0.0,0.0,-45,45,845,-1,-1
"{'cat': 'II', 'resp': 'button'}",51,25,Right,61.807265408196315,30.998983599870428,3.090363270409816,0.48693089573051707,Right,Correct,0.0,0.0,-45,45,802,-1,-1
"{'cat': 'II', 'resp': 'button'}",51,26,Left,63.025227426471886,80.34088265611298,3.151261371323594,1.2619916336768207,Left,Correct,0.0,0.0,-45,45,882,-1,-1
"{'cat': 'II', 'resp': 'button'}",51,27,Left,40.01087009590963,64.6648281421268,2.000543504795482,1.0157527451847603,Left,Correct,0.0,0.0,-45,45,1064,-1,-1
"{'cat': 'II', 'resp': 'button'}",51,28,Right,40.58244693692276,25.38454210283013,2.029122346846138,0.39873945492495977,Right,Correct,0.0,0.0,-45,45,938,-1,-1
"{'cat': 'II', 'resp': 'button'}",51,29,Left,15.693282371219858,43.96895776896659,0.7846641185609928,0.6906627735649266,Right,Incorrect,0.0,0.0,-45,45,1104,-1,-1
"{'cat': 'II', 'resp': 'button'}",51,30,Right,59.2042305888157,36.66254332478606,2.960211529440785,0.5758938838553268,Right,Correct,0.0,0.0,-45,45,796,-1,-1
"{'cat': 'II', 'resp': 'button'}",51,31,Left,33.80628626583876,50.03387547146994,1.690314313291938,0.7859302780589824,Left,Correct,0.0,0.0,-45,45,1245,-1,-1
"{'cat': 'II', 'resp': 'button'}",51,32,Left,49.393985182706714,60.56046802941872,2.4696992591353357,0.9512816072959069,Left,Correct,0.0,0.0,-45,45,1707,-1,-1
"{'cat': 'II', 'resp': 'button'}",51,33,Left,57.22989402652883,83.7481445828467,2.861494701326442,1.3155127788662353,Left,Correct,0.0,0.0,-45,45,816,-1,-1
"{'cat': 'II', 'resp': 'button'}",51,34,Right,69.5349290250376,48.25704812229714,3.47674645125188,0.7580199393246893,Left,Incorrect,0.0,0.0,-45,45,885,-1,-1
"{'cat': 'II', 'resp': 'button'}",51,35,Left,55.8774392145892,77.55776365227712,2.79387196072946,1.2182745025942363,Left,Correct,0.0,0.0,-45,45,1494,-1,-1
"{'cat': 'II', 'resp': 'button'}",51,36,Left,40.51494309037461,69.7492669637366,2.02574715451873,1.0956189234327407,Left,Correct,0.0,0.0,-45,45,1323,-1,-1
"{'cat': 'II', 'resp': 'button'}",51,37,Right,64.03648986601073,37.50851119046338,3.201824493300536,0.5891823160152515,Right,Correct,0.0,0.0,-45,45,2818,-1,-1
"{'cat': 'II', 'resp': 'button'}",51,38,Left,46.875207991098364,69.9312790590663,2.343760399554918,1.0984779627405021,Left,Correct,0.0,0.0,-45,45,1223,-1,-1
"{'cat': 'II', 'resp': 'button'}",51,39,Right,64.86663406727469,50.315170616618744,3.2433317033637343,0.7903488518664324,Right,Correct,0.0,0.0,-45,45,992,-1,-1
"{'cat': 'II', 'resp': 'button'}",51,40,Right,52.24792497173559,43.49722781777103,2.61239624858678,0.6832528568191552,Left,Incorrect,0.0,0.0,-45,45,1582,-1,-1
"{'cat': 'II', 'resp': 'button'}",51,41,Right,52.112765223516085,37.38339086425083,2.6056382611758044,0.5872169305270311,Right,Correct,0.0,0.0,-45,45,787,-1,-1
"{'cat': 'II', 'resp': 'button'}",51,42,Left,33.358784212941686,56.284674313483436,1.6679392106470843,0.8841175966646685,Left,Correct,0.0,0.0,-45,45,1434,-1,-1
"{'cat': 'II', 'resp': 'button'}",51,43,Left,40.81532546670553,55.441639138768096,2.0407662733352767,0.8708752311066509,Left,Correct,0.0,0.0,-45,45,1525,-1,-1
"{'cat': 'II', 'resp': 'button'}",51,44,Right,37.46782663426306,16.91602554211507,1.8733913317131532,0.26571630785523,Right,Correct,0.0,0.0,-45,45,1698,-1,-1
"{'cat': 'II', 'resp': 'button'}",51,45,Left,41.06330517329442,67.51616427225359,2.053165258664721,1.0605414283813677,Left,Correct,0.0,0.0,-45,45,1016,-1,-1
"{'cat': 'II', 'resp': 'button'}",51,46,Left,40.799998579597634,61.22611613519004,2.039999928979882,0.9617375832907428,Left,Correct,0.0,0.0,-45,45,641,-1,-1
"{'cat': 'II', 'resp': 'button'}",51,47,Left,26.92500911753359,46.882632679812104,1.3462504558766795,0.7364306720392323,Right,Incorrect,0.0,0.0,-45,45,731,-1,-1
"{'cat': 'II', 'resp': 'button'}",51,48,Left,61.43068802474957,73.91791163172374,3.071534401237478,1.1610998407546143,Left,Correct,0.0,0.0,-45,45,1735,-1,-1
"{'cat': 'II', 'resp': 'button'}",51,49,Right,38.80344798465603,16.87743193367866,1.9401723992328015,0.26511008087153326,Right,Correct,0.0,0.0,-45,45,610,-1,-1
"{'cat': 'II', 'resp': 'button'}",51,50,Right,76.06461554832256,62.71737548324404,3.803230777416128,0.9851622303529604,Left,Incorrect,0.0,0.0,-45,45,964,-1,-1
"{'cat': 'II', 'resp': 'button'}",51,51,Left,23.690027939379412,55.09598032636087,1.1845013969689706,0.8654456351781155,Left,Correct,0.0,0.0,-45,45,966,-1,-1
"{'cat': 'II', 'resp': 'button'}",51,52,Right,33.93829498409169,14.735177973184399,1.6969147492045846,0.23145963434947123,Right,Correct,0.0,0.0,-45,45,1032,-1,-1
"{'cat': 'II', 'resp': 'button'}",51,53,Left,55.921038303172764,66.15391567344102,2.796051915158638,1.039143277429405,Left,Correct,0.0,0.0,-45,45,804,-1,-1
"{'cat': 'II', 'resp': 'button'}",51,54,Left,29.30261214123643,47.408903499873546,1.4651306070618215,0.7446973147497509,Right,Incorrect,0.0,0.0,-45,45,2360,-1,-1
"{'cat': 'II', 'resp': 'button'}",51,55,Right,75.93024095400943,56.43166745553985,3.796512047700472,0.8864265595407311,Left,Incorrect,0.0,0.0,-45,45,2142,-1,-1
"{'cat': 'II', 'resp': 'button'}",51,56,Left,20.524752286817815,36.74391502733976,1.0262376143408907,0.577172067570091,Left,Correct,0.0,0.0,-45,45,1146,-1,-1
"{'cat': 'II', 'resp': 'button'}",51,57,Left,65.73675720981316,77.93712030270594,3.286837860490658,1.2242334229246246,Left,Correct,0.0,0.0,-45,45,1017,-1,-1
"{'cat': 'II', 'resp': 'button'}",51,58,Left,67.5410757832415,83.12336481377093,3.3770537891620744,1.3056987612030355,Right,Incorrect,0.0,0.0,-45,45,684,-1,-1
"{'cat': 'II', 'resp': 'button'}",51,59,Left,29.10650132489055,40.028434111958575,1.4553250662445276,0.6287651727041608,Left,Correct,0.0,0.0,-45,45,1015,-1,-1
"{'cat': 'II', 'resp': 'button'}",51,60,Right,53.547917931850066,45.304315637105354,2.677395896592503,0.7116385259072169,Left,Incorrect,0.0,0.0,-45,45,833,-1,-1
"{'cat': 'II', 'resp': 'button'}",51,61,Right,78.92518598986479,61.82559837838744,3.946259299493239,0.9711542283466751,Left,Incorrect,0.0,0.0,-45,45,716,-1,-1
"{'cat': 'II', 'resp': 'button'}",51,62,Right,36.39665350812558,13.510100596595482,1.819832675406279,0.21221616391761727,Left,Incorrect,0.0,0.0,-45,45,1415,-1,-1
"{'cat': 'II', 'resp': 'button'}",51,63,Left,34.73942430191095,57.63753562154336,1.7369712150955476,0.9053682923983031,Left,Correct,0.0,0.0,-45,45,2039,-1,-1
"{'cat': 'II', 'resp': 'button'}",51,64,Right,37.76737948098926,23.26118598727729,1.8883689740494631,0.3653858550570808,Right,Correct,0.0,0.0,-45,45,1108,-1,-1
"{'cat': 'II', 'resp': 'button'}",51,65,Left,50.66159150484546,60.00255929424146,2.5330795752422732,0.9425179973768746,Left,Correct,0.0,0.0,-45,45,1476,-1,-1
"{'cat': 'II', 'resp': 'button'}",51,66,Left,47.056998428136275,56.565270651891865,2.3528499214068135,0.888525193641509,Right,Incorrect,0.0,0.0,-45,45,2378,-1,-1
"{'cat': 'II', 'resp': 'button'}",51,67,Right,59.549230554878854,31.45366189898008,2.9774615277439427,0.494072965751665,Right,Correct,0.0,0.0,-45,45,975,-1,-1
"{'cat': 'II', 'resp': 'button'}",51,68,Left,30.94376958467436,61.612449713318455,1.547188479233718,0.9678060969451592,Left,Correct,0.0,0.0,-45,45,2287,-1,-1
"{'cat': 'II', 'resp': 'button'}",51,69,Right,48.35795922549443,24.516756901537235,2.4178979612747216,0.38510831685858127,Left,Incorrect,0.0,0.0,-45,45,2045,-1,-1
"{'cat': 'II', 'resp': 'button'}",51,70,Right,49.28184481962846,29.102535348513122,2.464092240981423,0.4571415562586305,Right,Correct,0.0,0.0,-45,45,951,-1,-1
"{'cat': 'II', 'resp': 'button'}",51,71,Right,60.31877429226496,29.786421182322723,3.015938714613248,0.4678840098155823,Right,Correct,0.0,0.0,-45,45,899,-1,-1
"{'cat': 'II', 'resp': 'button'}",51,72,Left,46.24587944008609,64.31017869193828,2.3122939720043045,1.0101819246482007,Left,Correct,0.0,0.0,-45,45,649,-1,-1
"{'cat': 'II', 'resp': 'button'}",51,73,Left,45.536869052123954,57.602785320585504,2.276843452606198,0.9048224359473069,Left,Correct,0.0,0.0,-45,45,722,-1,-1
"{'cat': 'II', 'resp': 'button'}",51,74,Right,68.5004248756764,42.986199231888,3.42502124378382,0.6752256385632327,Right,Correct,0.0,0.0,-45,45,1119,-1,-1
"{'cat': 'II', 'resp': 'button'}",51,75,Right,44.28809472613407,29.755647100072586,2.214404736306703,0.46740061166199237,Right,Correct,0.0,0.0,-45,45,725,-1,-1
"{'cat': 'II', 'resp': 'button'}",51,76,Left,27.187051517528054,52.33118016091514,1.359352575876403,0.8220162557360745,Right,Incorrect,0.0,0.0,-45,45,1634,-1,-1
"{'cat': 'II', 'resp': 'button'}",51,77,Left,48.32877252886803,70.86401726662208,2.4164386264434015,1.113129380243401,Left,Correct,0.0,0.0,-45,45,715,-1,-1
"{'cat': 'II', 'resp': 'button'}",51,78,Right,53.35584445512341,44.67465193256397,2.6677922227561703,0.7017477915651201,Left,Incorrect,0.0,0.0,-45,45,862,-1,-1
"{'cat': 'II', 'resp': 'button'}",51,79,Left,34.78521213475773,64.36063665596753,1.7392606067378864,1.0109745164937476,Left,Correct,0.0,0.0,-45,45,4107,-1,-1
"{'cat': 'II', 'resp': 'button'}",51,80,Right,42.713499376512004,17.22190010273621,2.1356749688256,0.2705209742180669,Right,Correct,0.0,0.0,-45,45,723,-1,-1
"{'cat': 'II', 'resp': 'button'}",51,81,Right,66.84921064570712,43.20006646860498,3.342460532285356,0.6785850572618009,Left,Incorrect,0.0,0.0,-45,45,2656,-1,-1
"{'cat': 'II', 'resp': 'button'}",51,82,Right,52.95902184428719,25.022273390259315,2.6479510922143596,0.3930489512947702,Left,Incorrect,0.0,0.0,-45,45,1221,-1,-1
"{'cat': 'II', 'resp': 'button'}",51,83,Right,43.19582487620862,16.336311969038675,2.159791243810431,0.2566101883434146,Right,Correct,0.0,0.0,-45,45,526,-1,-1
"{'cat': 'II', 'resp': 'button'}",51,84,Right,70.86580647238989,43.239751579262396,3.543290323619494,0.6792084295222921,Left,Incorrect,0.0,0.0,-45,45,1664,-1,-1
"{'cat': 'II', 'resp': 'button'}",51,85,Right,60.62573160913699,36.911575801202126,3.03128658045685,0.5798056768473969,Right,Correct,0.0,0.0,-45,45,764,-1,-1
"{'cat': 'II', 'resp': 'button'}",51,86,Right,83.07266712989266,53.12269788244487,4.153633356494634,0.8344493870317942,Right,Correct,0.0,0.0,-45,45,1240,-1,-1
"{'cat': 'II', 'resp': 'button'}",51,87,Left,54.60612006899858,74.90331488037549,2.730306003449929,1.1765785187885534,Left,Correct,0.0,0.0,-45,45,1296,-1,-1
"{'cat': 'II', 'resp': 'button'}",51,88,Left,27.104768767397523,45.54370942126123,1.3552384383698763,0.7153989146753127,Left,Correct,0.0,0.0,-45,45,486,-1,-1
"{'cat': 'II', 'resp': 'button'}",51,89,Right,68.28265487559325,44.22136102256098,3.4141327437796627,0.694627514601098,Right,Correct,0.0,0.0,-45,45,831,-1,-1
"{'cat': 'II', 'resp': 'button'}",51,90,Left,15.710886477484365,42.03724677531341,0.7855443238742182,0.6603195282323292,Right,Incorrect,0.0,0.0,-45,45,2302,-1,-1
"{'cat': 'II', 'resp': 'button'}",51,91,Left,40.60656881775642,48.88871974075458,2.030328440887821,0.7679422139048245,Left,Correct,0.0,0.0,-45,45,1233,-1,-1
"{'cat': 'II', 'resp': 'button'}",51,92,Right,65.78617973988224,41.84475965197885,3.2893089869941123,0.6572959475694367,Right,Correct,0.0,0.0,-45,45,1525,-1,-1
"{'cat': 'II', 'resp': 'button'}",51,93,Left,12.548081254902097,38.13153563328959,0.627404062745105,0.5989687610782,Right,Incorrect,0.0,0.0,-45,45,1289,-1,-1
"{'cat': 'II', 'resp': 'button'}",51,94,Right,39.38869249104778,19.347223157645185,1.9694346245523888,0.30390547069710216,Right,Correct,0.0,0.0,-45,45,1021,-1,-1
"{'cat': 'II', 'resp': 'button'}",51,95,Right,33.0541349021577,15.485166720379482,1.652706745107885,0.2432404300417867,Right,Correct,0.0,0.0,-45,45,959,-1,-1
"{'cat': 'II', 'resp': 'button'}",51,96,Right,36.78953713578085,26.51396762583216,1.8394768567890423,0.41648042955415965,Left,Incorrect,0.0,0.0,-45,45,893,-1,-1
"{'cat': 'II', 'resp': 'button'}",51,97,Left,49.721384070690185,69.7861555996858,2.4860692035345093,1.0961983687712358,Left,Correct,0.0,0.0,-45,45,655,-1,-1
"{'cat': 'II', 'resp': 'button'}",51,98,Left,67.11037704886502,80.1093089803892,3.355518852443251,1.2583540828847277,Left,Correct,0.0,0.0,-45,45,861,-1,-1
"{'cat': 'II', 'resp': 'button'}",51,99,Right,82.4173677210091,66.03454768521217,4.120868386050455,1.0372682494549372,Left,Incorrect,0.0,0.0,-45,45,1791,-1,-1
"{'cat': 'II', 'resp': 'button'}",51,100,Right,56.05464228806659,37.31500924372342,2.8027321144033293,0.5861427945435836,Right,Correct,0.0,0.0,-45,45,867,-1,-1
"{'cat': 'II', 'resp': 'button'}",51,101,Right,82.69610562750597,65.7239587395924,4.134805281375298,1.0323895297057109,Left,Incorrect,0.0,0.0,-45,45,1179,-1,-1
"{'cat': 'II', 'resp': 'button'}",51,102,Left,66.46980584646872,81.29949932297023,3.3234902923234357,1.2770495490678582,Left,Correct,0.0,0.0,-45,45,1421,-1,-1
"{'cat': 'II', 'resp': 'button'}",51,103,Right,72.69166071755342,45.54234667281967,3.6345830358776707,0.7153775086728492,Right,Correct,0.0,0.0,-45,45,3388,-1,-1
"{'cat': 'II', 'resp': 'button'}",51,104,Left,35.59629937599048,62.92896437253872,1.7798149687995244,0.9884858608539072,Right,Incorrect,0.0,0.0,-45,45,964,-1,-1
"{'cat': 'II', 'resp': 'button'}",51,105,Left,16.03889168353316,36.22760968087378,0.801944584176658,0.5690619621527577,Right,Incorrect,0.0,0.0,-45,45,900,-1,-1
"{'cat': 'II', 'resp': 'button'}",51,106,Right,80.90080778873242,56.73741672063947,4.045040389436621,0.8912292577661183,Left,Incorrect,0.0,0.0,-45,45,743,-1,-1
"{'cat': 'II', 'resp': 'button'}",51,107,Right,50.78342270240558,30.913997535484008,2.539171135120279,0.48559593775284765,Left,Incorrect,0.0,0.0,-45,45,1042,-1,-1
"{'cat': 'II', 'resp': 'button'}",51,108,Right,63.19212858043766,43.451685679897544,3.159606429021883,0.6825374825902947,Right,Correct,0.0,0.0,-45,45,747,-1,-1
"{'cat': 'II', 'resp': 'button'}",51,109,Right,73.05173722064109,53.31575783586466,3.6525868610320544,0.8374819656886242,Left,Incorrect,0.0,0.0,-45,45,1300,-1,-1
"{'cat': 'II', 'resp': 'button'}",51,110,Left,18.598438923165688,41.025350168977155,0.9299219461582844,0.644424693509037,Left,Correct,0.0,0.0,-45,45,1224,-1,-1
"{'cat': 'II', 'resp': 'button'}",51,111,Left,52.87888557345365,65.53874414495442,2.6439442786726826,1.0294801856564493,Left,Correct,0.0,0.0,-45,45,849,-1,-1
"{'cat': 'II', 'resp': 'button'}",51,112,Left,40.69682720846729,60.748798805647816,2.0348413604233646,0.9542399002111379,Left,Correct,0.0,0.0,-45,45,834,-1,-1
"{'cat': 'II', 'resp': 'button'}",51,113,Left,31.528330744720378,49.297617870246924,1.576416537236019,0.7743651707032231,Right,Incorrect,0.0,0.0,-45,45,594,-1,-1
"{'cat': 'II', 'resp': 'button'}",51,114,Right,64.62730537462151,56.02513086008905,3.231365268731076,0.8800406976323129,Right,Correct,0.0,0.0,-45,45,1208,-1,-1
"{'cat': 'II', 'resp': 'button'}",51,115,Left,40.031472225284624,66.35338588059972,2.0015736112642313,1.042276548116504,Right,Incorrect,0.0,0.0,-45,45,1793,-1,-1
"{'cat': 'II', 'resp': 'button'}",51,116,Left,29.594960846566757,53.232713526819204,1.4797480423283378,0.836177508732526,Right,Incorrect,0.0,0.0,-45,45,713,-1,-1
"{'cat': 'II', 'resp': 'button'}",51,117,Left,57.80607136884758,75.64137210678476,2.8903035684423792,1.1881718945906345,Left,Correct,0.0,0.0,-45,45,675,-1,-1
"{'cat': 'II', 'resp': 'button'}",51,118,Left,35.66497352749852,68.18566195992678,1.7832486763749258,1.0710578734673148,Left,Correct,0.0,0.0,-45,45,1280,-1,-1
"{'cat': 'II', 'resp': 'button'}",51,119,Right,41.811596357636994,22.018687162673046,2.0905798178818498,0.3458687291597276,Right,Correct,0.0,0.0,-45,45,1126,-1,-1
"{'cat': 'II', 'resp': 'button'}",51,120,Left,26.173650932906856,39.44628697179593,1.3086825466453427,0.6196208268099442,Right,Incorrect,0.0,0.0,-45,45,734,-1,-1
"{'cat': 'II', 'resp': 'button'}",51,121,Left,41.70699285082053,72.38152088563322,2.0853496425410265,1.1369662713498074,Right,Incorrect,0.0,0.0,-45,45,1061,-1,-1
"{'cat': 'II', 'resp': 'button'}",51,122,Right,67.82091118857721,40.125757304600974,3.3910455594288607,0.630293921839307,Right,Correct,0.0,0.0,-45,45,699,-1,-1
"{'cat': 'II', 'resp': 'button'}",51,123,Right,46.028445146459674,26.57604906331281,2.3014222573229834,0.41745560249372704,Right,Correct,0.0,0.0,-45,45,1641,-1,-1
"{'cat': 'II', 'resp': 'button'}",51,124,Left,45.50873409831939,66.75465523469106,2.2754367049159696,1.0485796723911243,Left,Correct,0.0,0.0,-45,45,1441,-1,-1
"{'cat': 'II', 'resp': 'button'}",51,125,Right,72.37450348415672,46.75495991888935,3.618725174207836,0.7344251930003401,Left,Incorrect,0.0,0.0,-45,45,1649,-1,-1
"{'cat': 'II', 'resp': 'button'}",51,126,Right,50.785047670456095,41.57421836433789,2.539252383522805,0.6530462949607089,Left,Incorrect,0.0,0.0,-45,45,737,-1,-1
"{'cat': 'II', 'resp': 'button'}",51,127,Right,80.06196382785804,59.36713215237768,4.003098191392902,0.9325367311730206,Left,Incorrect,0.0,0.0,-45,45,1068,-1,-1
"{'cat': 'II', 'resp': 'button'}",51,128,Right,57.771640955779446,46.26290177337,2.8885820477889723,0.7266959617248271,Left,Incorrect,0.0,0.0,-45,45,902,-1,-1
"{'cat': 'II', 'resp': 'button'}",51,129,Right,41.50839641345975,18.01079605159811,2.0754198206729875,0.2829129228050234,Right,Correct,0.0,0.0,-45,45,189,-1,-1
"{'cat': 'II', 'resp': 'button'}",51,130,Left,31.367140949572097,56.79258873279435,1.5683570474786048,0.8920958977064659,Right,Incorrect,0.0,0.0,-45,45,716,-1,-1
"{'cat': 'II', 'resp': 'button'}",51,131,Left,53.35176794057797,68.2569549264231,2.667588397028899,1.0721777407663022,Right,Incorrect,0.0,0.0,-45,45,616,-1,-1
"{'cat': 'II', 'resp': 'button'}",51,132,Left,60.44292611771823,83.90278010231525,3.0221463058859115,1.3179417879259672,Left,Correct,0.0,0.0,-45,45,213,-1,-1
"{'cat': 'II', 'resp': 'button'}",51,133,Left,45.51264209579212,72.27781247191335,2.2756321047896058,1.1353372233965187,Left,Correct,0.0,0.0,-45,45,293,-1,-1
"{'cat': 'II', 'resp': 'button'}",51,134,Left,30.47055497846216,43.42213920588442,1.523527748923108,0.6820733676617992,Right,Incorrect,0.0,0.0,-45,45,883,-1,-1
"{'cat': 'II', 'resp': 'button'}",51,135,Left,21.545272572867496,39.16153684418615,1.077263628643375,0.6151479822649062,Left,Correct,0.0,0.0,-45,45,1154,-1,-1
"{'cat': 'II', 'resp': 'button'}",51,136,Left,23.061259922277454,53.16296460498881,1.1530629961138728,0.8350818952304353,Left,Correct,0.0,0.0,-45,45,1254,-1,-1
"{'cat': 'II', 'resp': 'button'}",51,137,Right,80.83616519201992,50.798011992170835,4.041808259600995,0.7979333064578504,Right,Correct,0.0,0.0,-45,45,1105,-1,-1
"{'cat': 'II', 'resp': 'button'}",51,138,Right,70.02041696273517,54.96282010212051,3.5010208481367586,0.863353959266996,Right,Correct,0.0,0.0,-45,45,1047,-1,-1
"{'cat': 'II', 'resp': 'button'}",51,139,Left,44.11099154424039,57.389043759425384,2.2055495772120195,0.9014649913557696,Left,Correct,0.0,0.0,-45,45,1121,-1,-1
"{'cat': 'II', 'resp': 'button'}",51,140,Right,49.021863603620936,39.17203907913601,2.4510931801810467,0.6153129509857299,Right,Correct,0.0,0.0,-45,45,2059,-1,-1
"{'cat': 'II', 'resp': 'button'}",51,141,Right,88.98079374813402,67.55322623154741,4.449039687406701,1.0611235962765933,Right,Correct,0.0,0.0,-45,45,972,-1,-1
"{'cat': 'II', 'resp': 'button'}",51,142,Right,49.489757213231655,38.457960363708466,2.4744878606615828,0.6040962287533698,Left,Incorrect,0.0,0.0,-45,45,750,-1,-1
"{'cat': 'II', 'resp': 'button'}",51,143,Left,42.11354969804784,52.99979985095614,2.105677484902392,0.8325189092674661,Right,Incorrect,0.0,0.0,-45,45,856,-1,-1
"{'cat': 'II', 'resp': 'button'}",51,144,Left,55.35285605549647,67.46698561386117,2.7676428027748234,1.0597689318217727,Left,Correct,0.0,0.0,-45,45,1452,-1,-1
"{'cat': 'II', 'resp': 'button'}",51,145,Left,41.566786934108514,71.80129378542786,2.0783393467054254,1.1278520853727132,Left,Correct,0.0,0.0,-45,45,1159,-1,-1
"{'cat': 'II', 'resp': 'button'}",51,146,Left,19.794004823119625,35.350194403177696,0.9897002411559812,0.5552795551999704,Right,Incorrect,0.0,0.0,-45,45,854,-1,-1
"{'cat': 'II', 'resp': 'button'}",51,147,Left,34.12366834475302,65.95174080286316,1.7061834172376509,1.0359675219886655,Left,Correct,0.0,0.0,-45,45,1866,-1,-1
"{'cat': 'II', 'resp': 'button'}",51,148,Right,46.06268550998134,26.24202750453791,2.303134275499067,0.41220880411778793,Right,Correct,0.0,0.0,-45,45,969,-1,-1
"{'cat': 'II', 'resp': 'button'}",51,149,Left,15.88214236946224,41.38885871209591,0.7941071184731121,0.6501346723519321,Right,Incorrect,0.0,0.0,-45,45,906,-1,-1
"{'cat': 'II', 'resp': 'button'}",51,150,Left,50.510022954738815,80.74279686760892,2.5255011477369407,1.2683048873478657,Left,Correct,0.0,0.0,-45,45,938,-1,-1
"{'cat': 'II', 'resp': 'button'}",51,151,Right,44.82272183783942,26.703729412275152,2.241136091891971,0.41946120072526644,Right,Correct,0.0,0.0,-45,45,861,-1,-1
"{'cat': 'II', 'resp': 'button'}",51,152,Right,45.851287683412394,19.55408492477301,2.29256438417062,0.3071548477366891,Left,Incorrect,0.0,0.0,-45,45,1273,-1,-1
"{'cat': 'II', 'resp': 'button'}",51,153,Left,39.2871840707934,47.984815745866584,1.96435920353967,0.7537437231553715,Right,Incorrect,0.0,0.0,-45,45,993,-1,-1
"{'cat': 'II', 'resp': 'button'}",51,154,Right,74.25996282236687,57.8128678833594,3.712998141118344,0.9081224051265961,Left,Incorrect,0.0,0.0,-45,45,980,-1,-1
"{'cat': 'II', 'resp': 'button'}",51,155,Right,72.68671719528804,54.072732118425705,3.634335859764402,0.8493724899138752,Left,Incorrect,0.0,0.0,-45,45,1946,-1,-1
"{'cat': 'II', 'resp': 'button'}",51,156,Left,38.518609728485416,54.26855492922247,1.9259304864242708,0.8524484674328974,Right,Incorrect,0.0,0.0,-45,45,624,-1,-1
"{'cat': 'II', 'resp': 'button'}",51,157,Left,39.07955063997102,68.66168275754359,1.9539775319985508,1.0785351906710596,Left,Correct,0.0,0.0,-45,45,881,-1,-1
"{'cat': 'II', 'resp': 'button'}",51,158,Left,29.537481717736526,49.82883787144613,1.4768740858868261,0.7827095549692601,Left,Correct,0.0,0.0,-45,45,908,-1,-1
"{'cat': 'II', 'resp': 'button'}",51,159,Right,84.54381235318719,64.7895361910578,4.227190617659359,1.017711654636586,Right,Correct,0.0,0.0,-45,45,2087,-1,-1
"{'cat': 'II', 'resp': 'button'}",51,160,Left,28.154404090520146,61.18299845314594,1.407720204526007,0.9610602923249949,Left,Correct,0.0,0.0,-45,45,1774,-1,-1
"{'cat': 'II', 'resp': 'button'}",51,161,Left,42.28664841813095,61.21658666883414,2.1143324209065475,0.961587894783261,Right,Incorrect,0.0,0.0,-45,45,1483,-1,-1
"{'cat': 'II', 'resp': 'button'}",51,162,Right,79.88366284571777,66.45278816861295,3.9941831422858884,1.0438379556053659,Left,Incorrect,0.0,0.0,-45,45,648,-1,-1
"{'cat': 'II', 'resp': 'button'}",51,163,Left,31.012934910888838,41.93350795585728,1.550646745544442,0.6586900026668518,Right,Incorrect,0.0,0.0,-45,45,1115,-1,-1
"{'cat': 'II', 'resp': 'button'}",51,164,Left,56.911504412067316,85.8027772697407,2.8455752206033655,1.3477868736410932,Right,Incorrect,0.0,0.0,-45,45,265,-1,-1
"{'cat': 'II', 'resp': 'button'}",51,165,Left,52.85867232470681,76.15711445948494,2.6429336162353407,1.1962731565225746,Left,Correct,0.0,0.0,-45,45,967,-1,-1
"{'cat': 'II', 'resp': 'button'}",51,166,Right,46.04297720701794,29.490478906434493,2.302148860350897,0.4632353594164968,Right,Correct,0.0,0.0,-45,45,1105,-1,-1
"{'cat': 'II', 'resp': 'button'}",51,167,Right,52.61448180332866,44.3685936706981,2.630724090166433,0.6969402396298787,Left,Incorrect,0.0,0.0,-45,45,804,-1,-1
"{'cat': 'II', 'resp': 'button'}",51,168,Left,11.570395916997118,30.502145240759727,0.5785197958498558,0.47912657703549816,Left,Correct,0.0,0.0,-45,45,1224,-1,-1
"{'cat': 'II', 'resp': 'button'}",51,169,Left,66.30339687731237,87.96010381969224,3.3151698438656183,1.3816740798447031,Left,Correct,0.0,0.0,-45,45,875,-1,-1
"{'cat': 'II', 'resp': 'button'}",51,170,Left,14.140709133210127,31.794532241134714,0.7070354566605063,0.4994273445653632,Right,Incorrect,0.0,0.0,-45,45,633,-1,-1
"{'cat': 'II', 'resp': 'button'}",51,171,Left,27.899983951204014,59.88747895718366,1.3949991975602005,0.9407103196695076,Left,Correct,0.0,0.0,-45,45,1274,-1,-1
"{'cat': 'II', 'resp': 'button'}",51,172,Right,69.18393353365383,54.740952636197505,3.4591966766826916,0.8598688732619245,Left,Incorrect,0.0,0.0,-45,45,937,-1,-1
"{'cat': 'II', 'resp': 'button'}",51,173,Right,35.81253748305244,18.030576405877902,1.790626874152622,0.28322363188347743,Left,Incorrect,0.0,0.0,-45,45,1512,-1,-1
"{'cat': 'II', 'resp': 'button'}",51,174,Right,32.94910522137618,13.96268687430858,1.6474552610688091,0.21932537254351234,Left,Incorrect,0.0,0.0,-45,45,962,-1,-1
"{'cat': 'II', 'resp': 'button'}",51,175,Left,40.569159301009165,68.84735806117233,2.028457965050458,1.081451771520225,Left,Correct,0.0,0.0,-45,45,1007,-1,-1
"{'cat': 'II', 'resp': 'button'}",51,176,Right,82.52294049456438,51.87166834828428,4.126147024728219,0.8147982610620804,Left,Incorrect,0.0,0.0,-45,45,2243,-1,-1
"{'cat': 'II', 'resp': 'button'}",51,177,Right,57.32744870591324,42.121014482942655,2.866372435295662,0.6616353483068097,Left,Incorrect,0.0,0.0,-45,45,875,-1,-1
"{'cat': 'II', 'resp': 'button'}",51,178,Right,31.533812453918696,13.179910804014558,1.5766906226959347,0.20702955478430438,Right,Correct,0.0,0.0,-45,45,2842,-1,-1
"{'cat': 'II', 'resp': 'button'}",51,179,Right,63.86913477263851,45.4839345689978,3.1934567386319253,0.7144599734916116,Right,Correct,0.0,0.0,-45,45,1563,-1,-1
"{'cat': 'II', 'resp': 'button'}",51,180,Left,48.331255965167955,55.409060482595216,2.4165627982583975,0.8703634867721683,Right,Incorrect,0.0,0.0,-45,45,910,-1,-1
"{'cat': 'II', 'resp': 'button'}",51,181,Right,42.16003795525768,17.363101507562494,2.108001897762884,0.272738960698461,Right,Correct,0.0,0.0,-45,45,943,-1,-1
"{'cat': 'II', 'resp': 'button'}",51,182,Right,52.77640162184211,31.471790325398125,2.638820081092106,0.49435772640794534,Right,Correct,0.0,0.0,-45,45,1372,-1,-1
"{'cat': 'II', 'resp': 'button'}",51,183,Left,64.29807952504476,80.43151636235979,3.2149039762522373,1.2634153046053838,Left,Correct,0.0,0.0,-45,45,598,-1,-1
"{'cat': 'II', 'resp': 'button'}",51,184,Right,45.21830432017783,33.02751333167832,2.2609152160088914,0.5187949662456978,Left,Incorrect,0.0,0.0,-45,45,1043,-1,-1
"{'cat': 'II', 'resp': 'button'}",51,185,Left,54.94510705239962,71.19140400831155,2.747255352619981,1.1182719591562724,Left,Correct,0.0,0.0,-45,45,862,-1,-1
"{'cat': 'II', 'resp': 'button'}",51,186,Left,44.91250419433189,63.933315514430014,2.2456252097165943,1.0042621716988585,Left,Correct,0.0,0.0,-45,45,679,-1,-1
"{'cat': 'II', 'resp': 'button'}",51,187,Right,32.503200240972646,14.713765876414698,1.6251600120486325,0.231123293919923,Right,Correct,0.0,0.0,-45,45,616,-1,-1
"{'cat': 'II', 'resp': 'button'}",51,188,Right,60.63424406450178,27.511099615979504,3.031712203225089,0.43214334222869094,Right,Correct,0.0,0.0,-45,45,1001,-1,-1
"{'cat': 'II', 'resp': 'button'}",51,189,Left,47.30287100947591,75.29114698681862,2.365143550473795,1.182670571270693,Left,Correct,0.0,0.0,-45,45,714,-1,-1
"{'cat': 'II', 'resp': 'button'}",51,190,Right,41.441858569471954,31.051755818377423,2.0720929284735976,0.4877598398003931,Right,Correct,0.0,0.0,-45,45,957,-1,-1
"{'cat': 'II', 'resp': 'button'}",51,191,Right,51.841594482781176,43.62444147316847,2.5920797241390585,0.6852511242453198,Left,Incorrect,0.0,0.0,-45,45,1148,-1,-1
"{'cat': 'II', 'resp': 'button'}",51,192,Right,62.94183386468803,41.504122442026464,3.1470916932344015,0.651945230787808,Left,Incorrect,0.0,0.0,-45,45,1093,-1,-1
"{'cat': 'II', 'resp': 'button'}",51,193,Right,54.6609747057575,45.92516645382786,2.733048735287875,0.7213908277311701,Right,Correct,0.0,0.0,-45,45,481,-1,-1
"{'cat': 'II', 'resp': 'button'}",51,194,Left,57.262042913311575,67.71730039080872,2.8631021456655787,1.0637008671434893,Left,Correct,0.0,0.0,-45,45,634,-1,-1
"{'cat': 'II', 'resp': 'button'}",51,195,Left,40.068748756166634,54.455189597386116,2.0034374378083317,0.8553801179449376,Right,Incorrect,0.0,0.0,-45,45,837,-1,-1
"{'cat': 'II', 'resp': 'button'}",51,196,Left,56.575708350714336,65.27893699276747,2.8287854175357166,1.0253991444531463,Left,Correct,0.0,0.0,-45,45,601,-1,-1
"{'cat': 'II', 'resp': 'button'}",51,197,Left,33.40468902841506,59.47071577197573,1.6702344514207532,0.9341638188648281,Left,Correct,0.0,0.0,-45,45,751,-1,-1
"{'cat': 'II', 'resp': 'button'}",51,198,Right,77.12391644845852,54.154834676501764,3.8561958224229262,0.8506621538803387,Left,Incorrect,0.0,0.0,-45,45,618,-1,-1
"{'cat': 'II', 'resp': 'button'}",51,199,Right,41.92550851461008,29.951425959840797,2.096275425730504,0.47047589879987234,Right,Correct,0.0,0.0,-45,45,266,-1,-1
"{'cat': 'II', 'resp': 'button'}",51,200,Left,48.606910440438426,56.41706633177307,2.4303455220219212,0.8861972056249318,Left,Correct,0.0,0.0,-45,45,698,-1,-1
"{'cat': 'II', 'resp': 'button'}",51,201,Left,32.3243484618754,52.9839616827972,1.61621742309377,0.832270123903794,Left,Correct,0.0,0.0,-45,45,750,-1,-1
"{'cat': 'II', 'resp': 'button'}",51,202,Right,34.88441345298408,23.265242325282877,1.7442206726492038,0.365449571865475,Right,Correct,0.0,0.0,-45,45,1046,-1,-1
"{'cat': 'II', 'resp': 'button'}",51,203,Left,66.47045095202296,80.61904756250304,3.3235225476011476,1.2663610378088284,Right,Incorrect,0.0,0.0,-45,45,2666,-1,-1
"{'cat': 'II', 'resp': 'button'}",51,204,Left,28.65423655973226,55.04884438410534,1.432711827986613,0.8647052255285654,Left,Correct,0.0,0.0,-45,45,658,-1,-1
"{'cat': 'II', 'resp': 'button'}",51,205,Left,23.963493721164166,45.29762951379919,1.1981746860582083,0.7115335005279186,Left,Correct,0.0,0.0,-45,45,704,-1,-1
"{'cat': 'II', 'resp': 'button'}",51,206,Left,58.35607372324726,77.6942000177297,2.9178036861623635,1.220417640011178,Right,Incorrect,0.0,0.0,-45,45,3632,-1,-1
"{'cat': 'II', 'resp': 'button'}",51,207,Left,49.17154938555414,70.94479772539314,2.458577469277707,1.1143982767225447,Right,Incorrect,0.0,0.0,-45,45,1038,-1,-1
"{'cat': 'II', 'resp': 'button'}",51,208,Left,28.585644915404302,57.41377145585687,1.4292822457702152,0.9018534131030165,Right,Incorrect,0.0,0.0,-45,45,871,-1,-1
"{'cat': 'II', 'resp': 'button'}",51,209,Left,23.395646310191903,44.958343598936914,1.1697823155095952,0.7062040098399295,Left,Correct,0.0,0.0,-45,45,808,-1,-1
"{'cat': 'II', 'resp': 'button'}",51,210,Right,52.639801206651754,28.6768090637622,2.631990060332588,0.45045426341556266,Left,Incorrect,0.0,0.0,-45,45,1482,-1,-1
"{'cat': 'II', 'resp': 'button'}",51,211,Right,55.33864109831392,29.452042640021677,2.7669320549156957,0.46263160395552716,Right,Correct,0.0,0.0,-45,45,654,-1,-1
"{'cat': 'II', 'resp': 'button'}",51,212,Left,38.090727352222906,64.23960863745735,1.9045363676111453,1.009073412824597,Left,Correct,0.0,0.0,-45,45,1006,-1,-1
"{'cat': 'II', 'resp': 'button'}",51,213,Left,29.85448393063612,40.054639588174545,1.492724196531806,0.6291768073619803,Right,Incorrect,0.0,0.0,-45,45,1026,-1,-1
"{'cat': 'II', 'resp': 'button'}",51,214,Right,52.780756795328344,33.25189820926994,2.639037839766417,0.5223195956607902,Right,Correct,0.0,0.0,-45,45,793,-1,-1
"{'cat': 'II', 'resp': 'button'}",51,215,Right,65.45126654434387,55.283832536071856,3.2725633272171932,0.8683964107880585,Left,Incorrect,0.0,0.0,-45,45,834,-1,-1
"{'cat': 'II', 'resp': 'button'}",51,216,Right,43.96095647581443,33.73889483460185,2.1980478237907217,0.5299693207631191,Right,Correct,0.0,0.0,-45,45,2051,-1,-1
"{'cat': 'II', 'resp': 'button'}",51,217,Left,57.931395333356306,86.52047131209137,2.8965697666678154,1.3590603852959637,Left,Correct,0.0,0.0,-45,45,852,-1,-1
"{'cat': 'II', 'resp': 'button'}",51,218,Left,46.252496777047,72.62093239205008,2.31262483885235,1.140726938498528,Left,Correct,0.0,0.0,-45,45,489,-1,-1
"{'cat': 'II', 'resp': 'button'}",51,219,Right,55.24401993204341,44.644251528005924,2.7622009966021706,0.7012702631269915,Right,Correct,0.0,0.0,-45,45,709,-1,-1
"{'cat': 'II', 'resp': 'button'}",51,220,Right,77.47978785259468,61.699515878043556,3.873989392629734,0.9691737290625423,Right,Correct,0.0,0.0,-45,45,2880,-1,-1
"{'cat': 'II', 'resp': 'button'}",51,221,Left,34.49774646888928,64.37897239801923,1.7248873234444642,1.0112625336563865,Right,Incorrect,0.0,0.0,-45,45,981,-1,-1
"{'cat': 'II', 'resp': 'button'}",51,222,Left,30.748866291968646,43.38939121429099,1.5374433145984323,0.6815589634127504,Left,Correct,0.0,0.0,-45,45,883,-1,-1
"{'cat': 'II', 'resp': 'button'}",51,223,Right,67.24673799208925,43.862637844984825,3.362336899604463,0.6889927041043699,Left,Incorrect,0.0,0.0,-45,45,1352,-1,-1
"{'cat': 'II', 'resp': 'button'}",51,224,Left,42.492138822784284,63.72654943106263,2.124606941139214,1.001014297656266,Left,Correct,0.0,0.0,-45,45,9010,-1,-1
"{'cat': 'II', 'resp': 'button'}",51,225,Right,76.05412923600663,61.90817022299633,3.802706461800332,0.9724512638487584,Right,Correct,0.0,0.0,-45,45,2178,-1,-1
"{'cat': 'II', 'resp': 'button'}",51,226,Right,59.92342365419514,39.4097395780285,2.996171182709757,0.6190467416911062,Left,Incorrect,0.0,0.0,-45,45,1094,-1,-1
"{'cat': 'II', 'resp': 'button'}",51,227,Right,55.16386536529269,40.52242869775112,2.7581932682646344,0.6365248215123555,Right,Correct,0.0,0.0,-45,45,672,-1,-1
"{'cat': 'II', 'resp': 'button'}",51,228,Left,21.773869359756343,35.23314150017664,1.0886934679878173,0.5534408924992231,Left,Correct,0.0,0.0,-45,45,1267,-1,-1
"{'cat': 'II', 'resp': 'button'}",51,229,Left,45.77000277070369,75.05952571692488,2.2885001385351846,1.1790322728711269,Left,Correct,0.0,0.0,-45,45,1183,-1,-1
"{'cat': 'II', 'resp': 'button'}",51,230,Left,42.49943432040804,55.32064024648753,2.1249717160204025,0.8689745849512452,Right,Incorrect,0.0,0.0,-45,45,1083,-1,-1
"{'cat': 'II', 'resp': 'button'}",51,231,Right,43.52934473615688,16.521241170270258,2.1764672368078437,0.25951504944353143,Left,Incorrect,0.0,0.0,-45,45,662,-1,-1
"{'cat': 'II', 'resp': 'button'}",51,232,Right,73.80378155116544,51.63966133069924,3.6901890775582724,0.8111539033519484,Left,Incorrect,0.0,0.0,-45,45,843,-1,-1
"{'cat': 'II', 'resp': 'button'}",51,233,Left,43.98522412977778,57.87441963594289,2.199261206488889,0.9090892577952553,Right,Incorrect,0.0,0.0,-45,45,2074,-1,-1
"{'cat': 'II', 'resp': 'button'}",51,234,Left,48.271669249617744,62.81339815162176,2.413583462480887,0.9866705509007281,Right,Incorrect,0.0,0.0,-45,45,1321,-1,-1
"{'cat': 'II', 'resp': 'button'}",51,235,Right,61.97022877697408,30.388850535705927,3.098511438848704,0.47734694797006,Left,Incorrect,0.0,0.0,-45,45,122,-1,-1
"{'cat': 'II', 'resp': 'button'}",51,236,Left,12.287159822148311,34.887900345417485,0.6143579911074155,0.5480178571216818,Left,Correct,0.0,0.0,-45,45,720,-1,-1
"{'cat': 'II', 'resp': 'button'}",51,237,Left,48.51626215721667,69.22748586681989,2.4258131078608334,1.087422805128463,Right,Incorrect,0.0,0.0,-45,45,1172,-1,-1
"{'cat': 'II', 'resp': 'button'}",51,238,Right,76.4016381105093,46.00320816372381,3.8200819055254644,0.7226167040435837,Left,Incorrect,0.0,0.0,-45,45,179,-1,-1
"{'cat': 'II', 'resp': 'button'}",51,239,Left,14.773275476657567,38.438176266849176,0.7386637738328784,0.6037854608866146,Right,Incorrect,0.0,0.0,-45,45,293,-1,-1
"{'cat': 'II', 'resp': 'button'}",51,240,Right,82.82329914127737,64.06520432589073,4.141164957063869,1.0063338763047367,Right,Correct,0.0,0.0,-45,45,285,-1,-1
"{'cat': 'II', 'resp': 'button'}",51,241,Right,80.41175695086343,52.732170088363006,4.0205878475431716,0.8283149907872432,Right,Correct,0.0,0.0,-45,45,485,-1,-1
"{'cat': 'II', 'resp': 'button'}",51,242,Left,32.42525989649653,51.403404158509346,1.6212629948248263,0.8074427843694,Left,Correct,0.0,0.0,-45,45,509,-1,-1
"{'cat': 'II', 'resp': 'button'}",51,243,Right,65.27742962957899,37.630983888302715,3.2638714814789496,0.5911061126542384,Left,Incorrect,0.0,0.0,-45,45,870,-1,-1
"{'cat': 'II', 'resp': 'button'}",51,244,Left,19.16718388976393,48.37243783461602,0.9583591944881965,0.7598324766872934,Right,Incorrect,0.0,0.0,-45,45,270,-1,-1
"{'cat': 'II', 'resp': 'button'}",51,245,Left,21.14586379966626,42.93794308006126,1.057293189983313,0.6744676327028857,Right,Incorrect,0.0,0.0,-45,45,254,-1,-1
"{'cat': 'II', 'resp': 'button'}",51,246,Left,51.7592234135569,82.0745343387551,2.587961170677845,1.2892237706271814,Left,Correct,0.0,0.0,-45,45,587,-1,-1
"{'cat': 'II', 'resp': 'button'}",51,247,Right,38.42640605220911,18.787786867914043,1.9213203026104555,0.29511786600724776,Left,Incorrect,0.0,0.0,-45,45,296,-1,-1
"{'cat': 'II', 'resp': 'button'}",51,248,Right,42.902733859652166,14.980686896179499,2.145136692982608,0.23531607949383193,Right,Correct,0.0,0.0,-45,45,1288,-1,-1
"{'cat': 'II', 'resp': 'button'}",51,249,Left,49.197517616460246,67.56167906843902,2.459875880823012,1.0612563731279965,Left,Correct,0.0,0.0,-45,45,627,-1,-1
"{'cat': 'II', 'resp': 'button'}",51,250,Right,38.521324300818414,14.084124730801456,1.9260662150409207,0.2212329139326409,Right,Correct,0.0,0.0,-45,45,860,-1,-1
"{'cat': 'II', 'resp': 'button'}",51,251,Right,50.66438914969846,19.56935842717989,2.5332194574849227,0.3073947633514692,Right,Correct,0.0,0.0,-45,45,805,-1,-1
"{'cat': 'II', 'resp': 'button'}",51,252,Left,37.64515732915749,68.11134523599627,1.8822578664578744,1.0698905090976203,Left,Correct,0.0,0.0,-45,45,591,-1,-1
"{'cat': 'II', 'resp': 'button'}",51,253,Right,39.91515050233039,26.07640584774743,1.9957575251165196,0.40960722521654624,Right,Correct,0.0,0.0,-45,45,872,-1,-1
"{'cat': 'II', 'resp': 'button'}",51,254,Right,31.715589742783237,11.151224182784638,1.585779487139162,0.17516301985584531,Right,Correct,0.0,0.0,-45,45,753,-1,-1
"{'cat': 'II', 'resp': 'button'}",51,255,Left,30.85614020235259,41.05371495461965,1.5428070101176297,0.6448702465200126,Left,Correct,0.0,0.0,-45,45,633,-1,-1
"{'cat': 'II', 'resp': 'button'}",51,256,Left,46.135922448280056,62.61836718018596,2.306796122414003,0.9836070115653021,Left,Correct,0.0,0.0,-45,45,605,-1,-1
"{'cat': 'II', 'resp': 'button'}",51,257,Left,43.913667330088686,66.33343041012523,2.195683366504434,1.041963088319296,Left,Correct,0.0,0.0,-45,45,484,-1,-1
"{'cat': 'II', 'resp': 'button'}",51,258,Right,70.68082450512676,43.17130744446632,3.5340412252563387,0.6781333115670086,Right,Correct,0.0,0.0,-45,45,1176,-1,-1
"{'cat': 'II', 'resp': 'button'}",51,259,Right,68.82700134432689,44.3376186956271,3.4413500672163444,0.6964536858592378,Right,Correct,0.0,0.0,-45,45,584,-1,-1
"{'cat': 'II', 'resp': 'button'}",51,260,Right,58.83460458340037,51.68645750804607,2.9417302291700183,0.8118889759867927,Right,Correct,0.0,0.0,-45,45,784,-1,-1
"{'cat': 'II', 'resp': 'button'}",51,261,Left,47.14901707111032,67.84232894772215,2.357450853555516,1.0656648111229305,Left,Correct,0.0,0.0,-45,45,647,-1,-1
"{'cat': 'II', 'resp': 'button'}",51,262,Left,32.08259198549827,62.466403420187376,1.6041295992749134,0.9812199704051848,Left,Correct,0.0,0.0,-45,45,481,-1,-1
"{'cat': 'II', 'resp': 'button'}",51,263,Right,47.04688120331944,29.691633370874463,2.3523440601659718,0.46639508635510385,Right,Correct,0.0,0.0,-45,45,697,-1,-1
"{'cat': 'II', 'resp': 'button'}",51,264,Right,83.45451222980978,53.35168741897336,4.172725611490489,0.8380463462603286,Left,Incorrect,0.0,0.0,-45,45,533,-1,-1
"{'cat': 'II', 'resp': 'button'}",51,265,Right,55.45797936033322,35.443625520556466,2.7728989680166607,0.5567471677598395,Right,Correct,0.0,0.0,-45,45,6632,-1,-1
"{'cat': 'II', 'resp': 'button'}",51,266,Left,32.68823389769085,58.8228007547791,1.6344116948845424,0.9239863935739507,Left,Correct,0.0,0.0,-45,45,604,-1,-1
"{'cat': 'II', 'resp': 'button'}",51,267,Right,40.40314994054162,25.804939772711485,2.020157497027081,0.4053430460813873,Left,Incorrect,0.0,0.0,-45,45,574,-1,-1
"{'cat': 'II', 'resp': 'button'}",51,268,Left,24.491287706313,44.194746748967574,1.22456438531565,0.6942094585690897,Left,Correct,0.0,0.0,-45,45,759,-1,-1
"{'cat': 'II', 'resp': 'button'}",51,269,Left,58.32716883714541,71.23727532981886,2.91635844185727,1.1189925041895614,Left,Correct,0.0,0.0,-45,45,493,-1,-1
"{'cat': 'II', 'resp': 'button'}",51,270,Right,48.37711136571931,22.993092397186885,2.4188555682859656,0.36117465079156824,Right,Correct,0.0,0.0,-45,45,560,-1,-1
"{'cat': 'II', 'resp': 'button'}",51,271,Left,54.58701512850232,81.20986798532631,2.729350756425116,1.2756416233084904,Left,Correct,0.0,0.0,-45,45,763,-1,-1
"{'cat': 'II', 'resp': 'button'}",51,272,Right,46.78481716712574,29.597609560395526,2.3392408583562867,0.46491816379378803,Right,Correct,0.0,0.0,-45,45,938,-1,-1
"{'cat': 'II', 'resp': 'button'}",51,273,Right,65.93551435224416,55.504645694672504,3.2967757176122077,0.8718649357724374,Left,Incorrect,0.0,0.0,-45,45,474,-1,-1
"{'cat': 'II', 'resp': 'button'}",51,274,Left,18.87560050698605,38.76008351992978,0.9437800253493025,0.608841968193691,Left,Correct,0.0,0.0,-45,45,975,-1,-1
"{'cat': 'II', 'resp': 'button'}",51,275,Left,41.83113760734677,59.60670196027842,2.0915568803673383,0.9362998849156351,Left,Correct,0.0,0.0,-45,45,1350,-1,-1
"{'cat': 'II', 'resp': 'button'}",51,276,Left,10.992799618696388,30.58060347333057,0.5496399809348194,0.48035899607078913,Left,Correct,0.0,0.0,-45,45,692,-1,-1
"{'cat': 'II', 'resp': 'button'}",51,277,Left,29.01262546082461,58.63759651442862,1.4506312730412305,0.9210772121694571,Left,Correct,0.0,0.0,-45,45,650,-1,-1
"{'cat': 'II', 'resp': 'button'}",51,278,Right,82.70996286455467,64.7595931707688,4.135498143227733,1.017241310773755,Right,Correct,0.0,0.0,-45,45,690,-1,-1
"{'cat': 'II', 'resp': 'button'}",51,279,Left,25.84355305123729,43.09754347559885,1.2921776525618645,0.6769746298535402,Left,Correct,0.0,0.0,-45,45,677,-1,-1
"{'cat': 'II', 'resp': 'button'}",51,280,Right,44.545758136094,22.08863719961828,2.2272879068047002,0.346967501770655,Right,Correct,0.0,0.0,-45,45,2482,-1,-1
"{'cat': 'II', 'resp': 'button'}",51,281,Left,59.002265922922064,70.52604584237152,2.950113296146103,1.1078205375256567,Right,Incorrect,0.0,0.0,-45,45,600,-1,-1
"{'cat': 'II', 'resp': 'button'}",51,282,Right,49.54281034156193,38.08014936412604,2.4771405170780967,0.5981615874497019,Right,Correct,0.0,0.0,-45,45,1226,-1,-1
"{'cat': 'II', 'resp': 'button'}",51,283,Left,48.80230168919282,60.35398551683876,2.4401150844596406,0.948038187572827,Left,Correct,0.0,0.0,-45,45,843,-1,-1
"{'cat': 'II', 'resp': 'button'}",51,284,Left,27.071253577678412,52.35622044760848,1.3535626788839208,0.8224095876396725,Left,Correct,0.0,0.0,-45,45,598,-1,-1
"{'cat': 'II', 'resp': 'button'}",51,285,Right,60.275181051207326,44.034315021789205,3.013759052560366,0.6916894028915582,Left,Incorrect,0.0,0.0,-45,45,1042,-1,-1
"{'cat': 'II', 'resp': 'button'}",51,286,Left,27.740115747870725,40.09612251692403,1.3870057873935364,0.629828419683024,Left,Correct,0.0,0.0,-45,45,2141,-1,-1
"{'cat': 'II', 'resp': 'button'}",51,287,Right,54.34958054405992,23.650610194954638,2.717479027202996,0.3715029162069268,Left,Incorrect,0.0,0.0,-45,45,874,-1,-1
"{'cat': 'II', 'resp': 'button'}",51,288,Right,58.88423868826265,34.974953854522006,2.9442119344131323,0.5493852904450418,Left,Incorrect,0.0,0.0,-45,45,657,-1,-1
"{'cat': 'II', 'resp': 'button'}",51,289,Left,64.08460185816284,89.39789291557568,3.204230092908142,1.4042588181498976,Left,Correct,0.0,0.0,-45,45,739,-1,-1
"{'cat': 'II', 'resp': 'button'}",51,290,Right,78.91099242952728,61.45917644742514,3.945549621476364,0.9653984861145484,Left,Incorrect,0.0,0.0,-45,45,642,-1,-1
"{'cat': 'II', 'resp': 'button'}",51,291,Right,74.2582468086127,54.0541678868373,3.7129123404306346,0.8490808836459869,Left,Incorrect,0.0,0.0,-45,45,996,-1,-1
"{'cat': 'II', 'resp': 'button'}",51,292,Left,66.15866791567784,77.60619562676203,3.3079333957838917,1.2190352702704397,Left,Correct,0.0,0.0,-45,45,10642,-1,-1
"{'cat': 'II', 'resp': 'button'}",51,293,Left,55.131543871141346,81.80048546581695,2.7565771935570673,1.284919020997446,Left,Correct,0.0,0.0,-45,45,577,-1,-1
"{'cat': 'II', 'resp': 'button'}",51,294,Left,27.298105795245387,40.52871642021482,1.3649052897622693,0.6366235888258545,Right,Incorrect,0.0,0.0,-45,45,654,-1,-1
"{'cat': 'II', 'resp': 'button'}",51,295,Right,74.98062038307295,49.74310010423913,3.7490310191536476,0.7813627892712968,Left,Incorrect,0.0,0.0,-45,45,478,-1,-1
"{'cat': 'II', 'resp': 'button'}",51,296,Right,64.54823779626379,38.95336312080375,3.2274118898131894,0.6118779970646632,Left,Incorrect,0.0,0.0,-45,45,1081,-1,-1
"{'cat': 'II', 'resp': 'button'}",51,297,Left,35.28985785721846,60.59011786801265,1.764492892860923,0.9517473458714409,Right,Incorrect,0.0,0.0,-45,45,1161,-1,-1
"{'cat': 'II', 'resp': 'button'}",51,298,Left,53.06713223915418,72.92963969219616,2.653356611957709,1.1455761014297703,Right,Incorrect,0.0,0.0,-45,45,643,-1,-1
"{'cat': 'II', 'resp': 'button'}",51,299,Left,42.749825479720464,73.54882621402326,2.1374912739860235,1.1553022605706396,Left,Correct,0.0,0.0,-45,45,225,-1,-1
"{'cat': 'II', 'resp': 'button'}",51,300,Right,77.9006377569604,56.35833234853532,3.8950318878480203,0.8852746143736527,Right,Correct,0.0,0.0,-45,45,1066,-1,-1
"{'cat': 'II', 'resp': 'button'}",51,301,Right,41.41229426840361,17.92076430359386,2.0706147134201807,0.28149870741442334,Right,Correct,0.0,0.0,-45,45,706,-1,-1
"{'cat': 'II', 'resp': 'button'}",51,302,Left,40.623952866081346,56.53867324920443,2.031197643304067,0.8881074026170719,Left,Correct,0.0,0.0,-45,45,723,-1,-1
"{'cat': 'II', 'resp': 'button'}",51,303,Left,48.0484311094104,67.42860236864982,2.4024215554705197,1.059166009215888,Left,Correct,0.0,0.0,-45,45,522,-1,-1
"{'cat': 'II', 'resp': 'button'}",51,304,Left,55.01432379578569,73.64798968456664,2.750716189789285,1.156859916723457,Left,Correct,0.0,0.0,-45,45,596,-1,-1
"{'cat': 'II', 'resp': 'button'}",51,305,Right,47.874848687923794,30.387674833264686,2.3937424343961897,0.47732848007929884,Right,Correct,0.0,0.0,-45,45,745,-1,-1
"{'cat': 'II', 'resp': 'button'}",51,306,Right,63.920153633887054,41.12543236444585,3.1960076816943523,0.645996780959235,Right,Correct,0.0,0.0,-45,45,606,-1,-1
"{'cat': 'II', 'resp': 'button'}",51,307,Right,38.057721769639926,14.364844309857013,1.9028860884819963,0.22564244676903963,Right,Correct,0.0,0.0,-45,45,563,-1,-1
"{'cat': 'II', 'resp': 'button'}",51,308,Left,62.44495124704157,79.9660682817516,3.1222475623520785,1.256104063252053,Left,Correct,0.0,0.0,-45,45,479,-1,-1
"{'cat': 'II', 'resp': 'button'}",51,309,Right,47.2117153413372,32.05786551829202,2.3605857670668597,0.5035637740101788,Right,Correct,0.0,0.0,-45,45,556,-1,-1
"{'cat': 'II', 'resp': 'button'}",51,310,Right,48.94834265211543,37.38968062822317,2.4474171326057714,0.5873157299084726,Right,Correct,0.0,0.0,-45,45,699,-1,-1
"{'cat': 'II', 'resp': 'button'}",51,311,Left,30.08081980666683,40.01837490662761,1.5040409903333414,0.6286071630763173,Right,Incorrect,0.0,0.0,-45,45,544,-1,-1
"{'cat': 'II', 'resp': 'button'}",51,312,Right,61.666223272844874,51.56211383269793,3.083311163642244,0.8099357901018225,Left,Incorrect,0.0,0.0,-45,45,817,-1,-1
"{'cat': 'II', 'resp': 'button'}",51,313,Right,61.41453378439072,48.6425361777741,3.070726689219536,0.7640751715403542,Right,Correct,0.0,0.0,-45,45,737,-1,-1
"{'cat': 'II', 'resp': 'button'}",51,314,Right,41.26422001523365,15.399099625156385,2.0632110007616826,0.24188849127144318,Right,Correct,0.0,0.0,-45,45,660,-1,-1
"{'cat': 'II', 'resp': 'button'}",51,315,Right,32.13163475816751,18.76992569683247,1.6065817379083753,0.29483730338797576,Right,Correct,0.0,0.0,-45,45,665,-1,-1
"{'cat': 'II', 'resp': 'button'}",51,316,Left,38.73181604327078,46.9498671728826,1.9365908021635392,0.7374867889867228,Left,Correct,0.0,0.0,-45,45,1308,-1,-1
"{'cat': 'II', 'resp': 'button'}",51,317,Right,82.01019583962909,54.872624766852574,4.100509791981454,0.8619371742536668,Left,Incorrect,0.0,0.0,-45,45,1677,-1,-1
"{'cat': 'II', 'resp': 'button'}",51,318,Right,76.63021279512297,63.06120533764984,3.8315106397561487,0.9905630970763909,Left,Incorrect,0.0,0.0,-45,45,684,-1,-1
"{'cat': 'II', 'resp': 'button'}",51,319,Left,26.315287468670057,48.29561868547335,1.3157643734335027,0.758625804314285,Left,Correct,0.0,0.0,-45,45,936,-1,-1
"{'cat': 'II', 'resp': 'button'}",51,320,Left,20.67709725276438,38.829234207005285,1.0338548626382191,0.6099281846462264,Right,Incorrect,0.0,0.0,-45,45,759,-1,-1
"{'cat': 'II', 'resp': 'button'}",51,321,Right,78.26286289437206,60.58264288251987,3.913143144718603,0.9516299290738919,Left,Incorrect,0.0,0.0,-45,45,569,-1,-1
"{'cat': 'II', 'resp': 'button'}",51,322,Left,48.77353120430934,79.14183424386124,2.438676560215467,1.243157025260678,Left,Correct,0.0,0.0,-45,45,656,-1,-1
"{'cat': 'II', 'resp': 'button'}",51,323,Right,75.60123084039567,59.901156934489634,3.7800615420197836,0.9409251728346096,Left,Incorrect,0.0,0.0,-45,45,2343,-1,-1
"{'cat': 'II', 'resp': 'button'}",51,324,Left,27.90470068138107,49.00195346736804,1.3952350340690536,0.7697208851231617,Left,Correct,0.0,0.0,-45,45,1900,-1,-1
"{'cat': 'II', 'resp': 'button'}",51,325,Right,81.17638599778083,65.63077922089188,4.058819299889041,1.0309258692486378,Right,Correct,0.0,0.0,-45,45,1297,-1,-1
"{'cat': 'II', 'resp': 'button'}",51,326,Right,89.92127688368237,66.48934919112081,4.4960638441841185,1.0444122548039578,Left,Incorrect,0.0,0.0,-45,45,765,-1,-1
"{'cat': 'II', 'resp': 'button'}",51,327,Right,39.794484870595454,22.673873985733668,1.9897242435297726,0.356160379710008,Left,Incorrect,0.0,0.0,-45,45,835,-1,-1
"{'cat': 'II', 'resp': 'button'}",51,328,Right,48.109557664155,22.76414207054442,2.40547788320775,0.3575783074704834,Left,Incorrect,0.0,0.0,-45,45,1287,-1,-1
"{'cat': 'II', 'resp': 'button'}",51,329,Left,61.32873439123166,73.68082356316273,3.066436719561583,1.1573756700823887,Left,Correct,0.0,0.0,-45,45,617,-1,-1
"{'cat': 'II', 'resp': 'button'}",51,330,Right,57.33244575822155,35.361427907845204,2.866622287911077,0.5554560106786579,Right,Correct,0.0,0.0,-45,45,589,-1,-1
"{'cat': 'II', 'resp': 'button'}",51,331,Left,26.623417720042006,54.724290140376674,1.3311708860021003,0.8596071393896186,Right,Incorrect,0.0,0.0,-45,45,706,-1,-1
"{'cat': 'II', 'resp': 'button'}",51,332,Left,60.806730469134024,73.29956842626261,3.0403365234567015,1.1513869283962448,Left,Correct,0.0,0.0,-45,45,813,-1,-1
"{'cat': 'II', 'resp': 'button'}",51,333,Left,24.52257970400599,44.4951547097119,1.2261289852002997,0.6989282557818609,Left,Correct,0.0,0.0,-45,45,1199,-1,-1
"{'cat': 'II', 'resp': 'button'}",51,334,Right,54.414664414883354,22.188471303134914,2.7207332207441675,0.3485356922015829,Right,Correct,0.0,0.0,-45,45,652,-1,-1
"{'cat': 'II', 'resp': 'button'}",51,335,Right,37.96737028304129,28.21891613092487,1.8983685141520648,0.4432616980459004,Right,Correct,0.0,0.0,-45,45,604,-1,-1
"{'cat': 'II', 'resp': 'button'}",51,336,Right,51.03390201679252,40.72163320887906,2.551695100839626,0.639653918655963,Right,Correct,0.0,0.0,-45,45,704,-1,-1
"{'cat': 'II', 'resp': 'button'}",51,337,Right,41.20153411886512,31.984409576895203,2.060076705943256,0.5024099307809049,Left,Incorrect,0.0,0.0,-45,45,1409,-1,-1
"{'cat': 'II', 'resp': 'button'}",51,338,Right,74.77634434718821,58.42106981116403,3.738817217359411,0.9176760186680468,Left,Incorrect,0.0,0.0,-45,45,632,-1,-1
"{'cat': 'II', 'resp': 'button'}",51,339,Left,46.70295749554824,65.72413157388306,2.335147874777412,1.0323922445804,Left,Correct,0.0,0.0,-45,45,634,-1,-1
"{'cat': 'II', 'resp': 'button'}",51,340,Left,16.698845351490583,32.24705818638614,0.834942267574529,0.5065356054911665,Left,Correct,0.0,0.0,-45,45,1109,-1,-1
"{'cat': 'II', 'resp': 'button'}",51,341,Right,77.18694310547843,61.23091897484307,3.859347155273922,0.9618130261195942,Left,Incorrect,0.0,0.0,-45,45,662,-1,-1
"{'cat': 'II', 'resp': 'button'}",51,342,Right,54.80376927160735,22.673833829582037,2.7401884635803673,0.35615974893865326,Right,Correct,0.0,0.0,-45,45,879,-1,-1
"{'cat': 'II', 'resp': 'button'}",51,343,Left,50.129500188968436,65.41334920420933,2.506475009448422,1.027510486533239,Left,Correct,0.0,0.0,-45,45,7994,-1,-1
"{'cat': 'II', 'resp': 'button'}",51,344,Right,41.723045113197806,22.1236473929876,2.0861522556598904,0.3475174406021041,100,Correct,0.0,0.0,-45,45,912,-1,-1
"{'cat': 'II', 'resp': 'button'}",51,345,Left,42.66538778517547,67.80993850641403,2.1332693892587735,1.0651560232606296,Left,Correct,0.0,0.0,-45,45,446,-1,-1
"{'cat': 'II', 'resp': 'button'}",51,346,Left,54.643549863647735,80.1442857369753,2.732177493182387,1.2589034964924144,Left,Correct,0.0,0.0,-45,45,610,-1,-1
"{'cat': 'II', 'resp': 'button'}",51,347,Right,70.11183298874415,53.767383007395765,3.5055916494372075,0.8445760772939159,Left,Incorrect,0.0,0.0,-45,45,1120,-1,-1
"{'cat': 'II', 'resp': 'button'}",51,348,Right,37.01154198072977,22.52027385384769,1.8505770990364883,0.353747634480391,Right,Correct,0.0,0.0,-45,45,993,-1,-1
"{'cat': 'II', 'resp': 'button'}",51,349,Left,44.78091441672106,71.26087630045052,2.239045720836053,1.1193632273693317,Left,Correct,0.0,0.0,-45,45,599,-1,-1
"{'cat': 'II', 'resp': 'button'}",51,350,Right,45.0132182690069,28.23737014696247,2.250660913450345,0.4435515730519652,Right,Correct,0.0,0.0,-45,45,1462,-1,-1
"{'cat': 'II', 'resp': 'button'}",51,351,Right,55.00768439573463,36.93152700479783,2.750384219786731,0.5801190696206295,Right,Correct,0.0,0.0,-45,45,1763,-1,-1
"{'cat': 'II', 'resp': 'button'}",51,352,Right,63.06798572045399,36.156023894749055,3.153399286022699,0.5679374952538032,Left,Incorrect,0.0,0.0,-45,45,2122,-1,-1
"{'cat': 'II', 'resp': 'button'}",51,353,Left,48.364626273620075,78.59437424521111,2.418231313681004,1.2345575437112104,Left,Correct,0.0,0.0,-45,45,650,-1,-1
"{'cat': 'II', 'resp': 'button'}",51,354,Right,48.22348269346119,25.6611608123375,2.4111741346730597,0.40308457145312887,Left,Incorrect,0.0,0.0,-45,45,1073,-1,-1
"{'cat': 'II', 'resp': 'button'}",51,355,Right,40.76639832844667,27.840526134963525,2.038319916422333,0.43731796188838024,Left,Incorrect,0.0,0.0,-45,45,1014,-1,-1
"{'cat': 'II', 'resp': 'button'}",51,356,Right,35.324070351441875,17.97064689242885,1.7662035175720938,0.2822822612875536,Right,Correct,0.0,0.0,-45,45,1430,-1,-1
"{'cat': 'II', 'resp': 'button'}",51,357,Left,67.7124317406128,81.61456834822862,3.38562158703064,1.2819986417434854,Left,Correct,0.0,0.0,-45,45,602,-1,-1
"{'cat': 'II', 'resp': 'button'}",51,358,Right,47.94136136748845,31.521659633131762,2.397068068374422,0.49514107166202337,Right,Correct,0.0,0.0,-45,45,587,-1,-1
"{'cat': 'II', 'resp': 'button'}",51,359,Left,46.63300453390277,66.47673128279241,2.3316502266951384,1.0442140531634172,Left,Correct,0.0,0.0,-45,45,595,-1,-1
"{'cat': 'II', 'resp': 'button'}",51,360,Right,36.8480117482944,12.125637871863631,1.8424005874147198,0.1904690742916848,Right,Correct,0.0,0.0,-45,45,1087,-1,-1
"{'cat': 'II', 'resp': 'button'}",51,361,Left,16.264712933874154,39.48779177388927,0.8132356466937076,0.62027278271667,Right,Incorrect,0.0,0.0,-45,45,734,-1,-1
"{'cat': 'II', 'resp': 'button'}",51,362,Left,38.472877345312845,54.986772706781174,1.9236438672656422,0.8637302059011774,Right,Incorrect,0.0,0.0,-45,45,708,-1,-1
"{'cat': 'II', 'resp': 'button'}",51,363,Right,69.33264306816845,54.223652602184714,3.4666321534084226,0.8517431433291429,Right,Correct,0.0,0.0,-45,45,605,-1,-1
"{'cat': 'II', 'resp': 'button'}",51,364,Left,16.27097547595465,36.77577791774541,0.8135487737977326,0.5776725686821935,Left,Correct,0.0,0.0,-45,45,932,-1,-1
"{'cat': 'II', 'resp': 'button'}",51,365,Right,42.05923719868997,32.32401344406398,2.1029618599344984,0.5077444158520455,Left,Incorrect,0.0,0.0,-45,45,1083,-1,-1
"{'cat': 'II', 'resp': 'button'}",51,366,Left,21.272839748070226,51.006200459441686,1.0636419874035112,0.8012035232545516,Left,Correct,0.0,0.0,-45,45,1217,-1,-1
"{'cat': 'II', 'resp': 'button'}",51,367,Right,54.616651322480706,36.326057176377866,2.7308325661240356,0.5706083717959574,Right,Correct,0.0,0.0,-45,45,1024,-1,-1
"{'cat': 'II', 'resp': 'button'}",51,368,Right,36.430228488341825,11.28467264883163,1.8215114244170911,0.1772592234586756,Right,Correct,0.0,0.0,-45,45,679,-1,-1
"{'cat': 'II', 'resp': 'button'}",51,369,Left,17.72709699383641,36.71049095875236,0.8863548496918204,0.5766470435284548,Left,Correct,0.0,0.0,-45,45,1790,-1,-1
"{'cat': 'II', 'resp': 'button'}",51,370,Right,45.30537036364798,23.704177200012797,2.265268518182399,0.37234434475475436,Right,Correct,0.0,0.0,-45,45,1071,-1,-1
"{'cat': 'II', 'resp': 'button'}",51,371,Left,27.93787030742571,51.92294568371536,1.3968935153712858,0.8156037235635102,Left,Correct,0.0,0.0,-45,45,998,-1,-1
"{'cat': 'II', 'resp': 'button'}",51,372,Left,14.683701232475414,33.31216414824269,0.7341850616237707,0.5232662508164825,Left,Correct,0.0,0.0,-45,45,1091,-1,-1
"{'cat': 'II', 'resp': 'button'}",51,373,Left,18.415586203285514,48.4639957615353,0.9207793101642757,0.7612706652402309,Left,Correct,0.0,0.0,-45,45,688,-1,-1
"{'cat': 'II', 'resp': 'button'}",51,374,Left,37.56052210196108,48.8694853708066,1.878026105098054,0.7676400811281995,100,Correct,0.0,0.0,-45,45,660,-1,-1
"{'cat': 'II', 'resp': 'button'}",51,375,Right,86.75534218913964,69.58828697675337,4.337767109456982,1.093090255710333,Left,Incorrect,0.0,0.0,-45,45,665,-1,-1
"{'cat': 'II', 'resp': 'button'}",51,376,Right,38.20383724625159,26.970201430777024,1.9101918623125795,0.4236469334038302,Right,Correct,0.0,0.0,-45,45,705,-1,-1
"{'cat': 'II', 'resp': 'button'}",51,377,Left,31.41658881753103,52.54851674463503,1.5708294408765513,0.8254301708099282,Right,Incorrect,0.0,0.0,-45,45,768,-1,-1
"{'cat': 'II', 'resp': 'button'}",51,378,Right,71.10935546542444,50.30605268732867,3.555467773271222,0.7902056277680641,Left,Incorrect,0.0,0.0,-45,45,658,-1,-1
"{'cat': 'II', 'resp': 'button'}",51,379,Left,55.10574929960001,76.31601552949294,2.7552874649800003,1.198769168693498,Left,Correct,0.0,0.0,-45,45,597,-1,-1
"{'cat': 'II', 'resp': 'button'}",51,380,Right,65.21869007147947,36.78766453945901,3.260934503573974,0.5778592832994508,Right,Correct,0.0,0.0,-45,45,763,-1,-1
"{'cat': 'II', 'resp': 'button'}",51,381,Left,66.76780223155194,83.88539472726394,3.3383901115775974,1.3176686990932618,Left,Correct,0.0,0.0,-45,45,682,-1,-1
"{'cat': 'II', 'resp': 'button'}",51,382,Right,57.303251200619826,26.9348045728996,2.865162560030991,0.4230909208604907,Right,Correct,0.0,0.0,-45,45,783,-1,-1
"{'cat': 'II', 'resp': 'button'}",51,383,Right,35.23888079777991,20.896821494395862,1.7619440398889958,0.3282465044508566,Right,Correct,0.0,0.0,-45,45,1191,-1,-1
"{'cat': 'II', 'resp': 'button'}",51,384,Left,16.69553684088361,46.45560393534901,0.8347768420441803,0.7297229202068477,Left,Correct,0.0,0.0,-45,45,736,-1,-1
"{'cat': 'II', 'resp': 'button'}",51,385,Left,20.45249804985165,45.79502117458777,1.0226249024925824,0.7193465104653697,Left,Correct,0.0,0.0,-45,45,779,-1,-1
"{'cat': 'II', 'resp': 'button'}",51,386,Left,56.42383334827083,82.94105538063044,2.8211916674135415,1.3028350513238638,Left,Correct,0.0,0.0,-45,45,748,-1,-1
"{'cat': 'II', 'resp': 'button'}",51,387,Right,49.7996193471249,22.037761733118522,2.4899809673562454,0.3461683518116371,Right,Correct,0.0,0.0,-45,45,968,-1,-1
"{'cat': 'II', 'resp': 'button'}",51,388,Right,68.74146681805416,36.299785715595874,3.437073340902708,0.5701957006549985,Left,Incorrect,0.0,0.0,-45,45,1628,-1,-1
"{'cat': 'II', 'resp': 'button'}",51,389,Left,50.54441107768754,65.30140108262613,2.527220553884377,1.025752009551494,Left,Correct,0.0,0.0,-45,45,595,-1,-1
"{'cat': 'II', 'resp': 'button'}",51,390,Right,40.69610777027562,16.05824623837137,2.0348053885137807,0.25224234206001717,Right,Correct,0.0,0.0,-45,45,878,-1,-1
"{'cat': 'II', 'resp': 'button'}",51,391,Left,13.842951722379087,31.559419279402317,0.6921475861189543,0.49573419879865194,Left,Correct,0.0,0.0,-45,45,709,-1,-1
"{'cat': 'II', 'resp': 'button'}",51,392,Right,49.54401972416532,28.896541675556342,2.4772009862082656,0.4539058152103955,Right,Correct,0.0,0.0,-45,45,1415,-1,-1
"{'cat': 'II', 'resp': 'button'}",51,393,Left,32.10605535803697,48.48359356150725,1.6053027679018483,0.7615785067623227,Left,Correct,0.0,0.0,-45,45,1028,-1,-1
"{'cat': 'II', 'resp': 'button'}",51,394,Right,83.43344612619258,61.549668242791114,4.171672306309628,0.9668199279122078,Left,Incorrect,0.0,0.0,-45,45,613,-1,-1
"{'cat': 'II', 'resp': 'button'}",51,395,Right,53.20135667379634,43.70431230928753,2.660067833689817,0.6865057324052584,Left,Incorrect,0.0,0.0,-45,45,628,-1,-1
"{'cat': 'II', 'resp': 'button'}",51,396,Right,52.64507592021091,38.554255296325486,2.6322537960105454,0.6056088260178076,Right,Correct,0.0,0.0,-45,45,709,-1,-1
"{'cat': 'II', 'resp': 'button'}",51,397,Right,44.824004813083945,37.54262627572234,2.241200240654197,0.5897181945213823,Left,Incorrect,0.0,0.0,-45,45,683,-1,-1
"{'cat': 'II', 'resp': 'button'}",51,398,Left,35.251311414773596,61.203879002456674,1.7625655707386798,0.9613882832265825,Left,Correct,0.0,0.0,-45,45,507,-1,-1
"{'cat': 'II', 'resp': 'button'}",51,399,Left,63.529626588928636,73.44951973763006,3.176481329446432,1.1537423580871855,Left,Correct,0.0,0.0,-45,45,602,-1,-1
