condition,subject,trial,cat,x,y,xt,yt,resp,fb,rotation,su,target_angle_left,target_angle_right,rt,mt,ep
"{'cat': 'RB', 'resp': 'reach'}",34,0,Left,37.70332228549933,21.422782274060495,1.8851661142749665,0.33650827705821046,Right,Incorrect,0.0,0.0,-45,45,2004,1075,-0.75
"{'cat': 'RB', 'resp': 'reach'}",34,1,Right,66.96266727226039,33.61649446419375,3.3481333636130195,0.5280466602407651,Right,Correct,0.0,0.0,-45,45,2004,1158,-0.79
"{'cat': 'RB', 'resp': 'reach'}",34,2,Left,35.74585999038225,43.218218789007345,1.7872929995191127,0.6788701932439092,Right,Incorrect,0.0,0.0,-45,45,2013,708,-0.74
"{'cat': 'RB', 'resp': 'reach'}",34,3,Left,41.433746311315666,47.67064601925365,2.0716873155657836,0.748808756629834,Right,Incorrect,0.0,0.0,-45,45,2004,625,-0.79
"{'cat': 'RB', 'resp': 'reach'}",34,4,Right,68.27015956369934,54.492990808596446,3.413507978184967,0.8559738979821137,Left,Incorrect,0.0,0.0,-45,45,2013,725,-2.51
"{'cat': 'RB', 'resp': 'reach'}",34,5,Right,58.67207321400079,57.44480609931487,2.9336036607000393,0.9023409041424886,Left,Incorrect,0.0,0.0,-45,45,2005,404,-2.64
"{'cat': 'RB', 'resp': 'reach'}",34,6,Left,41.42143633236222,69.36914761628614,2.071071816618111,1.0896480226855525,Right,Incorrect,0.0,0.0,-45,45,2008,621,-0.83
"{'cat': 'RB', 'resp': 'reach'}",34,7,Right,53.46977993006278,53.09787629788551,2.673488996503139,0.8340594904932837,Right,Correct,0.0,0.0,-45,45,2004,712,-0.83
"{'cat': 'RB', 'resp': 'reach'}",34,8,Right,66.21212089724014,26.083075903557653,3.310606044862007,0.4097119982082084,Left,Incorrect,0.0,0.0,-45,45,2004,784,-2.45
"{'cat': 'RB', 'resp': 'reach'}",34,9,Left,45.01051361298275,84.83184064666655,2.2505256806491376,1.3325354368303381,Right,Incorrect,0.0,0.0,-45,45,2004,908,-0.91
"{'cat': 'RB', 'resp': 'reach'}",34,10,Right,57.513942189010436,26.056319782055652,2.8756971094505217,0.4092917140344622,Right,Correct,0.0,0.0,-45,45,2004,796,-0.88
"{'cat': 'RB', 'resp': 'reach'}",34,11,Left,38.266786714382974,81.82386777370223,1.9133393357191488,1.2852863094308278,Left,Correct,0.0,0.0,-45,45,2004,642,-2.43
"{'cat': 'RB', 'resp': 'reach'}",34,12,Left,31.8676629722258,60.91094735655625,1.59338314861129,0.9567869236927588,Left,Correct,0.0,0.0,-45,45,2008,796,-2.56
"{'cat': 'RB', 'resp': 'reach'}",34,13,Right,59.214683280436915,32.04596898966766,2.960734164021846,0.5033769037755312,Right,Correct,0.0,0.0,-45,45,2004,1454,-0.81
"{'cat': 'RB', 'resp': 'reach'}",34,14,Right,58.91107261969595,15.389655893169433,2.9455536309847976,0.24174014947627975,Left,Incorrect,0.0,0.0,-45,45,2009,512,-2.52
"{'cat': 'RB', 'resp': 'reach'}",34,15,Left,45.42739463824241,26.42940915353451,2.2713697319121207,0.41515218817731425,Left,Correct,0.0,0.0,-45,45,2004,1367,-2.52
"{'cat': 'RB', 'resp': 'reach'}",34,16,Right,65.3824300699136,71.5925480506983,3.26912150349568,1.12457311503924,Right,Correct,0.0,0.0,-45,45,2016,484,-0.84
"{'cat': 'RB', 'resp': 'reach'}",34,17,Left,39.44164909098108,11.195040940475373,1.972082454549054,0.175851291876172,Right,Incorrect,0.0,0.0,-45,45,2008,605,-0.87
"{'cat': 'RB', 'resp': 'reach'}",34,18,Right,67.51160389803559,51.93268752509456,3.375580194901779,0.8157567480500568,Left,Incorrect,0.0,0.0,-45,45,2004,575,-2.54
"{'cat': 'RB', 'resp': 'reach'}",34,19,Right,60.99452646355686,37.057392691253504,3.049726323177843,0.5820961632001704,Left,Incorrect,0.0,0.0,-45,45,2017,704,-2.46
"{'cat': 'RB', 'resp': 'reach'}",34,20,Right,64.78324579541405,61.94929773282613,3.239162289770702,0.973097293262467,Left,Incorrect,0.0,0.0,-45,45,2012,555,-2.55
"{'cat': 'RB', 'resp': 'reach'}",34,21,Right,51.277828811280244,48.6627408968703,2.5638914405640123,0.7643925465257565,Right,Correct,0.0,0.0,-45,45,2009,533,-0.75
"{'cat': 'RB', 'resp': 'reach'}",34,22,Right,61.138093801477076,80.13456215094342,3.056904690073854,1.258750758760193,Left,Incorrect,0.0,0.0,-45,45,2009,533,-2.44
"{'cat': 'RB', 'resp': 'reach'}",34,23,Right,58.94167307260539,72.57132092201265,2.947083653630269,1.139947643349511,Right,Correct,0.0,0.0,-45,45,2004,541,-0.8
"{'cat': 'RB', 'resp': 'reach'}",34,24,Left,44.51173836083811,37.579004262063506,2.2255869180419054,0.5902896185945912,Left,Correct,0.0,0.0,-45,45,2004,954,-2.53
"{'cat': 'RB', 'resp': 'reach'}",34,25,Left,33.36214830307505,47.969599687522475,1.6681074151537527,0.7535047098698192,Right,Incorrect,0.0,0.0,-45,45,2008,746,-0.81
"{'cat': 'RB', 'resp': 'reach'}",34,26,Left,45.93953007355556,34.038265877436395,2.2969765036777776,0.5346718301074515,Left,Correct,0.0,0.0,-45,45,2016,642,-2.5
"{'cat': 'RB', 'resp': 'reach'}",34,27,Right,67.39703329583135,51.63968576092913,3.3698516647915677,0.811154287101102,Right,Correct,0.0,0.0,-45,45,2004,930,-0.85
"{'cat': 'RB', 'resp': 'reach'}",34,28,Right,52.54183785118533,42.04022920001434,2.627091892559266,0.6603663760499807,Right,Correct,0.0,0.0,-45,45,2004,866,-0.84
"{'cat': 'RB', 'resp': 'reach'}",34,29,Left,48.52647713359565,51.61330148786011,2.4263238566797822,0.8107398439088822,Left,Correct,0.0,0.0,-45,45,2008,512,-2.39
"{'cat': 'RB', 'resp': 'reach'}",34,30,Left,31.02933883178681,45.79105797187551,1.5514669415893405,0.7192842566227422,Right,Incorrect,0.0,0.0,-45,45,2008,621,-0.81
"{'cat': 'RB', 'resp': 'reach'}",34,31,Left,34.82344373817785,27.790668086159748,1.7411721869088925,0.43653479348915886,Left,Correct,0.0,0.0,-45,45,2016,534,-2.52
"{'cat': 'RB', 'resp': 'reach'}",34,32,Right,66.9030839275696,74.65508196404849,3.3451541963784797,1.172679285256993,Right,Correct,0.0,0.0,-45,45,2008,663,-0.85
"{'cat': 'RB', 'resp': 'reach'}",34,33,Right,62.76039187530342,32.89668938335778,3.138019593765171,0.5167399884709107,Left,Incorrect,0.0,0.0,-45,45,2008,555,-2.46
"{'cat': 'RB', 'resp': 'reach'}",34,34,Right,58.55066766306117,20.124215133721325,2.927533383153058,0.31611043211679724,Right,Correct,0.0,0.0,-45,45,2004,554,-0.82
"{'cat': 'RB', 'resp': 'reach'}",34,35,Left,38.07623957434687,72.38663981966363,1.9038119787173435,1.1370466793775285,Left,Correct,0.0,0.0,-45,45,2004,483,-2.54
"{'cat': 'RB', 'resp': 'reach'}",34,36,Right,56.329667499938985,61.63954140514591,2.8164833749969493,0.9682316522452513,Left,Incorrect,0.0,0.0,-45,45,2012,504,-2.41
"{'cat': 'RB', 'resp': 'reach'}",34,37,Right,58.17441166208997,12.811835218365488,2.9087205831044987,0.20124783700510002,Right,Correct,0.0,0.0,-45,45,2004,471,-0.78
"{'cat': 'RB', 'resp': 'reach'}",34,38,Left,42.180312707083274,54.10701140102013,2.1090156353541634,0.8499109476257202,Right,Incorrect,0.0,0.0,-45,45,2004,554,-0.78
"{'cat': 'RB', 'resp': 'reach'}",34,39,Right,61.10175501663973,21.756059916930287,3.0550877508319867,0.34174339003043774,Left,Incorrect,0.0,0.0,-45,45,2004,463,-2.51
"{'cat': 'RB', 'resp': 'reach'}",34,40,Right,63.03679114749829,15.454320685329755,3.151839557374915,0.2427559016562637,Right,Correct,0.0,0.0,-45,45,2004,604,-0.92
"{'cat': 'RB', 'resp': 'reach'}",34,41,Left,33.971505311153095,50.35722957386136,1.6985752655576547,0.7910095124218877,Right,Incorrect,0.0,0.0,-45,45,2004,525,-0.84
"{'cat': 'RB', 'resp': 'reach'}",34,42,Left,43.16727397125833,24.322662722331,2.158363698562917,0.3820594926210869,Left,Correct,0.0,0.0,-45,45,2012,534,-2.44
"{'cat': 'RB', 'resp': 'reach'}",34,43,Left,36.34252129587159,64.49882930378106,1.8171260647935796,1.0131452415295035,Left,Correct,0.0,0.0,-45,45,2004,504,-2.43
"{'cat': 'RB', 'resp': 'reach'}",34,44,Right,57.52226767200707,21.954437188219337,2.8761133836003534,0.3448594929210421,Right,Correct,0.0,0.0,-45,45,2004,592,-0.85
"{'cat': 'RB', 'resp': 'reach'}",34,45,Right,65.26641729690816,83.82629358302029,3.263320864845408,1.3167403404903888,Right,Correct,0.0,0.0,-45,45,2005,470,-0.81
"{'cat': 'RB', 'resp': 'reach'}",34,46,Left,42.87581788356491,43.59935005634441,2.1437908941782458,0.6848569891915067,Left,Correct,0.0,0.0,-45,45,2005,483,-2.53
"{'cat': 'RB', 'resp': 'reach'}",34,47,Left,39.616284818901555,25.97042387782621,1.9808142409450777,0.40794246432595876,Left,Correct,0.0,0.0,-45,45,2008,604,-2.56
"{'cat': 'RB', 'resp': 'reach'}",34,48,Right,61.41696845798836,49.58607201795672,3.070848422899418,0.7788961978599361,Right,Correct,0.0,0.0,-45,45,2004,483,-0.8
"{'cat': 'RB', 'resp': 'reach'}",34,49,Right,58.62277829965613,42.9178089166158,2.9311389149828067,0.6741513660030536,Right,Correct,0.0,0.0,-45,45,2013,496,-0.74
"{'cat': 'RB', 'resp': 'reach'}",34,50,Left,38.55165679211042,82.66026943734062,1.927582839605521,1.298424476040511,Left,Correct,0.0,0.0,-45,45,2009,500,-2.49
"{'cat': 'RB', 'resp': 'reach'}",34,51,Left,36.479487418507176,85.07988775850745,1.8239743709253589,1.336431751751856,Left,Correct,0.0,0.0,-45,45,2004,504,-2.51
"{'cat': 'RB', 'resp': 'reach'}",34,52,Right,64.71953181158469,65.2126920539612,3.235976590579235,1.0243585713876902,Right,Correct,0.0,0.0,-45,45,2008,534,-0.84
"{'cat': 'RB', 'resp': 'reach'}",34,53,Left,39.317105966933475,30.562450631350274,1.9658552983466737,0.4800738518957538,Right,Incorrect,0.0,0.0,-45,45,2004,471,-0.83
"{'cat': 'RB', 'resp': 'reach'}",34,54,Right,58.468322669366806,39.92074885317679,2.9234161334683404,0.6270736566147168,Left,Incorrect,0.0,0.0,-45,45,2004,476,-2.48
"{'cat': 'RB', 'resp': 'reach'}",34,55,Right,51.595036651895356,43.747984126694135,2.579751832594768,0.6871917277089259,Left,Incorrect,0.0,0.0,-45,45,2005,483,-2.72
"{'cat': 'RB', 'resp': 'reach'}",34,56,Right,61.716379877393265,63.38912551967974,3.085818993869663,0.9957140552505356,Left,Incorrect,0.0,0.0,-45,45,2004,483,-2.6
"{'cat': 'RB', 'resp': 'reach'}",34,57,Right,57.749190791980524,56.08661726557227,2.8874595395990266,0.8810065238311215,Right,Correct,0.0,0.0,-45,45,2004,405,-0.79
"{'cat': 'RB', 'resp': 'reach'}",34,58,Right,58.36026942200683,42.1140518186681,2.9180134711003416,0.661525979032138,Right,Correct,0.0,0.0,-45,45,2008,533,-0.73
"{'cat': 'RB', 'resp': 'reach'}",34,59,Left,42.93789546294905,42.92714258614425,2.146894773147453,0.6742979789411616,Left,Correct,0.0,0.0,-45,45,2013,467,-2.53
"{'cat': 'RB', 'resp': 'reach'}",34,60,Right,58.27268879203076,33.158203926574586,2.913634439601538,0.5208478493097948,Left,Incorrect,0.0,0.0,-45,45,2008,555,-2.47
"{'cat': 'RB', 'resp': 'reach'}",34,61,Right,58.64832279428543,41.02471919157899,2.932416139714271,0.6444147821392437,Right,Correct,0.0,0.0,-45,45,2012,538,-0.81
"{'cat': 'RB', 'resp': 'reach'}",34,62,Right,62.66011716084982,85.90883696491008,3.133005858042491,1.349452855437024,Right,Correct,0.0,0.0,-45,45,2004,466,-0.76
"{'cat': 'RB', 'resp': 'reach'}",34,63,Right,61.08499126503136,26.962380182718874,3.054249563251568,0.4235240775266232,Left,Incorrect,0.0,0.0,-45,45,2004,604,-2.5
"{'cat': 'RB', 'resp': 'reach'}",34,64,Right,53.880166413457324,62.84576536973593,2.694008320672866,0.987178973973951,Right,Correct,0.0,0.0,-45,45,2004,571,-0.89
"{'cat': 'RB', 'resp': 'reach'}",34,65,Left,37.544714803140025,23.16654523715255,1.8772357401570015,0.36389924163047027,Right,Incorrect,0.0,0.0,-45,45,2004,483,-0.83
"{'cat': 'RB', 'resp': 'reach'}",34,66,Right,55.60854116333944,26.51573186530621,2.780427058166972,0.4165081421630138,Left,Incorrect,0.0,0.0,-45,45,2004,584,-2.46
"{'cat': 'RB', 'resp': 'reach'}",34,67,Right,62.83216643239051,88.55080463166225,3.1416083216195254,1.3909527865014755,Right,Correct,0.0,0.0,-45,45,2004,521,-0.76
"{'cat': 'RB', 'resp': 'reach'}",34,68,Left,39.0369787386951,25.692885821902536,1.951848936934755,0.4035829067380518,Right,Incorrect,0.0,0.0,-45,45,2004,554,-0.69
"{'cat': 'RB', 'resp': 'reach'}",34,69,Left,46.173096440373776,56.387512576579404,2.308654822018689,0.8857329763239196,Right,Incorrect,0.0,0.0,-45,45,2004,1320,-0.75
"{'cat': 'RB', 'resp': 'reach'}",34,70,Left,32.87588512707525,66.06129874619256,1.6437942563537626,1.0376884541381959,Left,Correct,0.0,0.0,-45,45,2004,483,-2.52
"{'cat': 'RB', 'resp': 'reach'}",34,71,Right,66.89335185001102,64.2473768983685,3.3446675925005507,1.0091954363816453,Left,Incorrect,0.0,0.0,-45,45,2004,533,-2.5
"{'cat': 'RB', 'resp': 'reach'}",34,72,Left,37.445325689655945,15.214900703464757,1.872266284482797,0.23899510137551527,Right,Incorrect,0.0,0.0,-45,45,2004,467,-0.81
"{'cat': 'RB', 'resp': 'reach'}",34,73,Right,61.46528411559878,36.15691200527209,3.073264205779939,0.567951445661277,Left,Incorrect,0.0,0.0,-45,45,2004,938,-2.45
"{'cat': 'RB', 'resp': 'reach'}",34,74,Left,34.63795834309403,42.87818005148875,1.7318979171547013,0.6735288772452874,Right,Incorrect,0.0,0.0,-45,45,2004,1055,-0.81
"{'cat': 'RB', 'resp': 'reach'}",34,75,Left,33.133597928745374,45.05928298476968,1.6566798964372687,0.70778956200488,Right,Incorrect,0.0,0.0,-45,45,2004,475,-0.8
"{'cat': 'RB', 'resp': 'reach'}",34,76,Left,49.28770761231345,44.428962163805444,2.4643853806156724,0.6978885057021503,Right,Incorrect,0.0,0.0,-45,45,2012,658,-0.76
"{'cat': 'RB', 'resp': 'reach'}",34,77,Right,67.10088203271559,28.182209348950813,3.3550441016357797,0.44268510926296734,Left,Incorrect,0.0,0.0,-45,45,2004,433,-2.46
"{'cat': 'RB', 'resp': 'reach'}",34,78,Right,57.18060544839803,78.61093430954321,2.859030272419902,1.234817668593454,Right,Correct,0.0,0.0,-45,45,2005,1508,-0.8
"{'cat': 'RB', 'resp': 'reach'}",34,79,Left,43.3123357305699,24.648093056900898,2.1656167865284948,0.3871713403627872,Right,Incorrect,0.0,0.0,-45,45,2004,816,-0.78
"{'cat': 'RB', 'resp': 'reach'}",34,80,Right,56.05767353176395,67.64123982093213,2.8028836765881975,1.0625061105057287,Left,Incorrect,0.0,0.0,-45,45,2005,716,-2.58
"{'cat': 'RB', 'resp': 'reach'}",34,81,Right,58.72527842585642,34.622359210107916,2.9362639212928214,0.5438467467221096,Right,Correct,0.0,0.0,-45,45,2004,783,-0.81
"{'cat': 'RB', 'resp': 'reach'}",34,82,Left,38.87239619078813,80.18512696505655,1.9436198095394064,1.2595450290029326,Left,Correct,0.0,0.0,-45,45,2012,587,-2.54
"{'cat': 'RB', 'resp': 'reach'}",34,83,Right,66.69756470181892,21.301142401530296,3.334878235090946,0.33459756240858807,Right,Correct,0.0,0.0,-45,45,2012,384,-0.78
"{'cat': 'RB', 'resp': 'reach'}",34,84,Left,36.35532659673954,55.1216027744935,1.8177663298369768,0.8658481116522178,Left,Correct,0.0,0.0,-45,45,2004,587,-2.52
"{'cat': 'RB', 'resp': 'reach'}",34,85,Right,66.74395965247692,60.648553564391435,3.337197982623846,0.952665251643696,Right,Correct,0.0,0.0,-45,45,2004,538,-0.74
"{'cat': 'RB', 'resp': 'reach'}",34,86,Right,57.1459842845795,43.46151466563829,2.8572992142289753,0.6826918759372715,Left,Incorrect,0.0,0.0,-45,45,2004,525,-2.56
"{'cat': 'RB', 'resp': 'reach'}",34,87,Left,41.41051349721276,26.438945014427805,2.0705256748606384,0.4153019771299544,Left,Correct,0.0,0.0,-45,45,2008,483,-2.42
"{'cat': 'RB', 'resp': 'reach'}",34,88,Left,33.549629825812254,52.21489732562918,1.6774814912906126,0.8201896892307098,Right,Incorrect,0.0,0.0,-45,45,2013,517,-0.81
"{'cat': 'RB', 'resp': 'reach'}",34,89,Left,45.120026938760496,51.92868278658804,2.256001346938025,0.8156938417646987,Right,Incorrect,0.0,0.0,-45,45,2004,462,-0.84
"{'cat': 'RB', 'resp': 'reach'}",34,90,Right,58.153957162751965,41.56733954217781,2.907697858137598,0.6529382426748915,Right,Correct,0.0,0.0,-45,45,2004,1508,-0.85
"{'cat': 'RB', 'resp': 'reach'}",34,91,Left,46.29769987550077,25.69650479351857,2.3148849937750384,0.40363975341126423,Right,Incorrect,0.0,0.0,-45,45,2004,471,-0.82
"{'cat': 'RB', 'resp': 'reach'}",34,92,Right,54.92219905335895,30.738498479702255,2.7461099526679478,0.48283920503106814,Left,Incorrect,0.0,0.0,-45,45,2004,475,-2.43
"{'cat': 'RB', 'resp': 'reach'}",34,93,Left,35.698134772824204,19.169352013408716,1.7849067386412103,0.3011114772970077,Left,Correct,0.0,0.0,-45,45,2012,417,-2.6
"{'cat': 'RB', 'resp': 'reach'}",34,94,Left,42.96277892308798,79.56282779537918,2.1481389461543987,1.2497699765039652,Right,Incorrect,0.0,0.0,-45,45,2013,658,-0.83
"{'cat': 'RB', 'resp': 'reach'}",34,95,Left,43.93588036303865,59.45891702708546,2.1967940181519325,0.9339784846134837,Left,Correct,0.0,0.0,-45,45,2004,904,-2.47
"{'cat': 'RB', 'resp': 'reach'}",34,96,Left,47.58913678763634,48.97159937525263,2.379456839381817,0.7692440841591809,Left,Correct,0.0,0.0,-45,45,2004,696,-2.51
"{'cat': 'RB', 'resp': 'reach'}",34,97,Left,42.45652810454063,87.24766963754635,2.122826405227032,1.3704831898807244,Left,Correct,0.0,0.0,-45,45,2009,433,-2.52
"{'cat': 'RB', 'resp': 'reach'}",34,98,Left,46.89074200638597,65.48704145418733,2.3445371003192985,1.028668041689026,Left,Correct,0.0,0.0,-45,45,2012,517,-2.4
"{'cat': 'RB', 'resp': 'reach'}",34,99,Right,64.30645937045819,67.39009318183493,3.2153229685229094,1.0585611083239213,Left,Incorrect,0.0,0.0,-45,45,2005,583,-2.56
"{'cat': 'RB', 'resp': 'reach'}",34,100,Right,50.52800083039338,50.79002334753363,2.5264000415196692,0.7978078211213285,Right,Correct,0.0,0.0,-45,45,2008,562,-0.74
"{'cat': 'RB', 'resp': 'reach'}",34,101,Right,54.83150005750855,28.719219139908827,2.7415750028754275,0.45112043933386475,Right,Correct,0.0,0.0,-45,45,2004,483,-0.77
"{'cat': 'RB', 'resp': 'reach'}",34,102,Right,59.11085257999521,59.165828345525654,2.95554262899976,0.9293746583692908,Right,Correct,0.0,0.0,-45,45,2004,521,-0.87
"{'cat': 'RB', 'resp': 'reach'}",34,103,Left,33.88559983322392,48.14216492894925,1.6942799916611961,0.7562153583434756,Right,Incorrect,0.0,0.0,-45,45,2004,471,-0.76
"{'cat': 'RB', 'resp': 'reach'}",34,104,Left,41.572682912064245,36.85467109555062,2.0786341456032122,0.5789118198212496,Left,Correct,0.0,0.0,-45,45,2004,466,-2.63
"{'cat': 'RB', 'resp': 'reach'}",34,105,Right,61.62545050518197,40.77214339063868,3.0812725252590987,0.6404473307357006,Left,Incorrect,0.0,0.0,-45,45,2004,504,-2.53
"{'cat': 'RB', 'resp': 'reach'}",34,106,Right,52.4282545873106,59.759196352407514,2.6214127293655296,0.9386952612257672,Right,Correct,0.0,0.0,-45,45,2004,554,-0.86
"{'cat': 'RB', 'resp': 'reach'}",34,107,Left,42.795728396958744,88.32365549142197,2.1397864198479373,1.3873847361502354,Left,Correct,0.0,0.0,-45,45,2008,463,-2.64
"{'cat': 'RB', 'resp': 'reach'}",34,108,Left,31.433149132883056,41.02478406377603,1.5716574566441528,0.644415801149332,Right,Incorrect,0.0,0.0,-45,45,2004,642,-0.78
"{'cat': 'RB', 'resp': 'reach'}",34,109,Left,35.70931919686465,31.381072141268945,1.7854659598432323,0.4929327285039092,Left,Correct,0.0,0.0,-45,45,2004,592,-2.56
"{'cat': 'RB', 'resp': 'reach'}",34,110,Left,44.149713810798715,27.93778461639274,2.2074856905399356,0.4388456945421668,Left,Correct,0.0,0.0,-45,45,2004,775,-2.59
"{'cat': 'RB', 'resp': 'reach'}",34,111,Left,41.05189749021507,75.9707009040022,2.0525948745107536,1.1933449792404038,Left,Correct,0.0,0.0,-45,45,2008,604,-2.59
"{'cat': 'RB', 'resp': 'reach'}",34,112,Right,51.834400086966525,54.13704057178033,2.591720004348326,0.8503826447369882,Left,Incorrect,0.0,0.0,-45,45,2004,654,-2.56
"{'cat': 'RB', 'resp': 'reach'}",34,113,Right,58.553722186012465,82.10503581153321,2.9276861093006232,1.2897028866411981,Right,Correct,0.0,0.0,-45,45,2004,625,-0.77
"{'cat': 'RB', 'resp': 'reach'}",34,114,Left,30.833644126064684,42.413472950682255,1.5416822063032343,0.6662292751754639,Right,Incorrect,0.0,0.0,-45,45,2004,412,-0.86
"{'cat': 'RB', 'resp': 'reach'}",34,115,Left,39.50926002672296,59.672364225607325,1.975463001336148,0.9373313053675117,Left,Correct,0.0,0.0,-45,45,2004,575,-2.53
"{'cat': 'RB', 'resp': 'reach'}",34,116,Right,65.94514207113124,74.79978626740778,3.2972571035565625,1.1749522951388751,Left,Incorrect,0.0,0.0,-45,45,2004,462,-2.62
"{'cat': 'RB', 'resp': 'reach'}",34,117,Right,65.7634865275571,80.56617123011253,3.2881743263778556,1.2655304583218943,Right,Correct,0.0,0.0,-45,45,2004,450,-0.9
"{'cat': 'RB', 'resp': 'reach'}",34,118,Right,56.203244296234004,81.82600481143993,2.8101622148117,1.285319877941114,Left,Incorrect,0.0,0.0,-45,45,2004,434,-2.59
"{'cat': 'RB', 'resp': 'reach'}",34,119,Left,37.113633932940466,16.049621271367997,1.8556816966470233,0.2521068613951409,Right,Incorrect,0.0,0.0,-45,45,2004,555,-0.77
"{'cat': 'RB', 'resp': 'reach'}",34,120,Left,41.618990676886334,68.86819648678714,2.0809495338443167,1.0817791007443442,Left,Correct,0.0,0.0,-45,45,2004,462,-2.58
"{'cat': 'RB', 'resp': 'reach'}",34,121,Right,51.24837258355871,48.11670406514414,2.5624186291779356,0.7558154200300548,Left,Incorrect,0.0,0.0,-45,45,2004,446,-2.53
"{'cat': 'RB', 'resp': 'reach'}",34,122,Right,56.20837183451016,56.22705295513979,2.810418591725508,0.8832124824843572,Left,Incorrect,0.0,0.0,-45,45,2004,525,-2.56
"{'cat': 'RB', 'resp': 'reach'}",34,123,Left,46.970461380472756,30.593574646810907,2.3485230690236376,0.48056274678736044,Right,Incorrect,0.0,0.0,-45,45,2004,475,-0.7
"{'cat': 'RB', 'resp': 'reach'}",34,124,Left,46.22040308890691,74.84862214739242,2.311020154445346,1.1757194073478316,Right,Incorrect,0.0,0.0,-45,45,2004,575,-0.91
"{'cat': 'RB', 'resp': 'reach'}",34,125,Right,63.239134345063306,56.05470534587651,3.1619567172531653,0.8805052525687308,Right,Correct,0.0,0.0,-45,45,2008,554,-0.89
"{'cat': 'RB', 'resp': 'reach'}",34,126,Right,62.187783758878105,57.17166101006674,3.1093891879439055,0.8980503511137584,Right,Correct,0.0,0.0,-45,45,2005,504,-0.81
"{'cat': 'RB', 'resp': 'reach'}",34,127,Left,31.616425618575764,42.93966767394825,1.5808212809287883,0.6744947225603147,Right,Incorrect,0.0,0.0,-45,45,2012,625,-0.8
"{'cat': 'RB', 'resp': 'reach'}",34,128,Right,58.1815111037271,88.86061701976912,2.9090755551863547,1.395819308113814,Left,Incorrect,0.0,0.0,-45,45,2004,534,-2.58
"{'cat': 'RB', 'resp': 'reach'}",34,129,Left,39.472310722267515,47.57112692313205,1.9736155361133756,0.7472455143234964,Left,Correct,0.0,0.0,-45,45,2012,417,-2.51
"{'cat': 'RB', 'resp': 'reach'}",34,130,Right,64.63484343233702,57.72208270705336,3.2317421716168506,0.9066963549119065,Right,Correct,0.0,0.0,-45,45,2004,475,-0.79
"{'cat': 'RB', 'resp': 'reach'}",34,131,Right,67.7468666926592,53.921412194633724,3.3873433346329596,0.846995562109242,Right,Correct,0.0,0.0,-45,45,2004,500,-0.77
"{'cat': 'RB', 'resp': 'reach'}",34,132,Right,61.32380351924943,57.125443482347684,3.0661901759624715,0.897324367886012,Left,Incorrect,0.0,0.0,-45,45,2008,442,-2.54
"{'cat': 'RB', 'resp': 'reach'}",34,133,Left,42.39529452072501,29.76279825497485,2.11976472603625,0.4675129417405205,Left,Correct,0.0,0.0,-45,45,2004,533,-2.52
"{'cat': 'RB', 'resp': 'reach'}",34,134,Left,45.614081292709315,78.98786817129574,2.280704064635466,1.2407385318483088,Right,Incorrect,0.0,0.0,-45,45,2013,587,-0.78
"{'cat': 'RB', 'resp': 'reach'}",34,135,Left,48.93885179010347,37.83917692560467,2.4469425895051735,0.5943764012368202,Right,Incorrect,0.0,0.0,-45,45,2004,496,-0.8
"{'cat': 'RB', 'resp': 'reach'}",34,136,Right,52.4865000714001,44.168972013065726,2.624325003570005,0.6938045899643023,Right,Correct,0.0,0.0,-45,45,2004,525,-0.88
"{'cat': 'RB', 'resp': 'reach'}",34,137,Right,62.71964615574459,19.791716559435617,3.1359823077872293,0.3108875567252719,Right,Correct,0.0,0.0,-45,45,2004,421,-0.73
"{'cat': 'RB', 'resp': 'reach'}",34,138,Left,34.99800774062207,19.832803993016075,1.7499003870311036,0.3115329566227281,Right,Incorrect,0.0,0.0,-45,45,2004,566,-0.84
"{'cat': 'RB', 'resp': 'reach'}",34,139,Right,57.15225361905248,39.30017365722905,2.8576126809526237,0.6173256842317696,Left,Incorrect,0.0,0.0,-45,45,2004,405,-2.59
"{'cat': 'RB', 'resp': 'reach'}",34,140,Left,39.269713791161465,65.22270197404191,1.963485689558073,1.0245158068446327,Right,Incorrect,0.0,0.0,-45,45,2004,575,-0.79
"{'cat': 'RB', 'resp': 'reach'}",34,141,Left,44.94135961702786,64.25160828544496,2.2470679808513925,1.0092619028544147,Right,Incorrect,0.0,0.0,-45,45,2012,467,-0.73
"{'cat': 'RB', 'resp': 'reach'}",34,142,Left,36.93840344551453,51.33091637409442,1.8469201722757265,0.8063041489144352,Right,Incorrect,0.0,0.0,-45,45,2004,462,-0.82
"{'cat': 'RB', 'resp': 'reach'}",34,143,Left,42.30336233673035,78.97009767113131,2.1151681168365175,1.2404593934844728,Left,Correct,0.0,0.0,-45,45,2004,1059,-2.64
"{'cat': 'RB', 'resp': 'reach'}",34,144,Left,38.662354167116455,36.159606975939234,1.9331177083558229,0.5679937781615246,Left,Correct,0.0,0.0,-45,45,2004,541,-2.52
"{'cat': 'RB', 'resp': 'reach'}",34,145,Left,41.53987109421481,50.92769348323712,2.0769935547107408,0.7999703385560526,Left,Correct,0.0,0.0,-45,45,2008,554,-2.57
"{'cat': 'RB', 'resp': 'reach'}",34,146,Left,44.510609452635684,20.613495525494393,2.2255304726317844,0.3237960305384963,Left,Correct,0.0,0.0,-45,45,2004,813,-2.52
"{'cat': 'RB', 'resp': 'reach'}",34,147,Right,66.48257138686347,68.74125814742638,3.3241285693431735,1.079785157972371,Right,Correct,0.0,0.0,-45,45,2008,500,-0.81
"{'cat': 'RB', 'resp': 'reach'}",34,148,Right,68.96124657942825,59.80589011655979,3.448062328971412,0.9394287251579132,Right,Correct,0.0,0.0,-45,45,2004,483,-0.83
"{'cat': 'RB', 'resp': 'reach'}",34,149,Left,31.54022382827875,64.17106909662803,1.5770111914139375,1.0079967962348482,Right,Incorrect,0.0,0.0,-45,45,2013,496,-0.87
"{'cat': 'RB', 'resp': 'reach'}",34,150,Right,57.43064046579928,74.85761358623913,2.871532023289964,1.1758606445389614,Left,Incorrect,0.0,0.0,-45,45,2012,725,-2.53
"{'cat': 'RB', 'resp': 'reach'}",34,151,Right,56.70036313866166,74.04778403715767,2.835018156933083,1.1631398717286905,Right,Correct,0.0,0.0,-45,45,2004,504,-0.9
"{'cat': 'RB', 'resp': 'reach'}",34,152,Right,66.250724933622,42.2423137236528,3.3125362466810997,0.6635407123243147,Right,Correct,0.0,0.0,-45,45,2016,463,-0.82
"{'cat': 'RB', 'resp': 'reach'}",34,153,Left,37.46774014175953,21.91855026140927,1.8733870070879763,0.34429578239291,Right,Incorrect,0.0,0.0,-45,45,2009,500,-0.86
"{'cat': 'RB', 'resp': 'reach'}",34,154,Right,52.137072868249206,33.17420400365982,2.6068536434124603,0.5210991779329339,Right,Correct,0.0,0.0,-45,45,2004,504,-0.8
"{'cat': 'RB', 'resp': 'reach'}",34,155,Left,36.39816610070254,29.977403127725193,1.819908305035127,0.4708839471988058,Right,Incorrect,0.0,0.0,-45,45,2005,483,-0.82
"{'cat': 'RB', 'resp': 'reach'}",34,156,Left,36.460883298381155,39.1460300133668,1.8230441649190579,0.6149044015359934,Left,Correct,0.0,0.0,-45,45,2017,512,-2.52
"{'cat': 'RB', 'resp': 'reach'}",34,157,Left,46.65689548078929,60.35712045771611,2.332844774039464,0.9480874311089755,Left,Correct,0.0,0.0,-45,45,2004,504,-2.56
"{'cat': 'RB', 'resp': 'reach'}",34,158,Right,57.490341269888525,29.135785701656246,2.8745170634944266,0.457663851584449,Left,Incorrect,0.0,0.0,-45,45,2004,646,-2.5
"{'cat': 'RB', 'resp': 'reach'}",34,159,Left,46.33454344478815,46.22630318570012,2.316727172239408,0.7261210724540498,Right,Incorrect,0.0,0.0,-45,45,2008,1871,-0.83
"{'cat': 'RB', 'resp': 'reach'}",34,160,Right,53.57109036056038,46.86128663393963,2.678554518028019,0.7360953691347515,Right,Correct,0.0,0.0,-45,45,2004,617,-0.85
"{'cat': 'RB', 'resp': 'reach'}",34,161,Right,57.9107975906131,89.84606792673932,2.8955398795306553,1.4112987347628692,Right,Correct,0.0,0.0,-45,45,2004,383,-0.76
"{'cat': 'RB', 'resp': 'reach'}",34,162,Right,57.88254230752405,46.64625145262432,2.894127115376202,0.732717604405334,Left,Incorrect,0.0,0.0,-45,45,2004,717,-2.68
"{'cat': 'RB', 'resp': 'reach'}",34,163,Right,57.10941194133187,34.9092862708034,2.8554705970665935,0.548353786452095,Left,Incorrect,0.0,0.0,-45,45,2004,1179,-2.49
"{'cat': 'RB', 'resp': 'reach'}",34,164,Left,44.86216275833144,42.59958821992255,2.2431081379165723,0.669152766988295,Left,Correct,0.0,0.0,-45,45,2017,767,-2.48
"{'cat': 'RB', 'resp': 'reach'}",34,165,Left,37.187922500904264,83.8602822871204,1.8593961250452133,1.3172742338059185,Left,Correct,0.0,0.0,-45,45,2004,454,-2.51
"{'cat': 'RB', 'resp': 'reach'}",34,166,Left,37.901790722966695,40.090433571556915,1.8950895361483346,0.6297390579381641,Left,Correct,0.0,0.0,-45,45,2004,463,-2.56
"{'cat': 'RB', 'resp': 'reach'}",34,167,Right,64.92143138229862,56.58766655153964,3.2460715691149313,0.8888769876105289,Left,Incorrect,0.0,0.0,-45,45,2004,1400,-2.54
"{'cat': 'RB', 'resp': 'reach'}",34,168,Right,53.88288774111085,77.97174638397178,2.6941443870555424,1.2247773281372611,Right,Correct,0.0,0.0,-45,45,2004,662,-0.83
"{'cat': 'RB', 'resp': 'reach'}",34,169,Left,34.25696556816967,57.12218190843245,1.7128482784084835,0.897273135202756,Right,Incorrect,0.0,0.0,-45,45,2008,554,-0.89
"{'cat': 'RB', 'resp': 'reach'}",34,170,Left,40.67133366275099,70.42923600172244,2.033566683137549,1.1062998521047651,Right,Incorrect,0.0,0.0,-45,45,2004,1933,-0.73
"{'cat': 'RB', 'resp': 'reach'}",34,171,Right,55.9745617999848,13.131416543997119,2.79872808999924,0.2062678087292441,Left,Incorrect,0.0,0.0,-45,45,2004,525,-2.57
"{'cat': 'RB', 'resp': 'reach'}",34,172,Left,31.021913652346512,57.353998709961374,1.5510956826173257,0.9009145050060656,Right,Incorrect,0.0,0.0,-45,45,2005,449,-0.76
"{'cat': 'RB', 'resp': 'reach'}",34,173,Right,54.90282176879645,74.48754037841772,2.7451410884398224,1.1700475481840509,Right,Correct,0.0,0.0,-45,45,2004,396,-0.78
"{'cat': 'RB', 'resp': 'reach'}",34,174,Left,32.205093807642484,49.86751575154782,1.610254690382124,0.7833171056891797,Left,Correct,0.0,0.0,-45,45,2004,466,-2.53
"{'cat': 'RB', 'resp': 'reach'}",34,175,Left,43.54755925447259,65.12255256908517,2.1773779627236296,1.0229426636702654,Right,Incorrect,0.0,0.0,-45,45,2004,542,-0.74
"{'cat': 'RB', 'resp': 'reach'}",34,176,Left,48.526387801500555,46.89252746617125,2.4263193900750277,0.736586098979906,Right,Incorrect,0.0,0.0,-45,45,2004,1729,-0.7
"{'cat': 'RB', 'resp': 'reach'}",34,177,Right,59.0342495361111,35.65653279290479,2.951712476805555,0.5600915073733662,Left,Incorrect,0.0,0.0,-45,45,2012,554,-2.5
"{'cat': 'RB', 'resp': 'reach'}",34,178,Left,35.202606137738826,15.511459866552237,1.7601303068869414,0.24365344181606707,Left,Correct,0.0,0.0,-45,45,2012,596,-2.45
"{'cat': 'RB', 'resp': 'reach'}",34,179,Right,67.0823662513432,62.17739923578696,3.3541183125671603,0.9766803032923396,Right,Correct,0.0,0.0,-45,45,2004,505,-0.75
"{'cat': 'RB', 'resp': 'reach'}",34,180,Right,56.66500885837629,72.79391739754612,2.8332504429188146,1.1434441806107656,Left,Incorrect,0.0,0.0,-45,45,2008,3100,-2.55
"{'cat': 'RB', 'resp': 'reach'}",34,181,Right,61.98509398473324,19.80432044941224,3.0992546992366616,0.31108553816605805,Left,Incorrect,0.0,0.0,-45,45,2004,434,-2.49
"{'cat': 'RB', 'resp': 'reach'}",34,182,Right,61.90033841461718,42.411186109139514,3.095016920730859,0.6661933535525109,Right,Correct,0.0,0.0,-45,45,2017,433,-0.79
"{'cat': 'RB', 'resp': 'reach'}",34,183,Left,46.79413320383909,72.33660137685757,2.3397066601919545,1.1362606773559452,Right,Incorrect,0.0,0.0,-45,45,2004,663,-0.69
"{'cat': 'RB', 'resp': 'reach'}",34,184,Right,62.51424778691297,28.709872184836087,3.1257123893456487,0.45097361770691496,Left,Incorrect,0.0,0.0,-45,45,2004,475,-2.38
"{'cat': 'RB', 'resp': 'reach'}",34,185,Left,46.54765319702169,79.59922140918486,2.3273826598510845,1.2503416460528125,Left,Correct,0.0,0.0,-45,45,2017,483,-2.4
"{'cat': 'RB', 'resp': 'reach'}",34,186,Right,53.44621691205974,61.763885754388596,2.672310845602987,0.9701848487157324,Right,Correct,0.0,0.0,-45,45,2004,454,-0.83
"{'cat': 'RB', 'resp': 'reach'}",34,187,Left,42.1695148443634,64.39700832192423,2.10847574221817,1.0115458412865896,Right,Incorrect,0.0,0.0,-45,45,2005,1070,-0.82
"{'cat': 'RB', 'resp': 'reach'}",34,188,Left,39.595078985167724,82.48013143138039,1.9797539492583862,1.2955948748597261,Right,Incorrect,0.0,0.0,-45,45,2008,429,-0.86
"{'cat': 'RB', 'resp': 'reach'}",34,189,Left,36.14033873699401,29.288221109069024,1.8070169368497004,0.4600583013648238,Left,Correct,0.0,0.0,-45,45,2004,646,-2.52
"{'cat': 'RB', 'resp': 'reach'}",34,190,Right,55.545701240370896,81.04260391880499,2.777285062018545,1.2730142454955256,Left,Incorrect,0.0,0.0,-45,45,2004,913,-2.5
"{'cat': 'RB', 'resp': 'reach'}",34,191,Right,51.6569357077034,57.665427278900935,2.5828467853851698,0.9058064135275582,Right,Correct,0.0,0.0,-45,45,2004,496,-0.9
"{'cat': 'RB', 'resp': 'reach'}",34,192,Right,62.62242166769021,20.9418581262393,3.1311210833845102,0.3289539382095655,Left,Incorrect,0.0,0.0,-45,45,2004,492,-2.55
"{'cat': 'RB', 'resp': 'reach'}",34,193,Right,62.27495692032508,63.74527230095721,3.113747846016254,1.0013083958088407,Right,Correct,0.0,0.0,-45,45,2004,487,-0.79
"{'cat': 'RB', 'resp': 'reach'}",34,194,Right,52.79087538429051,76.71207936154406,2.639543769214525,1.2049905248191202,Left,Incorrect,0.0,0.0,-45,45,2008,471,-2.44
"{'cat': 'RB', 'resp': 'reach'}",34,195,Right,60.69698188092165,87.47867159624636,3.0348490940460824,1.3741117601628083,Right,Correct,0.0,0.0,-45,45,2004,563,-0.85
"{'cat': 'RB', 'resp': 'reach'}",34,196,Left,37.83981673224443,66.76994050937462,1.8919908366122216,1.048819772924394,Right,Incorrect,0.0,0.0,-45,45,2004,454,-0.8
"{'cat': 'RB', 'resp': 'reach'}",34,197,Right,56.48557739609571,46.74718352267942,2.8242788698047856,0.7343030416543174,Right,Correct,0.0,0.0,-45,45,2004,475,-0.71
"{'cat': 'RB', 'resp': 'reach'}",34,198,Left,39.78366734154856,18.01155143227356,1.9891833670774277,0.2829247882969267,Left,Correct,0.0,0.0,-45,45,2009,983,-2.45
"{'cat': 'RB', 'resp': 'reach'}",34,199,Right,54.01884810326799,47.977905558563116,2.7009424051633992,0.7536351781870341,Right,Correct,0.0,0.0,-45,45,2005,483,-0.84
"{'cat': 'RB', 'resp': 'reach'}",34,200,Right,66.99455721043448,39.54810312747579,3.349727860521724,0.6212201512434472,Right,Correct,0.0,0.0,-45,45,2008,533,-0.81
"{'cat': 'RB', 'resp': 'reach'}",34,201,Right,62.01364644171647,25.166992474800416,3.1006823220858233,0.395322193358913,Left,Incorrect,0.0,0.0,-45,45,2004,517,-2.49
"{'cat': 'RB', 'resp': 'reach'}",34,202,Right,59.963673086318316,41.86909887668262,2.9981836543159157,0.6576782672170538,Right,Correct,0.0,0.0,-45,45,2004,1088,-0.84
"{'cat': 'RB', 'resp': 'reach'}",34,203,Right,65.61543123327901,75.8817634404453,3.2807715616639506,1.1919479528297074,Right,Correct,0.0,0.0,-45,45,2012,454,-0.85
"{'cat': 'RB', 'resp': 'reach'}",34,204,Right,67.71679161307003,70.40623979681673,3.3858395806535015,1.105938628562804,Right,Correct,0.0,0.0,-45,45,2004,625,-0.84
"{'cat': 'RB', 'resp': 'reach'}",34,205,Left,35.89210468668474,69.28840566380461,1.7946052343342371,1.0883797310617898,Right,Incorrect,0.0,0.0,-45,45,2013,1833,-0.85
"{'cat': 'RB', 'resp': 'reach'}",34,206,Left,46.215468275979426,59.44339869350429,2.3107734137989713,0.933734723199611,Left,Correct,0.0,0.0,-45,45,2009,862,-2.53
"{'cat': 'RB', 'resp': 'reach'}",34,207,Right,60.910804749770016,81.23761555443613,3.045540237488501,1.276077481104842,Left,Incorrect,0.0,0.0,-45,45,2013,496,-2.4
"{'cat': 'RB', 'resp': 'reach'}",34,208,Left,40.08046758560349,54.27171019651115,2.0040233792801745,0.8524980302555684,Right,Incorrect,0.0,0.0,-45,45,2009,429,-0.85
"{'cat': 'RB', 'resp': 'reach'}",34,209,Left,42.146964636067125,50.18774049548012,2.1073482318033565,0.7883471842043567,Right,Incorrect,0.0,0.0,-45,45,2004,675,-0.82
"{'cat': 'RB', 'resp': 'reach'}",34,210,Right,60.10312587276289,69.5650209402243,3.005156293638145,1.092724793663144,Right,Correct,0.0,0.0,-45,45,2008,483,-0.83
"{'cat': 'RB', 'resp': 'reach'}",34,211,Left,48.289812237948404,66.29019700727076,2.41449061189742,1.0412839796153095,Right,Incorrect,0.0,0.0,-45,45,2004,1167,-0.85
"{'cat': 'RB', 'resp': 'reach'}",34,212,Right,62.23036070812698,27.73161245766366,3.1115180354063487,0.43560714984597665,Left,Incorrect,0.0,0.0,-45,45,2004,575,-2.45
"{'cat': 'RB', 'resp': 'reach'}",34,213,Left,48.69587526200331,34.68670788642278,2.4347937631001657,0.5448575333660047,Left,Correct,0.0,0.0,-45,45,2004,534,-2.4
"{'cat': 'RB', 'resp': 'reach'}",34,214,Left,38.32188903170466,62.08884264948106,1.9160944515852327,0.9752892596875117,Right,Incorrect,0.0,0.0,-45,45,2009,1429,-0.75
"{'cat': 'RB', 'resp': 'reach'}",34,215,Left,46.33883101042551,61.66425821840396,2.3169415505212756,0.9686199030400094,Left,Correct,0.0,0.0,-45,45,2004,988,-2.56
"{'cat': 'RB', 'resp': 'reach'}",34,216,Left,44.41792484545162,47.3534276692283,2.2208962422725813,0.7438259024397162,Right,Incorrect,0.0,0.0,-45,45,2004,746,-0.81
"{'cat': 'RB', 'resp': 'reach'}",34,217,Left,33.049256716903166,54.65283903925731,1.6524628358451583,0.8584847881177811,Left,Correct,0.0,0.0,-45,45,2004,504,-2.36
"{'cat': 'RB', 'resp': 'reach'}",34,218,Right,51.71666802969768,32.2955702751658,2.585833401484884,0.5072976315997688,Left,Incorrect,0.0,0.0,-45,45,2004,483,-2.6
"{'cat': 'RB', 'resp': 'reach'}",34,219,Left,35.94485121259096,21.518283047983886,1.797242560629548,0.33800839970705976,Left,Correct,0.0,0.0,-45,45,2004,705,-2.53
"{'cat': 'RB', 'resp': 'reach'}",34,220,Right,66.1168847485155,49.99993528689321,3.3058442374257755,0.785397146886344,Right,Correct,0.0,0.0,-45,45,2013,1804,-0.86
"{'cat': 'RB', 'resp': 'reach'}",34,221,Right,66.5625855734554,69.94873751477012,3.32812927867277,1.0987521995214127,Left,Incorrect,0.0,0.0,-45,45,2004,450,-2.52
"{'cat': 'RB', 'resp': 'reach'}",34,222,Right,59.569136928208,51.9724276060565,2.9784568464104,0.8163809837820724,Right,Correct,0.0,0.0,-45,45,2004,375,-0.86
"{'cat': 'RB', 'resp': 'reach'}",34,223,Left,39.81979561927462,72.94547879561118,1.9909897809637311,1.1458249014844109,Right,Incorrect,0.0,0.0,-45,45,2004,450,-0.8
"{'cat': 'RB', 'resp': 'reach'}",34,224,Right,54.60058472633985,51.86949631831484,2.7300292363169922,0.8147641428951036,Right,Correct,0.0,0.0,-45,45,2004,400,-0.83
"{'cat': 'RB', 'resp': 'reach'}",34,225,Left,39.00642909384082,73.76881231830716,1.9503214546920413,1.1587577942161902,Left,Correct,0.0,0.0,-45,45,2009,483,-2.44
"{'cat': 'RB', 'resp': 'reach'}",34,226,Right,52.78114736733833,39.90140520050001,2.6390573683669163,0.626769807229002,Left,Incorrect,0.0,0.0,-45,45,2004,417,-2.58
"{'cat': 'RB', 'resp': 'reach'}",34,227,Left,46.181181339368436,68.11254936941435,2.309059066968422,1.069909423581121,Left,Correct,0.0,0.0,-45,45,2005,541,-2.39
"{'cat': 'RB', 'resp': 'reach'}",34,228,Left,40.28664644042349,61.379189777344735,2.014332322021174,0.9641420584389997,Right,Incorrect,0.0,0.0,-45,45,2017,450,-0.74
"{'cat': 'RB', 'resp': 'reach'}",34,229,Left,34.31008144716085,34.652139714231154,1.7155040723580424,0.5443145377869786,Left,Correct,0.0,0.0,-45,45,2013,2037,-2.56
"{'cat': 'RB', 'resp': 'reach'}",34,230,Left,42.092876490222736,15.748912315100242,2.104643824511137,0.2473833361557437,Left,Correct,0.0,0.0,-45,45,2009,429,-2.46
"{'cat': 'RB', 'resp': 'reach'}",34,231,Right,65.33141919329852,27.01777437909391,3.266570959664926,0.42439420752853985,Right,Correct,0.0,0.0,-45,45,2004,572,-0.82
"{'cat': 'RB', 'resp': 'reach'}",34,232,Right,64.60137703591053,20.854522941645175,3.2300688517955267,0.32758208033796143,Left,Incorrect,0.0,0.0,-45,45,2004,451,-2.46
"{'cat': 'RB', 'resp': 'reach'}",34,233,Left,36.073671663450234,20.080544351801617,1.8036835831725115,0.31542445307851985,Right,Incorrect,0.0,0.0,-45,45,2005,450,-0.83
"{'cat': 'RB', 'resp': 'reach'}",34,234,Right,56.21279136914068,56.63369150891197,2.810639568457034,0.8895999459503424,Left,Incorrect,0.0,0.0,-45,45,2005,475,-2.47
"{'cat': 'RB', 'resp': 'reach'}",34,235,Left,47.13624321832215,24.90538764107297,2.3568121609161072,0.3912129142400044,Left,Correct,0.0,0.0,-45,45,2009,1024,-2.51
"{'cat': 'RB', 'resp': 'reach'}",34,236,Left,45.48020753920383,33.629947871131975,2.2740103769601916,0.5282579858627796,Left,Correct,0.0,0.0,-45,45,2017,421,-2.51
"{'cat': 'RB', 'resp': 'reach'}",34,237,Left,40.624457213203016,32.911457757102994,2.031222860660151,0.5169719695432279,Right,Incorrect,0.0,0.0,-45,45,2012,425,-0.81
"{'cat': 'RB', 'resp': 'reach'}",34,238,Right,62.72544385490221,82.08919719484214,3.1362721927451105,1.2894540942319996,Right,Correct,0.0,0.0,-45,45,2004,1471,-0.82
"{'cat': 'RB', 'resp': 'reach'}",34,239,Right,58.758545552141626,24.74793372427252,2.9379272776070815,0.3887396338985082,Right,Correct,0.0,0.0,-45,45,2012,1038,-0.85
"{'cat': 'RB', 'resp': 'reach'}",34,240,Right,58.18509334770079,42.91271860840888,2.90925466738504,0.6740714076287168,Right,Correct,0.0,0.0,-45,45,2012,567,-0.76
"{'cat': 'RB', 'resp': 'reach'}",34,241,Left,33.85128228313534,34.46968747861927,1.6925641141567669,0.5414485847718319,Left,Correct,0.0,0.0,-45,45,2004,988,-2.67
"{'cat': 'RB', 'resp': 'reach'}",34,242,Right,59.11367019468032,43.98827025046137,2.955683509734016,0.6909661333148596,Left,Incorrect,0.0,0.0,-45,45,2005,471,-2.42
"{'cat': 'RB', 'resp': 'reach'}",34,243,Right,60.81586312094256,54.717288456584086,3.040793156047128,0.8594971571977907,Right,Correct,0.0,0.0,-45,45,2009,550,-0.8
"{'cat': 'RB', 'resp': 'reach'}",34,244,Left,36.48700902716779,53.846175629743314,1.8243504513583895,0.8458137489115368,Right,Incorrect,0.0,0.0,-45,45,2004,484,-0.81
"{'cat': 'RB', 'resp': 'reach'}",34,245,Left,45.33310589281159,62.0253044881793,2.2666552946405796,0.9742912045836707,Right,Incorrect,0.0,0.0,-45,45,2013,483,-0.81
"{'cat': 'RB', 'resp': 'reach'}",34,246,Left,41.223935676222574,84.53202434513122,2.0611967838111287,1.327825933378689,Right,Incorrect,0.0,0.0,-45,45,2005,404,-0.7
"{'cat': 'RB', 'resp': 'reach'}",34,247,Right,51.877641716746965,60.54382831299596,2.593882085837348,0.9510202312415491,Right,Correct,0.0,0.0,-45,45,2012,1300,-0.72
"{'cat': 'RB', 'resp': 'reach'}",34,248,Right,51.22287922571757,34.709009054955,2.5611439612858784,0.5452078393021412,Right,Correct,0.0,0.0,-45,45,2008,400,-0.7
"{'cat': 'RB', 'resp': 'reach'}",34,249,Right,56.26810693119443,24.85176749272491,2.8134053465597213,0.39037065091933104,Right,Correct,0.0,0.0,-45,45,2008,463,-0.71
"{'cat': 'RB', 'resp': 'reach'}",34,250,Left,40.811277693927394,88.45032849126947,2.0405638846963696,1.3893745109788807,Left,Correct,0.0,0.0,-45,45,2004,454,-2.73
"{'cat': 'RB', 'resp': 'reach'}",34,251,Left,44.9970001402022,46.93468093118131,2.24985000701011,0.7372482440599009,Left,Correct,0.0,0.0,-45,45,2013,375,-2.4
"{'cat': 'RB', 'resp': 'reach'}",34,252,Right,63.74319663738421,45.563347813745594,3.1871598318692107,0.7157073938230986,Left,Incorrect,0.0,0.0,-45,45,2008,383,-2.44
"{'cat': 'RB', 'resp': 'reach'}",34,253,Right,60.153306862903705,10.541110865534577,3.0076653431451854,0.16557938227919486,Right,Correct,0.0,0.0,-45,45,2017,500,-0.79
"{'cat': 'RB', 'resp': 'reach'}",34,254,Left,36.90436614003858,75.74002831313805,1.845218307001929,1.1897215826561873,Right,Incorrect,0.0,0.0,-45,45,2004,451,-0.85
"{'cat': 'RB', 'resp': 'reach'}",34,255,Right,63.01510376873168,61.14804975842101,3.1507551884365843,0.9605113195119929,Right,Correct,0.0,0.0,-45,45,2005,391,-0.78
"{'cat': 'RB', 'resp': 'reach'}",34,256,Left,39.96131132784333,74.57400553747775,1.9980655663921667,1.1714057397265232,Left,Correct,0.0,0.0,-45,45,2004,1955,-2.47
"{'cat': 'RB', 'resp': 'reach'}",34,257,Right,64.80447770161803,43.93077044533963,3.240223885080901,0.690062928488093,Right,Correct,0.0,0.0,-45,45,2017,483,-0.81
"{'cat': 'RB', 'resp': 'reach'}",34,258,Right,63.0476278420698,36.02356393688262,3.15238139210349,0.5658568191011633,Right,Correct,0.0,0.0,-45,45,2004,425,-0.78
"{'cat': 'RB', 'resp': 'reach'}",34,259,Left,36.9353076210909,88.04610562538072,1.8467653810545448,1.3830249930494352,Left,Correct,0.0,0.0,-45,45,2005,400,-2.27
"{'cat': 'RB', 'resp': 'reach'}",34,260,Right,62.914744577543715,64.82112960072367,3.145737228877186,1.0182079227551266,Left,Incorrect,0.0,0.0,-45,45,2008,221,-2.49
"{'cat': 'RB', 'resp': 'reach'}",34,261,Left,37.12145792498084,16.300989687609132,1.8560728962490418,0.2560553472441791,Right,Incorrect,0.0,0.0,-45,45,2008,533,-0.72
"{'cat': 'RB', 'resp': 'reach'}",34,262,Right,66.63061595683217,44.51614330715754,3.3315307978416087,0.6992579438995828,Right,Correct,0.0,0.0,-45,45,2012,417,-0.71
"{'cat': 'RB', 'resp': 'reach'}",34,263,Right,60.96349692140569,36.0923877963592,3.0481748460702844,0.5669379017577797,Left,Incorrect,0.0,0.0,-45,45,2004,575,-2.29
"{'cat': 'RB', 'resp': 'reach'}",34,264,Right,54.22570316149423,52.19203503284929,2.7112851580747117,0.8198305691755022,Right,Correct,0.0,0.0,-45,45,2004,1442,-0.82
"{'cat': 'RB', 'resp': 'reach'}",34,265,Right,66.47465004916478,29.488292236877367,3.323732502458239,0.4632010112914143,Right,Correct,0.0,0.0,-45,45,2008,550,-0.83
"{'cat': 'RB', 'resp': 'reach'}",34,266,Left,31.60183211430562,39.067152657398964,1.580091605715281,0.6136653989257778,Right,Incorrect,0.0,0.0,-45,45,2008,534,-0.85
"{'cat': 'RB', 'resp': 'reach'}",34,267,Right,63.099527264904054,83.28869483847691,3.154976363245203,1.3082957591582058,Left,Incorrect,0.0,0.0,-45,45,2004,433,-2.4
"{'cat': 'RB', 'resp': 'reach'}",34,268,Right,65.06995455332877,57.67306804465278,3.2534977276664385,0.9059264343953272,Left,Incorrect,0.0,0.0,-45,45,2008,813,-2.49
"{'cat': 'RB', 'resp': 'reach'}",34,269,Left,43.42703190370113,34.44716053372072,2.1713515951850564,0.5410947323488264,Left,Correct,0.0,0.0,-45,45,2004,384,-2.52
"{'cat': 'RB', 'resp': 'reach'}",34,270,Right,55.74632434173151,52.95307274181724,2.7873162170865755,0.8317849215534949,Right,Correct,0.0,0.0,-45,45,2012,638,-0.84
"{'cat': 'RB', 'resp': 'reach'}",34,271,Left,39.66152652617626,53.20130632866278,1.983076326308813,0.8356841656175358,Right,Incorrect,0.0,0.0,-45,45,2004,454,-0.84
"{'cat': 'RB', 'resp': 'reach'}",34,272,Right,50.88058940353273,53.287539360312316,2.5440294701766364,0.8370387109111707,Left,Incorrect,0.0,0.0,-45,45,2012,1905,-2.55
"{'cat': 'RB', 'resp': 'reach'}",34,273,Right,61.05108844862747,38.913124064723945,3.052554422431373,0.6112459234498246,Right,Correct,0.0,0.0,-45,45,2004,646,-0.66
"{'cat': 'RB', 'resp': 'reach'}",34,274,Left,37.69333650203993,85.5334047594413,1.8846668251019962,1.3435555801439152,Right,Incorrect,0.0,0.0,-45,45,2004,475,-0.7
"{'cat': 'RB', 'resp': 'reach'}",34,275,Right,58.21839231440353,41.37343435533372,2.910919615720177,0.6498923871224799,Left,Incorrect,0.0,0.0,-45,45,2008,1188,-2.51
"{'cat': 'RB', 'resp': 'reach'}",34,276,Left,45.60940148486222,24.179046284110242,2.280470074243111,0.3798035708848416,Left,Correct,0.0,0.0,-45,45,2012,367,-2.47
"{'cat': 'RB', 'resp': 'reach'}",34,277,Left,48.741966662576594,61.92323512686724,2.4370983331288296,0.9726879028053976,Left,Correct,0.0,0.0,-45,45,2004,542,-2.5
"{'cat': 'RB', 'resp': 'reach'}",34,278,Left,40.99474272942018,51.02012911237712,2.049737136471009,0.8014223140232335,Right,Incorrect,0.0,0.0,-45,45,2013,433,-0.72
"{'cat': 'RB', 'resp': 'reach'}",34,279,Right,60.327138961102186,58.61391758030133,3.016356948055109,0.9207052643419615,Right,Correct,0.0,0.0,-45,45,2013,587,-0.78
"{'cat': 'RB', 'resp': 'reach'}",34,280,Right,60.02070457483662,22.83843318752814,3.001035228741831,0.35874526960719855,Right,Correct,0.0,0.0,-45,45,2004,604,-0.8
"{'cat': 'RB', 'resp': 'reach'}",34,281,Right,63.503139016156794,19.621383974689262,3.17515695080784,0.3082119787407414,Left,Incorrect,0.0,0.0,-45,45,2004,213,-2.57
"{'cat': 'RB', 'resp': 'reach'}",34,282,Left,41.03891001714277,70.87651160730415,2.0519455008571383,1.1133256408878922,Right,Incorrect,0.0,0.0,-45,45,2004,1350,-0.77
"{'cat': 'RB', 'resp': 'reach'}",34,283,Left,38.2500977289456,30.783677981927987,1.91250488644728,0.4835488829924941,Right,Incorrect,0.0,0.0,-45,45,2004,421,-0.8
"{'cat': 'RB', 'resp': 'reach'}",34,284,Right,59.36839124723822,31.984905675203134,2.9684195623619107,0.5024177234749032,Right,Correct,0.0,0.0,-45,45,2017,391,-0.74
"{'cat': 'RB', 'resp': 'reach'}",34,285,Right,64.74271770652213,36.55469662931269,3.237135885326106,0.5741998319242616,Right,Correct,0.0,0.0,-45,45,2004,412,-0.83
"{'cat': 'RB', 'resp': 'reach'}",34,286,Left,48.30363253000641,45.96149709462286,2.4151816265003205,0.7219615081022789,Right,Incorrect,0.0,0.0,-45,45,2008,400,-0.79
"{'cat': 'RB', 'resp': 'reach'}",34,287,Left,39.71587792917507,62.36775168777117,1.9857938964587536,0.9796703526160715,Left,Correct,0.0,0.0,-45,45,2005,641,-2.5
"{'cat': 'RB', 'resp': 'reach'}",34,288,Right,68.55142759210985,47.56254038034743,3.4275713796054923,0.7471106372248368,Left,Incorrect,0.0,0.0,-45,45,2013,496,-2.4
"{'cat': 'RB', 'resp': 'reach'}",34,289,Left,39.31827373009519,15.455502332990655,1.9659136865047597,0.24277446293431673,Left,Correct,0.0,0.0,-45,45,2012,417,-2.45
"{'cat': 'RB', 'resp': 'reach'}",34,290,Right,65.02924694960733,45.246265938330424,3.2514623474803663,0.7107266833711448,Left,Incorrect,0.0,0.0,-45,45,2004,812,-2.45
"{'cat': 'RB', 'resp': 'reach'}",34,291,Left,35.40974543984876,81.16983152804282,1.770487271992438,1.2750127321081026,Left,Correct,0.0,0.0,-45,45,2004,483,-2.43
"{'cat': 'RB', 'resp': 'reach'}",34,292,Left,40.26193584139184,81.38780571668423,2.013096792069592,1.2784366626566428,Right,Incorrect,0.0,0.0,-45,45,2016,554,-0.77
"{'cat': 'RB', 'resp': 'reach'}",34,293,Right,60.161379717698146,78.98044775426914,3.0080689858849077,1.240621972210222,Right,Correct,0.0,0.0,-45,45,2004,420,-0.72
"{'cat': 'RB', 'resp': 'reach'}",34,294,Left,36.132792952445214,81.05840050450695,1.8066396476222608,1.273262377683491,Right,Incorrect,0.0,0.0,-45,45,2004,404,-0.78
"{'cat': 'RB', 'resp': 'reach'}",34,295,Left,47.232080583594545,63.6246189468862,2.3616040291797273,0.9994131773549383,Left,Correct,0.0,0.0,-45,45,2009,433,-2.45
"{'cat': 'RB', 'resp': 'reach'}",34,296,Left,40.07837864150069,86.75187945257161,2.0039189320750346,1.3626953358665315,Left,Correct,0.0,0.0,-45,45,2004,525,-2.5
"{'cat': 'RB', 'resp': 'reach'}",34,297,Left,45.30906060236549,82.4412814269188,2.2654530301182745,1.294984620416684,Left,Correct,0.0,0.0,-45,45,2008,450,-2.44
"{'cat': 'RB', 'resp': 'reach'}",34,298,Left,48.823281139792336,55.955421881352834,2.4411640569896167,0.8789457115548781,Right,Incorrect,0.0,0.0,-45,45,2004,441,-0.75
"{'cat': 'RB', 'resp': 'reach'}",34,299,Right,65.97465804391723,23.200662567636364,3.2987329021958613,0.36443515540451055,Right,Correct,0.0,0.0,-45,45,2004,455,-0.8
"{'cat': 'RB', 'resp': 'reach'}",34,300,Right,53.54340907803972,25.00896666930075,2.677170453901986,0.39283992981073623,Right,Correct,0.0,0.0,-45,45,2008,421,-0.64
"{'cat': 'RB', 'resp': 'reach'}",34,301,Right,59.86603061200061,61.97191807946779,2.9933015306000303,0.9734526128366225,Left,Incorrect,0.0,0.0,-45,45,2008,533,-2.45
"{'cat': 'RB', 'resp': 'reach'}",34,302,Left,39.462660083855575,63.985862166785495,1.9731330041927788,1.005087572583912,Right,Incorrect,0.0,0.0,-45,45,2013,495,-0.81
"{'cat': 'RB', 'resp': 'reach'}",34,303,Left,35.258675049485795,53.91853387646492,1.7629337524742896,0.846950349593173,Right,Incorrect,0.0,0.0,-45,45,2004,533,-0.68
"{'cat': 'RB', 'resp': 'reach'}",34,304,Left,40.31676994689078,10.626531568263964,2.015838497344539,0.16692116753999045,Right,Incorrect,0.0,0.0,-45,45,2012,675,-0.74
"{'cat': 'RB', 'resp': 'reach'}",34,305,Right,63.10499860564269,31.422214193574654,3.1552499302821344,0.4935789863502953,Left,Incorrect,0.0,0.0,-45,45,2005,925,-2.45
"{'cat': 'RB', 'resp': 'reach'}",34,306,Left,46.203816965395944,31.38526700823881,2.3101908482697975,0.49299862132018574,Right,Incorrect,0.0,0.0,-45,45,2004,834,-0.8
"{'cat': 'RB', 'resp': 'reach'}",34,307,Left,34.37980716782486,31.080938393074636,1.7189903583912427,0.4882182386118011,Right,Incorrect,0.0,0.0,-45,45,2008,383,-0.8
"{'cat': 'RB', 'resp': 'reach'}",34,308,Left,47.442671057651836,52.97862378133363,2.372133552882592,0.8321862763436761,Right,Incorrect,0.0,0.0,-45,45,2013,637,-0.82
"{'cat': 'RB', 'resp': 'reach'}",34,309,Left,39.74537690713709,85.63063914310993,1.9872688453568546,1.3450829342709638,Right,Incorrect,0.0,0.0,-45,45,2004,558,-0.88
"{'cat': 'RB', 'resp': 'reach'}",34,310,Left,39.38466775251226,11.78298055126865,1.969233387625613,0.185086625686285,Left,Correct,0.0,0.0,-45,45,2004,363,-2.42
"{'cat': 'RB', 'resp': 'reach'}",34,311,Left,47.507444961478406,64.9976377980231,2.37537224807392,1.0209805070347981,Left,Correct,0.0,0.0,-45,45,2013,987,-2.53
"{'cat': 'RB', 'resp': 'reach'}",34,312,Right,52.578598503263,27.118566015202966,2.6289299251631504,0.42597743884625733,Left,Incorrect,0.0,0.0,-45,45,2004,654,-2.34
"{'cat': 'RB', 'resp': 'reach'}",34,313,Right,63.40278896707157,28.772787131215523,3.1701394483535785,0.4519618833736481,Right,Correct,0.0,0.0,-45,45,2004,421,-0.84
"{'cat': 'RB', 'resp': 'reach'}",34,314,Left,41.7282545637016,57.14121417202576,2.08641272818508,0.8975720933001856,Right,Incorrect,0.0,0.0,-45,45,2004,596,-0.84
"{'cat': 'RB', 'resp': 'reach'}",34,315,Left,44.42513662575117,19.970771081637324,2.2212568312875587,0.31370013858297646,Left,Correct,0.0,0.0,-45,45,2004,467,-2.55
"{'cat': 'RB', 'resp': 'reach'}",34,316,Left,43.76515068993065,37.17793651686375,2.1882575344965325,0.5839896611850344,Left,Correct,0.0,0.0,-45,45,2005,574,-2.6
"{'cat': 'RB', 'resp': 'reach'}",34,317,Right,52.6952066702013,36.252162499757254,2.634760333510065,0.569447636929904,Left,Incorrect,0.0,0.0,-45,45,2004,451,-2.4
"{'cat': 'RB', 'resp': 'reach'}",34,318,Left,37.26299248361914,73.56537211932763,1.863149624180957,1.1555621630433954,Right,Incorrect,0.0,0.0,-45,45,2004,462,-0.75
"{'cat': 'RB', 'resp': 'reach'}",34,319,Right,67.54892836893431,50.85433718446997,3.3774464184467154,0.7988180605095455,Right,Correct,0.0,0.0,-45,45,2013,496,-0.77
"{'cat': 'RB', 'resp': 'reach'}",34,320,Right,60.53359857157626,76.50896144016298,3.026679928578813,1.2017999559710038,Right,Correct,0.0,0.0,-45,45,2008,675,-0.74
"{'cat': 'RB', 'resp': 'reach'}",34,321,Right,68.1149217383994,70.57275268525282,3.40574608691997,1.108554206897998,Left,Incorrect,0.0,0.0,-45,45,2008,429,-2.42
"{'cat': 'RB', 'resp': 'reach'}",34,322,Right,51.98453372812715,56.13853267072914,2.5992266864063573,0.8818220091083663,Right,Correct,0.0,0.0,-45,45,2012,496,-0.78
"{'cat': 'RB', 'resp': 'reach'}",34,323,Left,44.64837795461594,33.378407033017766,2.232418897730797,0.5243067916172925,Right,Incorrect,0.0,0.0,-45,45,2016,534,-0.73
"{'cat': 'RB', 'resp': 'reach'}",34,324,Right,55.220431368485336,27.99686845120736,2.7610215684242667,0.43977378124916444,Right,Correct,0.0,0.0,-45,45,2004,575,-0.71
"{'cat': 'RB', 'resp': 'reach'}",34,325,Right,64.38128125113697,46.0513426173027,3.219064062556848,0.7233727982723238,Right,Correct,0.0,0.0,-45,45,2004,484,-0.76
"{'cat': 'RB', 'resp': 'reach'}",34,326,Right,59.104874458976006,84.170354461673,2.9552437229488002,1.3221448361342039,Left,Incorrect,0.0,0.0,-45,45,2013,483,-2.54
"{'cat': 'RB', 'resp': 'reach'}",34,327,Right,67.03487107009545,69.00900063455502,3.3517435535047726,1.0839908471254571,Left,Incorrect,0.0,0.0,-45,45,2012,446,-2.48
"{'cat': 'RB', 'resp': 'reach'}",34,328,Left,43.54753280376252,79.19820320616506,2.1773766401881263,1.2440424668499988,Right,Incorrect,0.0,0.0,-45,45,2009,675,-0.79
"{'cat': 'RB', 'resp': 'reach'}",34,329,Left,43.59220198100616,72.35617503266701,2.1796100990503082,1.1365681396224196,Left,Correct,0.0,0.0,-45,45,2009,483,-2.49
"{'cat': 'RB', 'resp': 'reach'}",34,330,Right,64.04312949328562,36.87168135179842,3.2021564746642808,0.5791790163015684,Left,Incorrect,0.0,0.0,-45,45,2004,625,-2.48
"{'cat': 'RB', 'resp': 'reach'}",34,331,Right,54.46257498215622,54.681999821369814,2.723128749107811,0.8589428446120689,Right,Correct,0.0,0.0,-45,45,2004,363,-0.71
"{'cat': 'RB', 'resp': 'reach'}",34,332,Left,44.493741825787964,65.31337883101493,2.224687091289398,1.0259401555832182,Right,Incorrect,0.0,0.0,-45,45,2004,454,-0.68
"{'cat': 'RB', 'resp': 'reach'}",34,333,Left,44.0342385202991,13.05070478327982,2.201711926014955,0.20499999135660524,Right,Incorrect,0.0,0.0,-45,45,2004,421,-0.88
"{'cat': 'RB', 'resp': 'reach'}",34,334,Left,31.65185735148517,40.604895858644085,1.5825928675742587,0.6378202126464744,Left,Correct,0.0,0.0,-45,45,2003,1047,-2.45
"{'cat': 'RB', 'resp': 'reach'}",34,335,Left,39.957848828022954,25.66457351717849,1.9978924414011476,0.4031381780954155,Left,Correct,0.0,0.0,-45,45,2008,500,-2.45
"{'cat': 'RB', 'resp': 'reach'}",34,336,Left,36.86827315885294,25.37999843694036,1.8434136579426472,0.39866808318806135,Left,Correct,0.0,0.0,-45,45,2004,471,-2.47
"{'cat': 'RB', 'resp': 'reach'}",34,337,Left,40.22304061176073,23.44726317098663,2.0111520305880366,0.3683087486237906,Left,Correct,0.0,0.0,-45,45,2004,484,-2.37
"{'cat': 'RB', 'resp': 'reach'}",34,338,Left,35.26333521571068,16.962433302640008,1.7631667607855344,0.2664452792529035,Left,Correct,0.0,0.0,-45,45,2013,483,-2.52
"{'cat': 'RB', 'resp': 'reach'}",34,339,Left,34.50496144743952,82.69105112868482,1.7252480723719759,1.298907993717471,Left,Correct,0.0,0.0,-45,45,2005,625,-2.47
"{'cat': 'RB', 'resp': 'reach'}",34,340,Left,41.9962889418307,87.5675266429796,2.0998144470915348,1.375507491973066,Left,Correct,0.0,0.0,-45,45,2004,542,-2.49
"{'cat': 'RB', 'resp': 'reach'}",34,341,Left,44.60766810376681,63.25926766667851,2.2303834051883404,0.9936742528655377,Left,Correct,0.0,0.0,-45,45,2004,675,-2.46
"{'cat': 'RB', 'resp': 'reach'}",34,342,Left,44.12043519168988,21.55073059810253,2.2060217595844938,0.33851808463245836,Left,Correct,0.0,0.0,-45,45,2004,384,-2.46
"{'cat': 'RB', 'resp': 'reach'}",34,343,Right,60.21803880131895,72.862947331994,3.0109019400659474,1.1445285002854617,Left,Incorrect,0.0,0.0,-45,45,2004,384,-2.47
"{'cat': 'RB', 'resp': 'reach'}",34,344,Left,34.17592222333421,31.322889675103223,1.7087961111667107,0.4920188004625394,Left,Correct,0.0,0.0,-45,45,2008,504,-2.58
"{'cat': 'RB', 'resp': 'reach'}",34,345,Left,30.98427943791426,54.65798657306253,1.5492139718957132,0.8585656453897139,Left,Correct,0.0,0.0,-45,45,2004,433,-2.42
"{'cat': 'RB', 'resp': 'reach'}",34,346,Right,60.352109604257684,40.32650685591264,3.017605480212884,0.6334472884173679,Left,Incorrect,0.0,0.0,-45,45,2008,442,-2.51
"{'cat': 'RB', 'resp': 'reach'}",34,347,Left,46.372954494480794,19.814803356227316,2.3186477247240393,0.3112502032812505,Right,Incorrect,0.0,0.0,-45,45,2004,592,-0.71
"{'cat': 'RB', 'resp': 'reach'}",34,348,Right,60.01349773273918,14.333325699127819,3.0006748866369595,0.22514735358944873,Right,Correct,0.0,0.0,-45,45,2004,446,-0.76
"{'cat': 'RB', 'resp': 'reach'}",34,349,Left,32.59553248639021,46.83385398952223,1.6297766243195104,0.7356644581639002,Right,Incorrect,0.0,0.0,-45,45,2012,467,-0.78
"{'cat': 'RB', 'resp': 'reach'}",34,350,Right,53.34508527730583,71.93417086620964,2.667254263865291,1.1299393136767857,Right,Correct,0.0,0.0,-45,45,2013,1070,-0.8
"{'cat': 'RB', 'resp': 'reach'}",34,351,Right,58.709113927977086,30.72572593567245,2.9354556963988547,0.4826385743786097,Left,Incorrect,0.0,0.0,-45,45,2004,484,-2.32
"{'cat': 'RB', 'resp': 'reach'}",34,352,Left,42.17799464590833,32.99730589336143,2.1088997322954164,0.5183204689141973,Right,Incorrect,0.0,0.0,-45,45,2004,638,-0.78
"{'cat': 'RB', 'resp': 'reach'}",34,353,Left,40.59524999137996,55.59773025719517,2.0297624995689976,0.8733271046613563,Right,Incorrect,0.0,0.0,-45,45,2008,450,-0.77
"{'cat': 'RB', 'resp': 'reach'}",34,354,Right,66.41523561438436,42.2803946117397,3.320761780719218,0.6641388855155946,Left,Incorrect,0.0,0.0,-45,45,2008,413,-2.53
"{'cat': 'RB', 'resp': 'reach'}",34,355,Left,42.17585612662612,55.21930017729666,2.108792806331306,0.8673827388668236,Right,Incorrect,0.0,0.0,-45,45,2004,534,-0.84
"{'cat': 'RB', 'resp': 'reach'}",34,356,Left,45.60702915675808,43.28730403621136,2.280351457837904,0.679955381769347,Left,Correct,0.0,0.0,-45,45,2012,446,-2.39
"{'cat': 'RB', 'resp': 'reach'}",34,357,Left,36.7669772207054,49.27478431376399,1.83834886103527,0.7740065020367126,Left,Correct,0.0,0.0,-45,45,2009,370,-2.39
"{'cat': 'RB', 'resp': 'reach'}",34,358,Right,66.74038796358687,57.733427516679804,3.337019398179343,0.9068745587648005,Left,Incorrect,0.0,0.0,-45,45,2004,484,-2.53
"{'cat': 'RB', 'resp': 'reach'}",34,359,Right,63.45729521355052,78.61166328624263,3.1728647606775264,1.2348291193326715,Right,Correct,0.0,0.0,-45,45,2017,342,-0.82
"{'cat': 'RB', 'resp': 'reach'}",34,360,Right,58.490127947078406,17.532346827625048,2.9245063973539205,0.27539745996927584,Right,Correct,0.0,0.0,-45,45,2004,363,-0.8
"{'cat': 'RB', 'resp': 'reach'}",34,361,Left,36.438544771498414,17.84877118044784,1.8219272385749208,0.28036784208050075,Right,Incorrect,0.0,0.0,-45,45,2008,434,-0.77
"{'cat': 'RB', 'resp': 'reach'}",34,362,Right,66.65740853536175,63.9114164083177,3.3328704267680878,1.003918181344445,Right,Correct,0.0,0.0,-45,45,2004,363,-0.84
"{'cat': 'RB', 'resp': 'reach'}",34,363,Right,64.79623434103029,25.02542307722756,3.2398117170515146,0.39309842646197285,Left,Incorrect,0.0,0.0,-45,45,2003,417,-2.52
"{'cat': 'RB', 'resp': 'reach'}",34,364,Left,34.383443001290345,67.35888368261786,1.7191721500645172,1.0580708706566084,Left,Correct,0.0,0.0,-45,45,2004,521,-2.39
"{'cat': 'RB', 'resp': 'reach'}",34,365,Left,39.796645714838206,68.12101761700336,1.9898322857419104,1.0700424425031931,Right,Incorrect,0.0,0.0,-45,45,2004,433,-0.76
"{'cat': 'RB', 'resp': 'reach'}",34,366,Left,34.110509462158944,50.153757455792054,1.7055254731079472,0.7878133798652033,Right,Incorrect,0.0,0.0,-45,45,2004,575,-0.76
"{'cat': 'RB', 'resp': 'reach'}",34,367,Right,61.47807109594707,66.0365871336873,3.073903554797354,1.0373002850366715,Right,Correct,0.0,0.0,-45,45,2004,554,-0.86
"{'cat': 'RB', 'resp': 'reach'}",34,368,Right,61.083095455559565,72.11317336179215,3.0541547727779785,1.1327510783022667,Left,Incorrect,0.0,0.0,-45,45,2004,467,-2.47
"{'cat': 'RB', 'resp': 'reach'}",34,369,Left,43.91769626949582,20.370660429397738,2.195884813474791,0.31998158576884117,Right,Incorrect,0.0,0.0,-45,45,2004,1834,-0.73
"{'cat': 'RB', 'resp': 'reach'}",34,370,Left,42.914394368123844,73.2186259769556,2.1457197184061925,1.1501154873757125,Right,Incorrect,0.0,0.0,-45,45,2004,467,-0.74
"{'cat': 'RB', 'resp': 'reach'}",34,371,Left,41.919095996620975,48.61793194312743,2.095954799831049,0.7636886891262885,Right,Incorrect,0.0,0.0,-45,45,2017,512,-0.8
"{'cat': 'RB', 'resp': 'reach'}",34,372,Right,65.96034673786927,75.1895110188787,3.2980173368934635,1.1810740772195907,Left,Incorrect,0.0,0.0,-45,45,2004,645,-2.47
"{'cat': 'RB', 'resp': 'reach'}",34,373,Right,67.0121141548772,64.41419516483917,3.3506057077438594,1.0118158115837896,Right,Correct,0.0,0.0,-45,45,2004,400,-0.77
"{'cat': 'RB', 'resp': 'reach'}",34,374,Right,54.72389082261148,75.70087193869534,2.736194541130574,1.189106515764735,Right,Correct,0.0,0.0,-45,45,2004,446,-0.79
"{'cat': 'RB', 'resp': 'reach'}",34,375,Right,62.562317541442006,55.14019535789547,3.1281158770721005,0.8661401632693521,Right,Correct,0.0,0.0,-45,45,2004,587,-0.8
"{'cat': 'RB', 'resp': 'reach'}",34,376,Right,55.53005704119207,63.36453354550599,2.7765028520596036,0.9953277654235281,Right,Correct,0.0,0.0,-45,45,2004,441,-0.75
"{'cat': 'RB', 'resp': 'reach'}",34,377,Left,37.022788226309366,41.77206483737204,1.8511394113154682,0.6561540600918225,Right,Incorrect,0.0,0.0,-45,45,2008,434,-0.74
"{'cat': 'RB', 'resp': 'reach'}",34,378,Left,40.70663352221349,47.83072443392984,2.0353316761106743,0.7513232624875589,Right,Incorrect,0.0,0.0,-45,45,2004,383,-0.7
"{'cat': 'RB', 'resp': 'reach'}",34,379,Left,42.82853319194875,21.40148993551857,2.141426659597437,0.3361738177865051,Left,Correct,0.0,0.0,-45,45,2004,412,-2.46
"{'cat': 'RB', 'resp': 'reach'}",34,380,Right,54.40420885012616,60.136810736242424,2.720210442506308,0.944626814096495,Left,Incorrect,0.0,0.0,-45,45,2004,450,-2.5
"{'cat': 'RB', 'resp': 'reach'}",34,381,Right,56.0192150851751,65.28267824658077,2.800960754258755,1.0254579119306217,Left,Incorrect,0.0,0.0,-45,45,2005,424,-2.4
"{'cat': 'RB', 'resp': 'reach'}",34,382,Left,32.27684038779805,58.98715981415813,1.6138420193899026,0.9265681396414313,Left,Correct,0.0,0.0,-45,45,2004,471,-2.48
"{'cat': 'RB', 'resp': 'reach'}",34,383,Left,36.07922048191494,61.931613354532594,1.8039610240957469,0.9728195076978157,Right,Incorrect,0.0,0.0,-45,45,2005,395,-0.75
"{'cat': 'RB', 'resp': 'reach'}",34,384,Right,57.0390725365415,56.21875599989955,2.8519536268270747,0.8830821542162076,Right,Correct,0.0,0.0,-45,45,2004,471,-0.82
"{'cat': 'RB', 'resp': 'reach'}",34,385,Right,52.35336665858955,55.52111409385232,2.6176683329294774,0.8721236207818358,Right,Correct,0.0,0.0,-45,45,2008,363,-0.81
"{'cat': 'RB', 'resp': 'reach'}",34,386,Right,59.63697456385644,23.153665703223233,2.981848728192822,0.36369693038460027,Left,Incorrect,0.0,0.0,-45,45,2004,1179,-2.48
"{'cat': 'RB', 'resp': 'reach'}",34,387,Left,43.83148603960674,34.38579002134107,2.191574301980337,0.5401307265946317,Left,Correct,0.0,0.0,-45,45,2004,375,-2.4
"{'cat': 'RB', 'resp': 'reach'}",34,388,Right,63.31133422515121,45.26847027452987,3.1655667112575605,0.7110754682685548,Left,Incorrect,0.0,0.0,-45,45,2005,412,-2.5
"{'cat': 'RB', 'resp': 'reach'}",34,389,Left,32.38348248729195,33.691067046464696,1.6191741243645976,0.5292180436238733,Right,Incorrect,0.0,0.0,-45,45,2004,404,-0.79
"{'cat': 'RB', 'resp': 'reach'}",34,390,Left,37.46425272501145,49.17510366902518,1.8732126362505723,0.7724407221306299,Right,Incorrect,0.0,0.0,-45,45,2012,396,-0.83
"{'cat': 'RB', 'resp': 'reach'}",34,391,Left,34.304539204685064,68.86376702767608,1.7152269602342531,1.081709522963331,Right,Incorrect,0.0,0.0,-45,45,2004,384,-0.8
"{'cat': 'RB', 'resp': 'reach'}",34,392,Left,45.09487613221428,49.49449007687089,2.2547438066107137,0.7774576320933524,Right,Incorrect,0.0,0.0,-45,45,2004,2104,-0.81
"{'cat': 'RB', 'resp': 'reach'}",34,393,Right,58.826531296506,72.11665115230439,2.9413265648252995,1.1328057073078868,Right,Correct,0.0,0.0,-45,45,2008,450,-0.79
"{'cat': 'RB', 'resp': 'reach'}",34,394,Right,67.54175871065974,41.72479273629314,3.3770879355329866,0.6554115116644764,Right,Correct,0.0,0.0,-45,45,2008,505,-0.79
"{'cat': 'RB', 'resp': 'reach'}",34,395,Right,62.641682500150566,88.53388894146158,3.1320841250075286,1.3906870754611518,Right,Correct,0.0,0.0,-45,45,2004,516,-0.71
"{'cat': 'RB', 'resp': 'reach'}",34,396,Left,35.717080579114906,14.61871557334829,1.7858540289557454,0.2296302472507484,Right,Incorrect,0.0,0.0,-45,45,2017,621,-0.82
"{'cat': 'RB', 'resp': 'reach'}",34,397,Right,67.2258345596481,40.935491186885265,3.361291727982405,0.6430131919190424,Left,Incorrect,0.0,0.0,-45,45,2004,521,-2.37
"{'cat': 'RB', 'resp': 'reach'}",34,398,Right,63.270643615925955,31.257296746101627,3.1635321807962975,0.4909884691431451,Left,Incorrect,0.0,0.0,-45,45,2004,484,-2.43
"{'cat': 'RB', 'resp': 'reach'}",34,399,Right,67.46940630796928,27.02231049134819,3.373470315398464,0.4244654606132093,Left,Incorrect,0.0,0.0,-45,45,2004,1592,-2.47
