condition,subject,trial,cat,x,y,xt,yt,resp,fb,rotation,su,target_angle_left,target_angle_right,rt,mt,ep
"{'cat': 'RB', 'resp': 'button'}",25,0,Right,65.12408263420541,26.280096748009207,3.2562041317102706,0.4128067943958737,Right,Correct,0.0,0.0,-45,45,2400,-1,-1
"{'cat': 'RB', 'resp': 'button'}",25,1,Left,32.75347173075376,44.92583530285141,1.637673586537688,0.7056933707191148,Right,Incorrect,0.0,0.0,-45,45,2862,-1,-1
"{'cat': 'RB', 'resp': 'button'}",25,2,Right,62.53784180997052,65.39880114300061,3.126892090498526,1.0272819661221524,Right,Correct,0.0,0.0,-45,45,1315,-1,-1
"{'cat': 'RB', 'resp': 'button'}",25,3,Right,51.34578480950193,44.72233415145,2.5672892404750964,0.7024967821079162,Left,Incorrect,0.0,0.0,-45,45,1013,-1,-1
"{'cat': 'RB', 'resp': 'button'}",25,4,Left,41.65364467362703,68.70135765083683,2.0826822336813513,1.0791584024375696,Right,Incorrect,0.0,0.0,-45,45,2484,-1,-1
"{'cat': 'RB', 'resp': 'button'}",25,5,Left,42.15498033752322,34.35037059688686,2.107749016876161,0.539574359576333,Right,Incorrect,0.0,0.0,-45,45,4138,-1,-1
"{'cat': 'RB', 'resp': 'button'}",25,6,Right,60.89713513999997,55.77253347779483,3.0448567569999985,0.8760729072296551,Right,Correct,0.0,0.0,-45,45,896,-1,-1
"{'cat': 'RB', 'resp': 'button'}",25,7,Right,53.49314251030557,43.70969344856165,2.674657125515278,0.686590259143316,Left,Incorrect,0.0,0.0,-45,45,2635,-1,-1
"{'cat': 'RB', 'resp': 'button'}",25,8,Right,62.20760232481267,55.686265930653185,3.1103801162406337,0.8747178197679382,Right,Correct,0.0,0.0,-45,45,1225,-1,-1
"{'cat': 'RB', 'resp': 'button'}",25,9,Left,35.864015019600615,28.263472629286845,1.793200750980031,0.44396158988551876,Right,Incorrect,0.0,0.0,-45,45,750,-1,-1
"{'cat': 'RB', 'resp': 'button'}",25,10,Right,59.49026100105292,86.47075042679072,2.974513050052646,1.358279371456011,Right,Correct,0.0,0.0,-45,45,1129,-1,-1
"{'cat': 'RB', 'resp': 'button'}",25,11,Right,56.357211575763856,42.317781412125555,2.817860578788193,0.6647261560027616,Left,Incorrect,0.0,0.0,-45,45,1685,-1,-1
"{'cat': 'RB', 'resp': 'button'}",25,12,Left,38.9551214880796,40.01362926567055,1.9477560744039801,0.6285326187224808,Right,Incorrect,0.0,0.0,-45,45,1243,-1,-1
"{'cat': 'RB', 'resp': 'button'}",25,13,Left,34.405288415426945,39.48106536285296,1.7202644207713473,0.6201671244991865,Left,Correct,0.0,0.0,-45,45,1585,-1,-1
"{'cat': 'RB', 'resp': 'button'}",25,14,Right,61.677540538798695,23.498220163655116,3.0838770269399345,0.36910917919287234,Right,Correct,0.0,0.0,-45,45,996,-1,-1
"{'cat': 'RB', 'resp': 'button'}",25,15,Left,45.99623031182504,32.870201801611636,2.299811515591252,0.5163239225097855,Right,Incorrect,0.0,0.0,-45,45,3354,-1,-1
"{'cat': 'RB', 'resp': 'button'}",25,16,Right,59.57396799822554,65.47404127038389,2.978698399911277,1.028463835279365,Right,Correct,0.0,0.0,-45,45,964,-1,-1
"{'cat': 'RB', 'resp': 'button'}",25,17,Left,44.40463247741452,43.73539994189989,2.220231623870726,0.6869940557964208,Left,Correct,0.0,0.0,-45,45,4611,-1,-1
"{'cat': 'RB', 'resp': 'button'}",25,18,Right,55.0668119856254,22.740290772812696,2.7533405992812696,0.35720365216182065,Right,Correct,0.0,0.0,-45,45,856,-1,-1
"{'cat': 'RB', 'resp': 'button'}",25,19,Right,59.936977409441766,31.851520771101555,2.996848870472088,0.5003225183007767,Right,Correct,0.0,0.0,-45,45,965,-1,-1
"{'cat': 'RB', 'resp': 'button'}",25,20,Left,43.76484254258643,45.806895330897454,2.1882421271293215,0.7195330292765202,Left,Correct,0.0,0.0,-45,45,1333,-1,-1
"{'cat': 'RB', 'resp': 'button'}",25,21,Right,58.673539870487886,51.05236402165962,2.9336769935243945,0.8019286587941885,Right,Correct,0.0,0.0,-45,45,1240,-1,-1
"{'cat': 'RB', 'resp': 'button'}",25,22,Left,45.61636509485029,37.29218754152425,2.2808182547425147,0.5857843120837269,Left,Correct,0.0,0.0,-45,45,1770,-1,-1
"{'cat': 'RB', 'resp': 'button'}",25,23,Left,37.498984191580135,49.655358333290636,1.8749492095790066,0.7799845447561728,Left,Correct,0.0,0.0,-45,45,1051,-1,-1
"{'cat': 'RB', 'resp': 'button'}",25,24,Right,60.49707738364574,19.664345526255058,3.024853869182287,0.30888681721467104,Right,Correct,0.0,0.0,-45,45,910,-1,-1
"{'cat': 'RB', 'resp': 'button'}",25,25,Left,42.16540820070649,89.77563213406266,2.1082704100353244,1.410192331918755,Left,Correct,0.0,0.0,-45,45,1320,-1,-1
"{'cat': 'RB', 'resp': 'button'}",25,26,Left,46.34817021072949,59.64239502923337,2.317408510536475,0.9368605503316996,Right,Incorrect,0.0,0.0,-45,45,1002,-1,-1
"{'cat': 'RB', 'resp': 'button'}",25,27,Left,44.12180241335756,86.154943923844,2.206090120667878,1.3533186945079447,Left,Correct,0.0,0.0,-45,45,1175,-1,-1
"{'cat': 'RB', 'resp': 'button'}",25,28,Left,31.872262536672174,66.66815721090099,1.5936131268336087,1.0472209646106796,Right,Incorrect,0.0,0.0,-45,45,1138,-1,-1
"{'cat': 'RB', 'resp': 'button'}",25,29,Left,39.4528589145889,19.66063022436868,1.972642945729445,0.3088284573891105,Left,Correct,0.0,0.0,-45,45,1651,-1,-1
"{'cat': 'RB', 'resp': 'button'}",25,30,Right,61.81679993429285,66.21617961610757,3.0908399967146427,1.0401213171537287,Right,Correct,0.0,0.0,-45,45,1078,-1,-1
"{'cat': 'RB', 'resp': 'button'}",25,31,Right,57.897604228433266,21.62255447647887,2.894880211421663,0.3396462914757556,Right,Correct,0.0,0.0,-45,45,1179,-1,-1
"{'cat': 'RB', 'resp': 'button'}",25,32,Right,62.866998656401655,76.1694138212999,3.1433499328200827,1.196466354446183,Right,Correct,0.0,0.0,-45,45,972,-1,-1
"{'cat': 'RB', 'resp': 'button'}",25,33,Right,56.52436023084633,34.53380393945311,2.8262180115423168,0.5424557237834807,Left,Incorrect,0.0,0.0,-45,45,820,-1,-1
"{'cat': 'RB', 'resp': 'button'}",25,34,Right,60.38466397445238,63.69564987727489,3.019233198722619,1.000528928600372,Right,Correct,0.0,0.0,-45,45,775,-1,-1
"{'cat': 'RB', 'resp': 'button'}",25,35,Left,32.357460939853844,40.64010098349155,1.617873046992692,0.6383732134544219,Left,Correct,0.0,0.0,-45,45,985,-1,-1
"{'cat': 'RB', 'resp': 'button'}",25,36,Right,59.947562022242884,37.17844609075675,2.997378101112144,0.5839976655530278,Right,Correct,0.0,0.0,-45,45,671,-1,-1
"{'cat': 'RB', 'resp': 'button'}",25,37,Right,56.94044145216827,29.499600147759335,2.8470220726084134,0.4633786355401855,Right,Correct,0.0,0.0,-45,45,699,-1,-1
"{'cat': 'RB', 'resp': 'button'}",25,38,Left,33.930405602502994,60.415825470974895,1.6965202801251495,0.9490095673008891,Left,Correct,0.0,0.0,-45,45,1055,-1,-1
"{'cat': 'RB', 'resp': 'button'}",25,39,Left,39.47123962637227,29.558196583567565,1.9735619813186134,0.4642990662014939,Left,Correct,0.0,0.0,-45,45,1180,-1,-1
"{'cat': 'RB', 'resp': 'button'}",25,40,Right,55.79310471926019,29.3087733388017,2.7896552359630093,0.4603811350345391,Right,Correct,0.0,0.0,-45,45,648,-1,-1
"{'cat': 'RB', 'resp': 'button'}",25,41,Left,38.7842046522741,39.58854113554535,1.9392102326137048,0.6218553499888329,100,Incorrect,0.0,0.0,-45,45,2078,-1,-1
"{'cat': 'RB', 'resp': 'button'}",25,42,Left,38.16699489072148,32.96191479146309,1.908349744536074,0.5177645467855658,Left,Correct,0.0,0.0,-45,45,2500,-1,-1
"{'cat': 'RB', 'resp': 'button'}",25,43,Left,37.43571193223971,54.00448939354384,1.8717855966119856,0.8483005356981261,Right,Incorrect,0.0,0.0,-45,45,1207,-1,-1
"{'cat': 'RB', 'resp': 'button'}",25,44,Left,38.58258559458726,50.811432480163894,1.929129279729363,0.7981441149902835,Left,Correct,0.0,0.0,-45,45,1312,-1,-1
"{'cat': 'RB', 'resp': 'button'}",25,45,Left,42.00261354328612,24.575128590082706,2.100130677164306,0.3860252171981416,Right,Incorrect,0.0,0.0,-45,45,1862,-1,-1
"{'cat': 'RB', 'resp': 'button'}",25,46,Left,32.568751254964226,61.60959516047943,1.6284375627482115,0.9677612577340173,Left,Correct,0.0,0.0,-45,45,859,-1,-1
"{'cat': 'RB', 'resp': 'button'}",25,47,Right,54.801149746356984,75.74767931589437,2.7400574873178494,1.1898417643264465,Right,Correct,0.0,0.0,-45,45,697,-1,-1
"{'cat': 'RB', 'resp': 'button'}",25,48,Right,50.60321472045162,52.077165297518576,2.5301607360225806,0.8180261995923284,Right,Correct,0.0,0.0,-45,45,827,-1,-1
"{'cat': 'RB', 'resp': 'button'}",25,49,Left,43.48424124304861,15.796687663626763,2.1742120621524306,0.24813378957551177,Right,Incorrect,0.0,0.0,-45,45,1145,-1,-1
"{'cat': 'RB', 'resp': 'button'}",25,50,Left,47.924947917564374,55.28065895705461,2.3962473958782184,0.8683465603254278,Right,Incorrect,0.0,0.0,-45,45,2117,-1,-1
"{'cat': 'RB', 'resp': 'button'}",25,51,Left,36.06037372534625,13.487666201464997,1.8030186862673128,0.21186376526296888,Left,Correct,0.0,0.0,-45,45,5538,-1,-1
"{'cat': 'RB', 'resp': 'button'}",25,52,Right,62.06469645158728,49.853193102988094,3.1032348225793642,0.7830921260517039,Right,Correct,0.0,0.0,-45,45,752,-1,-1
"{'cat': 'RB', 'resp': 'button'}",25,53,Left,39.193536479980764,44.63132511920513,1.9596768239990383,0.7010672155723622,100,Incorrect,0.0,0.0,-45,45,1528,-1,-1
"{'cat': 'RB', 'resp': 'button'}",25,54,Left,35.43593667519235,38.195176704823794,1.7717968337596175,0.5999684326921921,Left,Correct,0.0,0.0,-45,45,763,-1,-1
"{'cat': 'RB', 'resp': 'button'}",25,55,Left,44.63751701124843,18.44320031266277,2.2318758505624214,0.2897051130547317,Left,Correct,0.0,0.0,-45,45,1257,-1,-1
"{'cat': 'RB', 'resp': 'button'}",25,56,Right,61.567771959074854,51.125470290115274,3.078388597953743,0.8030770093737468,Right,Correct,0.0,0.0,-45,45,768,-1,-1
"{'cat': 'RB', 'resp': 'button'}",25,57,Left,41.59778230233909,40.69403749842182,2.0798891151169543,0.6392204462497477,Left,Correct,0.0,0.0,-45,45,2682,-1,-1
"{'cat': 'RB', 'resp': 'button'}",25,58,Left,39.791607031499254,51.6397869291532,1.9895803515749628,0.8111558762478497,Left,Correct,0.0,0.0,-45,45,1104,-1,-1
"{'cat': 'RB', 'resp': 'button'}",25,59,Left,31.022367768207957,45.8715232183318,1.551118388410398,0.720548201758424,Left,Correct,0.0,0.0,-45,45,1115,-1,-1
"{'cat': 'RB', 'resp': 'button'}",25,60,Left,46.79858417589284,74.3621139499854,2.339929208794642,1.168077354453406,Right,Incorrect,0.0,0.0,-45,45,877,-1,-1
"{'cat': 'RB', 'resp': 'button'}",25,61,Left,33.553099925290475,44.94835518159965,1.6776549962645237,0.7060471121472909,Left,Correct,0.0,0.0,-45,45,1007,-1,-1
"{'cat': 'RB', 'resp': 'button'}",25,62,Left,40.7859514272725,89.16121980933434,2.0392975713636248,1.4005411656905473,Right,Incorrect,0.0,0.0,-45,45,1303,-1,-1
"{'cat': 'RB', 'resp': 'button'}",25,63,Right,56.34285271590624,60.07952617799971,2.817142635795312,0.9437269903597978,Right,Correct,0.0,0.0,-45,45,800,-1,-1
"{'cat': 'RB', 'resp': 'button'}",25,64,Right,56.7009588540546,72.51153178109568,2.83504794270273,1.1390084777201648,Right,Correct,0.0,0.0,-45,45,638,-1,-1
"{'cat': 'RB', 'resp': 'button'}",25,65,Left,44.061315474068834,53.27561064427355,2.203065773703442,0.8368513350777997,Left,Correct,0.0,0.0,-45,45,989,-1,-1
"{'cat': 'RB', 'resp': 'button'}",25,66,Right,58.35176209741784,85.14778024968602,2.917588104870892,1.3374982045094583,Right,Correct,0.0,0.0,-45,45,727,-1,-1
"{'cat': 'RB', 'resp': 'button'}",25,67,Left,41.83512887116775,65.40155365340294,2.091756443558387,1.0273252024544468,Left,Correct,0.0,0.0,-45,45,1048,-1,-1
"{'cat': 'RB', 'resp': 'button'}",25,68,Right,58.248004299555554,87.2402039837088,2.9124002149777777,1.3703659196644726,Right,Correct,0.0,0.0,-45,45,804,-1,-1
"{'cat': 'RB', 'resp': 'button'}",25,69,Right,51.80005794139165,52.32306174822169,2.5900028970695828,0.8218887320076919,107,Incorrect,0.0,0.0,-45,45,2876,-1,-1
"{'cat': 'RB', 'resp': 'button'}",25,70,Left,32.45171402201318,31.395390155479053,1.6225857011006588,0.49315763534519147,Left,Correct,0.0,0.0,-45,45,927,-1,-1
"{'cat': 'RB', 'resp': 'button'}",25,71,Left,42.72038062866541,22.6649830277144,2.1360190314332703,0.35602072086802455,Left,Correct,0.0,0.0,-45,45,1718,-1,-1
"{'cat': 'RB', 'resp': 'button'}",25,72,Left,45.75232386779372,80.81510614872421,2.2876161933896864,1.2694407188795567,Left,Correct,0.0,0.0,-45,45,1348,-1,-1
"{'cat': 'RB', 'resp': 'button'}",25,73,Left,42.79576271308837,78.1249930315274,2.1397881356544186,1.2271845208480012,Left,Correct,0.0,0.0,-45,45,2350,-1,-1
"{'cat': 'RB', 'resp': 'button'}",25,74,Left,43.67548505689126,32.26506777230661,2.183774252844563,0.5068184994052761,Left,Correct,0.0,0.0,-45,45,2140,-1,-1
"{'cat': 'RB', 'resp': 'button'}",25,75,Left,40.62050989946347,8.817281521893861,2.031025494973173,0.1385015342690739,Left,Correct,0.0,0.0,-45,45,836,-1,-1
"{'cat': 'RB', 'resp': 'button'}",25,76,Right,52.43113992625529,48.92658131549982,2.6215569963127643,0.7685369421301893,Right,Correct,0.0,0.0,-45,45,874,-1,-1
"{'cat': 'RB', 'resp': 'button'}",25,77,Left,39.168435020022756,77.63432908583118,1.9584217510011377,1.2194771896120984,Left,Correct,0.0,0.0,-45,45,922,-1,-1
"{'cat': 'RB', 'resp': 'button'}",25,78,Left,43.898751429067275,25.4465213105579,2.1949375714533637,0.3997130220433241,Left,Correct,0.0,0.0,-45,45,1192,-1,-1
"{'cat': 'RB', 'resp': 'button'}",25,79,Left,44.613758174803735,36.289201709339906,2.2306879087401867,0.5700294474735021,Left,Correct,0.0,0.0,-45,45,1004,-1,-1
"{'cat': 'RB', 'resp': 'button'}",25,80,Right,53.09126264538744,30.611815503552616,2.654563132269372,0.4808492734950351,Right,Correct,0.0,0.0,-45,45,822,-1,-1
"{'cat': 'RB', 'resp': 'button'}",25,81,Left,39.827350981004436,10.284468846899031,1.9913675490502216,0.16154805887745544,Left,Correct,0.0,0.0,-45,45,1050,-1,-1
"{'cat': 'RB', 'resp': 'button'}",25,82,Right,67.06164782208262,66.30189223547434,3.3530823911041305,1.0414676878303417,Right,Correct,0.0,0.0,-45,45,801,-1,-1
"{'cat': 'RB', 'resp': 'button'}",25,83,Right,51.999113045172024,58.500595461404394,2.599955652258601,0.918925204660882,Right,Correct,0.0,0.0,-45,45,1377,-1,-1
"{'cat': 'RB', 'resp': 'button'}",25,84,Right,56.590194786239806,33.839143140839006,2.82950973931199,0.5315440174751663,Right,Correct,0.0,0.0,-45,45,1576,-1,-1
"{'cat': 'RB', 'resp': 'button'}",25,85,Right,68.27754684412639,37.747719381714646,3.4138773422063196,0.5929397894968188,Right,Correct,0.0,0.0,-45,45,675,-1,-1
"{'cat': 'RB', 'resp': 'button'}",25,86,Right,59.72453600662003,74.1424670557347,2.9862268003310017,1.1646271491065967,Right,Correct,0.0,0.0,-45,45,709,-1,-1
"{'cat': 'RB', 'resp': 'button'}",25,87,Left,44.97458553490095,27.026036136222373,2.2487292767450473,0.42452398290604243,Left,Correct,0.0,0.0,-45,45,943,-1,-1
"{'cat': 'RB', 'resp': 'button'}",25,88,Left,44.880571944423465,66.33975943062215,2.2440285972211735,1.0420625043407838,Left,Correct,0.0,0.0,-45,45,741,-1,-1
"{'cat': 'RB', 'resp': 'button'}",25,89,Left,39.037817130524076,30.816101392915783,1.9518908565262039,0.4840581887413121,Left,Correct,0.0,0.0,-45,45,564,-1,-1
"{'cat': 'RB', 'resp': 'button'}",25,90,Right,61.29604206373112,16.52668518489316,3.0648021031865564,0.25960056382525815,Right,Correct,0.0,0.0,-45,45,510,-1,-1
"{'cat': 'RB', 'resp': 'button'}",25,91,Right,51.52787550879354,44.47516032058811,2.5763937754396773,0.6986141846519394,Right,Correct,0.0,0.0,-45,45,711,-1,-1
"{'cat': 'RB', 'resp': 'button'}",25,92,Right,59.89494796681864,9.874220047676985,2.994747398340932,0.1551038858085554,Right,Correct,0.0,0.0,-45,45,719,-1,-1
"{'cat': 'RB', 'resp': 'button'}",25,93,Right,62.74652213818201,23.375374869448734,3.1373261069091005,0.36717952982383806,Right,Correct,0.0,0.0,-45,45,867,-1,-1
"{'cat': 'RB', 'resp': 'button'}",25,94,Left,37.55616225576784,48.849641940620245,1.8778081127883919,0.7673283812557219,Left,Correct,0.0,0.0,-45,45,697,-1,-1
"{'cat': 'RB', 'resp': 'button'}",25,95,Left,33.44798951782472,58.2656396516935,1.6723994758912364,0.9152345274323522,Left,Correct,0.0,0.0,-45,45,1883,-1,-1
"{'cat': 'RB', 'resp': 'button'}",25,96,Right,51.17060380329165,57.74479071017447,2.5585301901645825,0.9070530513908213,Right,Correct,0.0,0.0,-45,45,667,-1,-1
"{'cat': 'RB', 'resp': 'button'}",25,97,Left,37.77265258609658,15.353834225753182,1.8886326293048288,0.24117746404030863,Left,Correct,0.0,0.0,-45,45,426,-1,-1
"{'cat': 'RB', 'resp': 'button'}",25,98,Left,44.47320385791521,76.17314625072859,2.2236601928957604,1.1965249833105494,Left,Correct,0.0,0.0,-45,45,536,-1,-1
"{'cat': 'RB', 'resp': 'button'}",25,99,Right,60.59770034491698,63.23812398826946,3.0298850172458494,0.993342128741739,Right,Correct,0.0,0.0,-45,45,464,-1,-1
"{'cat': 'RB', 'resp': 'button'}",25,100,Right,59.937853427194874,76.08326469959607,2.9968926713597437,1.1951131272068933,Right,Correct,0.0,0.0,-45,45,590,-1,-1
"{'cat': 'RB', 'resp': 'button'}",25,101,Right,62.99395061251284,48.19642781634057,3.1496975306256423,0.7570677177854314,Right,Correct,0.0,0.0,-45,45,697,-1,-1
"{'cat': 'RB', 'resp': 'button'}",25,102,Left,43.549395084460436,31.052939402016708,2.1774697542230217,0.4877784314887236,Left,Correct,0.0,0.0,-45,45,631,-1,-1
"{'cat': 'RB', 'resp': 'button'}",25,103,Left,38.126128669196206,75.04973767621581,1.90630643345981,1.1788785226872036,Left,Correct,0.0,0.0,-45,45,380,-1,-1
"{'cat': 'RB', 'resp': 'button'}",25,104,Left,38.81887869487708,39.91562781770836,1.9409439347438537,0.6269932155776848,Left,Correct,0.0,0.0,-45,45,600,-1,-1
"{'cat': 'RB', 'resp': 'button'}",25,105,Right,56.29593819285607,82.31902751743027,2.814796909642803,1.2930642604970748,Right,Correct,0.0,0.0,-45,45,664,-1,-1
"{'cat': 'RB', 'resp': 'button'}",25,106,Right,62.91704646166227,15.418264193470037,3.1458523230831132,0.24218952760656012,Right,Correct,0.0,0.0,-45,45,1206,-1,-1
"{'cat': 'RB', 'resp': 'button'}",25,107,Right,65.77388925363874,19.108854318189003,3.288694462681937,0.3001611817227009,Right,Correct,0.0,0.0,-45,45,526,-1,-1
"{'cat': 'RB', 'resp': 'button'}",25,108,Left,46.4542663791148,78.19846481584176,2.3227133189557403,1.2283386129372418,Left,Correct,0.0,0.0,-45,45,634,-1,-1
"{'cat': 'RB', 'resp': 'button'}",25,109,Right,59.38715850054752,56.97334740822169,2.969357925027376,0.8949352483404417,Right,Correct,0.0,0.0,-45,45,682,-1,-1
"{'cat': 'RB', 'resp': 'button'}",25,110,Right,54.320068151681646,27.895140267342413,2.716003407584082,0.43817583867369875,Right,Correct,0.0,0.0,-45,45,384,-1,-1
"{'cat': 'RB', 'resp': 'button'}",25,111,Right,58.1269591905318,44.78429571826754,2.90634795952659,0.7034700721235108,Right,Correct,0.0,0.0,-45,45,783,-1,-1
"{'cat': 'RB', 'resp': 'button'}",25,112,Right,65.89682433440352,44.943800339521246,3.294841216720176,0.7059755648552319,Right,Correct,0.0,0.0,-45,45,705,-1,-1
"{'cat': 'RB', 'resp': 'button'}",25,113,Right,56.97258991349572,38.606080156902436,2.848629495674786,0.6064228890241169,Right,Correct,0.0,0.0,-45,45,746,-1,-1
"{'cat': 'RB', 'resp': 'button'}",25,114,Left,40.86883696478297,65.48083628176573,2.0434418482391488,1.028570571068556,Left,Correct,0.0,0.0,-45,45,450,-1,-1
"{'cat': 'RB', 'resp': 'button'}",25,115,Right,58.19397125243938,32.78229816992073,2.909698562621969,0.5149431354920654,107,Incorrect,0.0,0.0,-45,45,1134,-1,-1
"{'cat': 'RB', 'resp': 'button'}",25,116,Right,62.8545998929204,63.229926458184096,3.14272999464602,0.9932133622402702,Right,Correct,0.0,0.0,-45,45,648,-1,-1
"{'cat': 'RB', 'resp': 'button'}",25,117,Right,59.068725504719744,60.18645036028736,2.9534362752359873,0.9454065514876276,Right,Correct,0.0,0.0,-45,45,1048,-1,-1
"{'cat': 'RB', 'resp': 'button'}",25,118,Right,54.4952491786439,71.63511379203356,2.7247624589321955,1.1252417361406075,Right,Correct,0.0,0.0,-45,45,1231,-1,-1
"{'cat': 'RB', 'resp': 'button'}",25,119,Left,43.44407617209629,78.94317458694258,2.1722038086048143,1.2400364866669762,Left,Correct,0.0,0.0,-45,45,681,-1,-1
"{'cat': 'RB', 'resp': 'button'}",25,120,Right,67.28695534305942,76.23917946864839,3.3643477671529705,1.1975622306720979,Right,Correct,0.0,0.0,-45,45,650,-1,-1
"{'cat': 'RB', 'resp': 'button'}",25,121,Right,61.18738646542213,49.96986803476555,3.0593693232711066,0.7849248515943544,Right,Correct,0.0,0.0,-45,45,947,-1,-1
"{'cat': 'RB', 'resp': 'button'}",25,122,Left,41.28646331064776,81.2603926512011,2.064323165532388,1.2764352629041769,Left,Correct,0.0,0.0,-45,45,599,-1,-1
"{'cat': 'RB', 'resp': 'button'}",25,123,Right,55.45643909619976,61.51518640935315,2.772821954809988,0.9662782885391527,Right,Correct,0.0,0.0,-45,45,614,-1,-1
"{'cat': 'RB', 'resp': 'button'}",25,124,Right,62.11954840670971,16.37030954771025,3.1059774203354857,0.25714422106038687,Right,Correct,0.0,0.0,-45,45,1459,-1,-1
"{'cat': 'RB', 'resp': 'button'}",25,125,Right,56.86338404288109,72.77158550152322,2.8431692021440544,1.1430933920083344,Right,Correct,0.0,0.0,-45,45,726,-1,-1
"{'cat': 'RB', 'resp': 'button'}",25,126,Right,60.87834474610423,18.62628162778561,3.0439172373052115,0.292580947627729,Right,Correct,0.0,0.0,-45,45,1221,-1,-1
"{'cat': 'RB', 'resp': 'button'}",25,127,Right,61.59047220491709,80.73190729659089,3.0795236102458547,1.2681338343663109,Right,Correct,0.0,0.0,-45,45,641,-1,-1
"{'cat': 'RB', 'resp': 'button'}",25,128,Left,44.161643550481884,56.08150167684517,2.208082177524094,0.8809261683513024,Left,Correct,0.0,0.0,-45,45,751,-1,-1
"{'cat': 'RB', 'resp': 'button'}",25,129,Left,42.87549675276594,25.79438947292256,2.143774837638297,0.4051773223598371,Left,Correct,0.0,0.0,-45,45,537,-1,-1
"{'cat': 'RB', 'resp': 'button'}",25,130,Left,35.277321084920274,56.2018067630649,1.7638660542460138,0.8828159162265893,Left,Correct,0.0,0.0,-45,45,585,-1,-1
"{'cat': 'RB', 'resp': 'button'}",25,131,Right,66.71945674052529,32.94677859747207,3.3359728370262642,0.5175267880063384,Right,Correct,0.0,0.0,-45,45,788,-1,-1
"{'cat': 'RB', 'resp': 'button'}",25,132,Right,52.79404207088631,48.52205136736536,2.6397021035443156,0.7621826005641079,Right,Correct,0.0,0.0,-45,45,678,-1,-1
"{'cat': 'RB', 'resp': 'button'}",25,133,Right,51.487770759569976,33.71726840327416,2.574388537978499,0.5296296135742068,Right,Correct,0.0,0.0,-45,45,2234,-1,-1
"{'cat': 'RB', 'resp': 'button'}",25,134,Right,57.06363949267694,47.64412122868728,2.853181974633847,0.7483921061939274,Right,Correct,0.0,0.0,-45,45,797,-1,-1
"{'cat': 'RB', 'resp': 'button'}",25,135,Right,53.70232931122466,27.35253329630678,2.685116465561233,0.429652588303738,Right,Correct,0.0,0.0,-45,45,764,-1,-1
"{'cat': 'RB', 'resp': 'button'}",25,136,Right,55.296934797871145,39.9989799024271,2.764846739893557,0.6283025070627539,Right,Correct,0.0,0.0,-45,45,583,-1,-1
"{'cat': 'RB', 'resp': 'button'}",25,137,Right,60.18139875186182,58.458634862275304,3.009069937593091,0.9182660891110613,Right,Correct,0.0,0.0,-45,45,552,-1,-1
"{'cat': 'RB', 'resp': 'button'}",25,138,Left,36.33264518473118,61.43840879328569,1.816632259236559,0.9650722685661642,Left,Correct,0.0,0.0,-45,45,634,-1,-1
"{'cat': 'RB', 'resp': 'button'}",25,139,Left,35.95580233440937,76.70622186527524,1.7977901167204686,1.2048985154828873,Left,Correct,0.0,0.0,-45,45,470,-1,-1
"{'cat': 'RB', 'resp': 'button'}",25,140,Left,38.51000829897313,10.469934098910514,1.9255004149486568,0.1644613402435327,Left,Correct,0.0,0.0,-45,45,405,-1,-1
"{'cat': 'RB', 'resp': 'button'}",25,141,Right,58.63036870443294,28.173411161104298,2.9315184352216472,0.4425469076514497,Right,Correct,0.0,0.0,-45,45,1283,-1,-1
"{'cat': 'RB', 'resp': 'button'}",25,142,Left,43.4833789412607,13.08169971554203,2.174168947063035,0.20548685861407262,Left,Correct,0.0,0.0,-45,45,580,-1,-1
"{'cat': 'RB', 'resp': 'button'}",25,143,Left,31.73757636889499,38.928723949537286,1.5868788184447495,0.6114909658674569,Left,Correct,0.0,0.0,-45,45,465,-1,-1
"{'cat': 'RB', 'resp': 'button'}",25,144,Left,38.289853919102285,33.552793302415054,1.9144926959551143,0.5270460447314197,Left,Correct,0.0,0.0,-45,45,606,-1,-1
"{'cat': 'RB', 'resp': 'button'}",25,145,Left,34.27145333773679,39.02185336342474,1.7135726668868392,0.6129538392799667,Left,Correct,0.0,0.0,-45,45,385,-1,-1
"{'cat': 'RB', 'resp': 'button'}",25,146,Left,39.50524302052668,88.97976975244094,1.975262151026334,1.3976909548618988,Left,Correct,0.0,0.0,-45,45,438,-1,-1
"{'cat': 'RB', 'resp': 'button'}",25,147,Right,62.769929402846344,87.04189934994554,3.138496470142317,1.3672509577614556,Right,Correct,0.0,0.0,-45,45,592,-1,-1
"{'cat': 'RB', 'resp': 'button'}",25,148,Right,64.7634667681725,44.91869474015165,3.2381733384086253,0.7055812070225145,Right,Correct,0.0,0.0,-45,45,655,-1,-1
"{'cat': 'RB', 'resp': 'button'}",25,149,Right,59.335463121614595,51.761046303373206,2.9667731560807296,0.813060614043992,Right,Correct,0.0,0.0,-45,45,479,-1,-1
"{'cat': 'RB', 'resp': 'button'}",25,150,Left,40.938294865804004,91.02044714248845,2.0469147432902,1.4297458403464989,Left,Correct,0.0,0.0,-45,45,609,-1,-1
"{'cat': 'RB', 'resp': 'button'}",25,151,Right,59.591000337911744,31.607759705049727,2.9795500168955873,0.49649352842907857,Right,Correct,0.0,0.0,-45,45,615,-1,-1
"{'cat': 'RB', 'resp': 'button'}",25,152,Right,59.09761863735392,54.234940617450846,2.9548809318676956,0.8519204550583114,Right,Correct,0.0,0.0,-45,45,628,-1,-1
"{'cat': 'RB', 'resp': 'button'}",25,153,Left,45.34779438840943,38.03580611033156,2.2673897194204717,0.5974650452479171,Left,Correct,0.0,0.0,-45,45,834,-1,-1
"{'cat': 'RB', 'resp': 'button'}",25,154,Right,57.5338448084481,38.79518736552392,2.876692240422405,0.6093933781108476,Right,Correct,0.0,0.0,-45,45,1391,-1,-1
"{'cat': 'RB', 'resp': 'button'}",25,155,Right,60.495322990280116,51.82982466185384,3.0247661495140057,0.8141409819726356,Right,Correct,0.0,0.0,-45,45,714,-1,-1
"{'cat': 'RB', 'resp': 'button'}",25,156,Left,43.879821217260925,62.78317546826279,2.1939910608630466,0.9861958141006666,Left,Correct,0.0,0.0,-45,45,780,-1,-1
"{'cat': 'RB', 'resp': 'button'}",25,157,Left,42.20000975766337,55.58334701769883,2.1100004878831684,0.8731011732636739,Left,Correct,0.0,0.0,-45,45,731,-1,-1
"{'cat': 'RB', 'resp': 'button'}",25,158,Left,46.401572226240404,49.9082804783566,2.32007861131202,0.78395743652052,Right,Incorrect,0.0,0.0,-45,45,1800,-1,-1
"{'cat': 'RB', 'resp': 'button'}",25,159,Left,48.551383716353484,34.89230008876486,2.4275691858176742,0.5480869681285709,Left,Correct,0.0,0.0,-45,45,856,-1,-1
"{'cat': 'RB', 'resp': 'button'}",25,160,Right,53.207650834968305,32.73896467979763,2.6603825417484153,0.5142624546209398,Right,Correct,0.0,0.0,-45,45,1086,-1,-1
"{'cat': 'RB', 'resp': 'button'}",25,161,Left,42.726434676133195,31.781728137226306,2.1363217338066596,0.4992262181714909,Left,Correct,0.0,0.0,-45,45,796,-1,-1
"{'cat': 'RB', 'resp': 'button'}",25,162,Left,37.754799385122475,42.057304101668635,1.8877399692561239,0.6606345879779703,Left,Correct,0.0,0.0,-45,45,705,-1,-1
"{'cat': 'RB', 'resp': 'button'}",25,163,Right,61.16410647555003,54.913423663939,3.0582053237775018,0.8625780418304733,Right,Correct,0.0,0.0,-45,45,835,-1,-1
"{'cat': 'RB', 'resp': 'button'}",25,164,Left,37.42996895968756,73.26820293385612,1.871498447984378,1.1508942403936426,Left,Correct,0.0,0.0,-45,45,607,-1,-1
"{'cat': 'RB', 'resp': 'button'}",25,165,Left,38.66920634567876,34.470023649509955,1.933460317283938,0.5414538653318345,Left,Correct,0.0,0.0,-45,45,967,-1,-1
"{'cat': 'RB', 'resp': 'button'}",25,166,Right,59.068155703892835,28.67571359251537,2.9534077851946416,0.4504370557934563,Right,Correct,0.0,0.0,-45,45,720,-1,-1
"{'cat': 'RB', 'resp': 'button'}",25,167,Left,42.98914056401783,58.403931105254784,2.1494570282008914,0.9174068045051641,Left,Correct,0.0,0.0,-45,45,801,-1,-1
"{'cat': 'RB', 'resp': 'button'}",25,168,Left,47.012922027799476,67.2575735351748,2.350646101389974,1.0564794945819023,Right,Incorrect,0.0,0.0,-45,45,1590,-1,-1
"{'cat': 'RB', 'resp': 'button'}",25,169,Right,62.39202158442206,71.74188297234872,3.119601079221103,1.126918862503147,Right,Correct,0.0,0.0,-45,45,545,-1,-1
"{'cat': 'RB', 'resp': 'button'}",25,170,Right,65.79730805710672,65.30123833824197,3.2898654028553356,1.0257494531686857,Right,Correct,0.0,0.0,-45,45,481,-1,-1
"{'cat': 'RB', 'resp': 'button'}",25,171,Left,40.51705640135734,30.499531320204117,2.025852820067867,0.4790855176674253,Left,Correct,0.0,0.0,-45,45,573,-1,-1
"{'cat': 'RB', 'resp': 'button'}",25,172,Right,67.5482990968095,32.782961525696464,3.377414954840475,0.5149535554602243,Right,Correct,0.0,0.0,-45,45,718,-1,-1
"{'cat': 'RB', 'resp': 'button'}",25,173,Left,37.32366646716929,66.74995741240204,1.8661833233584644,1.048505879171169,Left,Correct,0.0,0.0,-45,45,657,-1,-1
"{'cat': 'RB', 'resp': 'button'}",25,174,Right,69.46155226953685,52.327110938753385,3.4730776134768426,0.8219523365438286,Right,Correct,0.0,0.0,-45,45,487,-1,-1
"{'cat': 'RB', 'resp': 'button'}",25,175,Left,40.79249438650469,70.53942297436394,2.039624719325235,1.1080306650236242,Left,Correct,0.0,0.0,-45,45,537,-1,-1
"{'cat': 'RB', 'resp': 'button'}",25,176,Left,36.579566953185505,26.687567849722527,1.8289783476592754,0.4192073354943372,Left,Correct,0.0,0.0,-45,45,576,-1,-1
"{'cat': 'RB', 'resp': 'button'}",25,177,Right,62.57434521179893,26.792126868811607,3.128717260589946,0.4208497447255213,Right,Correct,0.0,0.0,-45,45,683,-1,-1
"{'cat': 'RB', 'resp': 'button'}",25,178,Left,41.04076361343839,28.289473712578328,2.0520381806719197,0.4443700139467882,Left,Correct,0.0,0.0,-45,45,549,-1,-1
"{'cat': 'RB', 'resp': 'button'}",25,179,Left,48.28686857683508,65.89800345256319,2.4143434288417542,1.0351234176640367,Right,Incorrect,0.0,0.0,-45,45,496,-1,-1
"{'cat': 'RB', 'resp': 'button'}",25,180,Left,42.00980495631397,69.98807568398645,2.100490247815699,1.0993701220384915,Right,Incorrect,0.0,0.0,-45,45,555,-1,-1
"{'cat': 'RB', 'resp': 'button'}",25,181,Left,45.39242500457186,62.18612563392765,2.2696212502285933,0.976817377233795,Left,Correct,0.0,0.0,-45,45,564,-1,-1
"{'cat': 'RB', 'resp': 'button'}",25,182,Right,65.39578401473986,44.71391496770962,3.269789200736993,0.7023645338789761,Right,Correct,0.0,0.0,-45,45,826,-1,-1
"{'cat': 'RB', 'resp': 'button'}",25,183,Right,62.48492075261227,24.02125370234878,3.124246037630613,0.37732497080657773,Right,Correct,0.0,0.0,-45,45,685,-1,-1
"{'cat': 'RB', 'resp': 'button'}",25,184,Right,61.53357345691403,48.6528849071491,3.0766786728457016,0.7642377290012466,Right,Correct,0.0,0.0,-45,45,549,-1,-1
"{'cat': 'RB', 'resp': 'button'}",25,185,Left,45.222107403327016,67.48608980478471,2.2611053701663506,1.0600690197510634,Right,Incorrect,0.0,0.0,-45,45,610,-1,-1
"{'cat': 'RB', 'resp': 'button'}",25,186,Right,54.09902793266898,35.54031627173663,2.704951396633449,0.5582659825277279,Left,Incorrect,0.0,0.0,-45,45,279,-1,-1
"{'cat': 'RB', 'resp': 'button'}",25,187,Left,35.600691403292345,70.7513895906375,1.7800345701646172,1.1113602288460807,Left,Correct,0.0,0.0,-45,45,585,-1,-1
"{'cat': 'RB', 'resp': 'button'}",25,188,Right,60.25935106214734,68.75339826117727,3.0129675531073667,1.0799758544332387,Right,Correct,0.0,0.0,-45,45,725,-1,-1
"{'cat': 'RB', 'resp': 'button'}",25,189,Left,48.63032075927926,64.94958941301094,2.431516037963963,1.020225764767943,Left,Correct,0.0,0.0,-45,45,3280,-1,-1
"{'cat': 'RB', 'resp': 'button'}",25,190,Left,45.25987514625586,65.71690497872204,2.262993757312793,1.0322787294890583,Left,Correct,0.0,0.0,-45,45,565,-1,-1
"{'cat': 'RB', 'resp': 'button'}",25,191,Right,67.23344701584664,68.13212779988457,3.361672350792332,1.0702169608477914,Right,Correct,0.0,0.0,-45,45,493,-1,-1
"{'cat': 'RB', 'resp': 'button'}",25,192,Right,66.68917074116322,39.73534424701084,3.3344585370581616,0.6241613278713535,Right,Correct,0.0,0.0,-45,45,392,-1,-1
"{'cat': 'RB', 'resp': 'button'}",25,193,Right,64.11625730614375,61.20139862424089,3.205812865307188,0.9613493215366783,Right,Correct,0.0,0.0,-45,45,351,-1,-1
"{'cat': 'RB', 'resp': 'button'}",25,194,Right,62.26309888006102,21.586264517990834,3.113154944003051,0.3390762501408301,Right,Correct,0.0,0.0,-45,45,448,-1,-1
"{'cat': 'RB', 'resp': 'button'}",25,195,Left,34.22566392913517,19.291367611117273,1.7112831964567587,0.30302809382393053,Left,Correct,0.0,0.0,-45,45,510,-1,-1
"{'cat': 'RB', 'resp': 'button'}",25,196,Left,39.095959132999056,61.52809323701846,1.9547979566499527,0.9664810285140252,Left,Correct,0.0,0.0,-45,45,598,-1,-1
"{'cat': 'RB', 'resp': 'button'}",25,197,Right,60.727209129802425,50.66165262482484,3.0363604564901214,0.7957913785243389,Right,Correct,0.0,0.0,-45,45,667,-1,-1
"{'cat': 'RB', 'resp': 'button'}",25,198,Right,53.68332387213523,26.831242468537184,2.684166193606762,0.42146417112921447,107,Incorrect,0.0,0.0,-45,45,374,-1,-1
"{'cat': 'RB', 'resp': 'button'}",25,199,Left,35.53232828555588,71.66546528421787,1.7766164142777938,1.125718496264966,Left,Correct,0.0,0.0,-45,45,607,-1,-1
"{'cat': 'RB', 'resp': 'button'}",25,200,Right,60.574059851692326,86.40130378835408,3.0287029925846163,1.3571885062103657,Right,Correct,0.0,0.0,-45,45,1084,-1,-1
"{'cat': 'RB', 'resp': 'button'}",25,201,Right,65.54155125871314,82.18547955246902,3.277077562935657,1.290966493968954,Right,Correct,0.0,0.0,-45,45,696,-1,-1
"{'cat': 'RB', 'resp': 'button'}",25,202,Left,33.01413931919924,76.51529178835975,1.650706965959962,1.201899392847952,Left,Correct,0.0,0.0,-45,45,649,-1,-1
"{'cat': 'RB', 'resp': 'button'}",25,203,Left,41.093084894736975,43.81128240377078,2.0546542447368488,0.6881860147201703,Left,Correct,0.0,0.0,-45,45,1707,-1,-1
"{'cat': 'RB', 'resp': 'button'}",25,204,Left,33.52879732914467,60.70758166738535,1.6764398664572338,0.953592462917301,Left,Correct,0.0,0.0,-45,45,536,-1,-1
"{'cat': 'RB', 'resp': 'button'}",25,205,Left,33.97244683158886,21.448358353100787,1.698622341579443,0.33691002516831353,Left,Correct,0.0,0.0,-45,45,458,-1,-1
"{'cat': 'RB', 'resp': 'button'}",25,206,Left,33.301393634958565,37.992877133848445,1.6650696817479282,0.5967907184621896,Left,Correct,0.0,0.0,-45,45,577,-1,-1
"{'cat': 'RB', 'resp': 'button'}",25,207,Right,61.38228177684637,68.9211230277369,3.0691140888423183,1.0826104689054827,Right,Correct,0.0,0.0,-45,45,648,-1,-1
"{'cat': 'RB', 'resp': 'button'}",25,208,Right,63.61126704213529,27.321531253274863,3.1805633521067644,0.42916560935056114,Right,Correct,0.0,0.0,-45,45,618,-1,-1
"{'cat': 'RB', 'resp': 'button'}",25,209,Left,43.597330111375925,46.89088727088116,2.1798665055687962,0.7365603348525369,Left,Correct,0.0,0.0,-45,45,735,-1,-1
"{'cat': 'RB', 'resp': 'button'}",25,210,Left,31.7363107510653,33.24362718661498,1.5868155375532649,0.5221896747407377,Left,Correct,0.0,0.0,-45,45,621,-1,-1
"{'cat': 'RB', 'resp': 'button'}",25,211,Right,58.5353395475174,14.180435017951574,2.92676697737587,0.22274575238552058,Right,Correct,0.0,0.0,-45,45,674,-1,-1
"{'cat': 'RB', 'resp': 'button'}",25,212,Right,60.98284872649322,27.50110677663094,3.0491424363246615,0.4319863750752612,Right,Correct,0.0,0.0,-45,45,700,-1,-1
"{'cat': 'RB', 'resp': 'button'}",25,213,Left,36.46033820918584,29.434031072884675,1.823016910459292,0.462348678920541,Left,Correct,0.0,0.0,-45,45,585,-1,-1
"{'cat': 'RB', 'resp': 'button'}",25,214,Right,61.30742797408336,77.78894591081257,3.065371398704168,1.2219059050195127,Right,Correct,0.0,0.0,-45,45,564,-1,-1
"{'cat': 'RB', 'resp': 'button'}",25,215,Left,43.5031301493956,69.97595994553322,2.17515650746978,1.099179808463904,Left,Correct,0.0,0.0,-45,45,710,-1,-1
"{'cat': 'RB', 'resp': 'button'}",25,216,Right,53.637720445290995,22.265153685094713,2.6818860222645498,0.3497402162407063,Right,Correct,0.0,0.0,-45,45,690,-1,-1
"{'cat': 'RB', 'resp': 'button'}",25,217,Right,63.396657834963506,32.97641833484924,3.1698328917481753,0.5179923679123307,Right,Correct,0.0,0.0,-45,45,422,-1,-1
"{'cat': 'RB', 'resp': 'button'}",25,218,Right,55.02208401596702,69.64202855404038,2.7511042007983506,1.0939344264323194,Right,Correct,0.0,0.0,-45,45,443,-1,-1
"{'cat': 'RB', 'resp': 'button'}",25,219,Left,43.819774892190964,48.575455919919975,2.190988744609548,0.7630214773139771,Left,Correct,0.0,0.0,-45,45,549,-1,-1
"{'cat': 'RB', 'resp': 'button'}",25,220,Left,42.337559800251114,27.488021747921252,2.1168779900125556,0.43178083592492933,Left,Correct,0.0,0.0,-45,45,459,-1,-1
"{'cat': 'RB', 'resp': 'button'}",25,221,Left,36.77349263928902,56.721831742321605,1.838674631964451,0.8909844494991694,Left,Correct,0.0,0.0,-45,45,367,-1,-1
"{'cat': 'RB', 'resp': 'button'}",25,222,Right,56.980909699113155,73.37468557246575,2.849045484955658,1.1525668657695969,Right,Correct,0.0,0.0,-45,45,582,-1,-1
"{'cat': 'RB', 'resp': 'button'}",25,223,Right,51.208505904332114,45.407391224307474,2.560425295216606,0.71325763344481,Right,Correct,0.0,0.0,-45,45,448,-1,-1
"{'cat': 'RB', 'resp': 'button'}",25,224,Right,62.56628271615317,63.47440832198397,3.1283141358076585,0.9970536743765185,Right,Correct,0.0,0.0,-45,45,1012,-1,-1
"{'cat': 'RB', 'resp': 'button'}",25,225,Right,63.767795319193645,81.10683226770122,3.1883897659596823,1.2740231420407488,Right,Correct,0.0,0.0,-45,45,647,-1,-1
"{'cat': 'RB', 'resp': 'button'}",25,226,Right,54.6124368129263,61.50398998692786,2.730621840646315,0.9661024155469637,Right,Correct,0.0,0.0,-45,45,546,-1,-1
"{'cat': 'RB', 'resp': 'button'}",25,227,Left,33.63321942454708,31.047765967969447,1.6816609712273538,0.48769716737674,Left,Correct,0.0,0.0,-45,45,428,-1,-1
"{'cat': 'RB', 'resp': 'button'}",25,228,Left,42.16942227789482,66.17139395603542,2.108471113894741,1.0394178256503845,Left,Correct,0.0,0.0,-45,45,421,-1,-1
"{'cat': 'RB', 'resp': 'button'}",25,229,Left,39.5216832735692,10.308800077876938,1.9760841636784603,0.1619302529599204,Left,Correct,0.0,0.0,-45,45,638,-1,-1
"{'cat': 'RB', 'resp': 'button'}",25,230,Right,64.32755820049859,79.33480405099155,3.2163779100249292,1.2461881879029042,Left,Incorrect,0.0,0.0,-45,45,452,-1,-1
"{'cat': 'RB', 'resp': 'button'}",25,231,Left,36.34771684015925,55.680812970814664,1.8173858420079625,0.874632164875093,Left,Correct,0.0,0.0,-45,45,756,-1,-1
"{'cat': 'RB', 'resp': 'button'}",25,232,Left,33.208077763112136,69.50401859950802,1.6604038881556067,1.0917665711359137,Left,Correct,0.0,0.0,-45,45,360,-1,-1
"{'cat': 'RB', 'resp': 'button'}",25,233,Right,67.83965563311092,61.37124186788987,3.391982781655546,0.9640172129692258,Right,Correct,0.0,0.0,-45,45,601,-1,-1
"{'cat': 'RB', 'resp': 'button'}",25,234,Left,39.07445618425691,13.924741553291852,1.9537228092128456,0.21872932883479101,Left,Correct,0.0,0.0,-45,45,1144,-1,-1
"{'cat': 'RB', 'resp': 'button'}",25,235,Right,60.173814570740085,45.59047448676989,3.008690728537004,0.716133498606546,Right,Correct,0.0,0.0,-45,45,648,-1,-1
"{'cat': 'RB', 'resp': 'button'}",25,236,Left,38.87675991747246,75.09772519705123,1.9438379958736232,1.1796323089018064,Left,Correct,0.0,0.0,-45,45,560,-1,-1
"{'cat': 'RB', 'resp': 'button'}",25,237,Right,51.24297252555427,41.74170749194285,2.562148626277714,0.6556772080249084,Left,Incorrect,0.0,0.0,-45,45,1236,-1,-1
"{'cat': 'RB', 'resp': 'button'}",25,238,Right,56.22832594740978,43.68288054520961,2.811416297370489,0.6861690830423551,Right,Correct,0.0,0.0,-45,45,519,-1,-1
"{'cat': 'RB', 'resp': 'button'}",25,239,Left,39.27201585503066,52.40867486059971,1.9636007927515329,0.8232335396321806,Right,Incorrect,0.0,0.0,-45,45,426,-1,-1
"{'cat': 'RB', 'resp': 'button'}",25,240,Right,55.03477661979247,21.60431859730312,2.7517388309896234,0.33935984295550414,Right,Correct,0.0,0.0,-45,45,592,-1,-1
"{'cat': 'RB', 'resp': 'button'}",25,241,Right,53.69822927983674,77.7316382679735,2.6849114639918366,1.2210057186708239,Right,Correct,0.0,0.0,-45,45,500,-1,-1
"{'cat': 'RB', 'resp': 'button'}",25,242,Right,60.98549390253976,89.01657692033604,3.049274695126988,1.398269120503192,Right,Correct,0.0,0.0,-45,45,603,-1,-1
"{'cat': 'RB', 'resp': 'button'}",25,243,Left,41.12497682050075,46.299442480295134,2.0562488410250377,0.7272699418069919,Left,Correct,0.0,0.0,-45,45,620,-1,-1
"{'cat': 'RB', 'resp': 'button'}",25,244,Right,61.6507172754579,13.988057770806961,3.082535863772895,0.21972389765378386,Right,Correct,0.0,0.0,-45,45,713,-1,-1
"{'cat': 'RB', 'resp': 'button'}",25,245,Left,34.67162606758338,67.5974598889544,1.7335813033791692,1.0618184169423492,Left,Correct,0.0,0.0,-45,45,705,-1,-1
"{'cat': 'RB', 'resp': 'button'}",25,246,Left,34.76797297398939,70.82669516558792,1.7383986486994696,1.1125431260512737,Left,Correct,0.0,0.0,-45,45,1576,-1,-1
"{'cat': 'RB', 'resp': 'button'}",25,247,Right,62.03638697958385,82.71464652173688,3.101819348979193,1.2992786292848255,Right,Correct,0.0,0.0,-45,45,674,-1,-1
"{'cat': 'RB', 'resp': 'button'}",25,248,Left,41.45677147802078,89.22982557037166,2.072838573901039,1.4016188224648913,Left,Correct,0.0,0.0,-45,45,584,-1,-1
"{'cat': 'RB', 'resp': 'button'}",25,249,Right,68.39803765847824,34.84634192650721,3.419901882923912,0.5473650590039653,Right,Correct,0.0,0.0,-45,45,373,-1,-1
"{'cat': 'RB', 'resp': 'button'}",25,250,Right,54.98525098768881,17.102455079581205,2.7492625493844405,0.26864473618180873,Left,Incorrect,0.0,0.0,-45,45,947,-1,-1
"{'cat': 'RB', 'resp': 'button'}",25,251,Right,68.23243357348375,35.119471755257294,3.411621678674187,0.5516553723213528,Right,Correct,0.0,0.0,-45,45,716,-1,-1
"{'cat': 'RB', 'resp': 'button'}",25,252,Right,61.40671986866139,84.32811595439458,3.0703359934330696,1.324622947866971,Right,Correct,0.0,0.0,-45,45,738,-1,-1
"{'cat': 'RB', 'resp': 'button'}",25,253,Left,43.237506510863255,59.53590929340789,2.161875325543163,0.9351878763047927,Left,Correct,0.0,0.0,-45,45,731,-1,-1
"{'cat': 'RB', 'resp': 'button'}",25,254,Right,64.99524344826946,71.61867382974643,3.249762172413473,1.124983497816875,Right,Correct,0.0,0.0,-45,45,728,-1,-1
"{'cat': 'RB', 'resp': 'button'}",25,255,Right,60.66835706864387,51.73688702223948,3.033417853432194,0.8126811209433634,Right,Correct,0.0,0.0,-45,45,865,-1,-1
"{'cat': 'RB', 'resp': 'button'}",25,256,Left,40.01884935234271,71.50990681135498,2.000942467617136,1.1232749894872176,Left,Correct,0.0,0.0,-45,45,627,-1,-1
"{'cat': 'RB', 'resp': 'button'}",25,257,Left,36.68924190468186,35.53393873769029,1.8344620952340929,0.558165804457188,Left,Correct,0.0,0.0,-45,45,722,-1,-1
"{'cat': 'RB', 'resp': 'button'}",25,258,Right,66.8244792677319,53.6663162139864,3.341223963386595,0.8429885238154322,Right,Correct,0.0,0.0,-45,45,736,-1,-1
"{'cat': 'RB', 'resp': 'button'}",25,259,Right,60.94474000043158,45.765361539873666,3.047237000021579,0.71888061801274,Right,Correct,0.0,0.0,-45,45,821,-1,-1
"{'cat': 'RB', 'resp': 'button'}",25,260,Right,61.62808032830928,55.669133699031846,3.081404016415464,0.874448707302932,Right,Correct,0.0,0.0,-45,45,718,-1,-1
"{'cat': 'RB', 'resp': 'button'}",25,261,Right,56.05268931741945,60.93867832742071,2.8026344658709723,0.9572225207644823,Right,Correct,0.0,0.0,-45,45,502,-1,-1
"{'cat': 'RB', 'resp': 'button'}",25,262,Right,67.23116335913092,25.425101589265722,3.3615581679565456,0.39937656184805675,Right,Correct,0.0,0.0,-45,45,712,-1,-1
"{'cat': 'RB', 'resp': 'button'}",25,263,Right,61.794506285027,17.452078593009098,3.08972531425135,0.2741366094883454,Right,Correct,0.0,0.0,-45,45,687,-1,-1
"{'cat': 'RB', 'resp': 'button'}",25,264,Left,36.23492597363734,79.9133110147474,1.8117462986818669,1.2552753540398338,Left,Correct,0.0,0.0,-45,45,551,-1,-1
"{'cat': 'RB', 'resp': 'button'}",25,265,Left,41.720050722661,20.13864900628673,2.08600253613305,0.3163371588568689,Left,Correct,0.0,0.0,-45,45,671,-1,-1
"{'cat': 'RB', 'resp': 'button'}",25,266,Right,66.04730294937129,61.50183724836717,3.302365147468564,0.9660686004087269,Right,Correct,0.0,0.0,-45,45,691,-1,-1
"{'cat': 'RB', 'resp': 'button'}",25,267,Left,39.817420869917285,45.49306538367745,1.990871043495864,0.714603399993206,Left,Correct,0.0,0.0,-45,45,698,-1,-1
"{'cat': 'RB', 'resp': 'button'}",25,268,Right,58.07718385763616,73.2228312270564,2.903859192881808,1.1501815432898286,Left,Incorrect,0.0,0.0,-45,45,760,-1,-1
"{'cat': 'RB', 'resp': 'button'}",25,269,Left,33.63929282011874,62.84512835123706,1.6819646410059368,0.9871689677107698,Right,Incorrect,0.0,0.0,-45,45,375,-1,-1
"{'cat': 'RB', 'resp': 'button'}",25,270,Right,66.59258533679753,36.89671463516117,3.329629266839876,0.5795722381971066,Right,Correct,0.0,0.0,-45,45,430,-1,-1
"{'cat': 'RB', 'resp': 'button'}",25,271,Left,41.08087723537234,85.26288128562643,2.054043861768617,1.3393062073541133,Left,Correct,0.0,0.0,-45,45,655,-1,-1
"{'cat': 'RB', 'resp': 'button'}",25,272,Right,59.90875073541394,25.85755877450895,2.9954375367706967,0.4061695834288181,Right,Correct,0.0,0.0,-45,45,781,-1,-1
"{'cat': 'RB', 'resp': 'button'}",25,273,Right,64.37917101585776,80.7199992320396,3.2189585507928884,1.2679467829257467,Right,Correct,0.0,0.0,-45,45,694,-1,-1
"{'cat': 'RB', 'resp': 'button'}",25,274,Right,58.717343505166795,75.26511271838166,2.93586717525834,1.1822616259383776,Right,Correct,0.0,0.0,-45,45,736,-1,-1
"{'cat': 'RB', 'resp': 'button'}",25,275,Right,59.48731368871446,78.88244642908496,2.974365684435723,1.2390825709940188,Right,Correct,0.0,0.0,-45,45,542,-1,-1
"{'cat': 'RB', 'resp': 'button'}",25,276,Right,60.79111643274387,90.03765936806627,3.0395558216371934,1.414308246085686,Right,Correct,0.0,0.0,-45,45,572,-1,-1
"{'cat': 'RB', 'resp': 'button'}",25,277,Left,33.99078531876222,46.86617633458871,1.699539265938111,0.7361721763729384,Left,Correct,0.0,0.0,-45,45,662,-1,-1
"{'cat': 'RB', 'resp': 'button'}",25,278,Left,42.710411074330224,35.55640379218712,2.1355205537165114,0.5585186847080366,Right,Incorrect,0.0,0.0,-45,45,624,-1,-1
"{'cat': 'RB', 'resp': 'button'}",25,279,Left,40.82668153465323,42.62904832748147,2.0413340767326615,0.6696155252757002,Left,Correct,0.0,0.0,-45,45,850,-1,-1
"{'cat': 'RB', 'resp': 'button'}",25,280,Right,60.84959765214779,63.10434474266181,3.0424798826073896,0.99124072926572,Right,Correct,0.0,0.0,-45,45,740,-1,-1
"{'cat': 'RB', 'resp': 'button'}",25,281,Right,64.8091472707452,28.47042522244475,3.24045736353726,0.4472123936170499,Right,Correct,0.0,0.0,-45,45,487,-1,-1
"{'cat': 'RB', 'resp': 'button'}",25,282,Left,36.883753005979756,69.66537352215505,1.844187650298988,1.094301128333956,Right,Incorrect,0.0,0.0,-45,45,432,-1,-1
"{'cat': 'RB', 'resp': 'button'}",25,283,Right,67.68954371295679,59.79562131781253,3.3844771856478393,0.9392674232443854,Right,Correct,0.0,0.0,-45,45,547,-1,-1
"{'cat': 'RB', 'resp': 'button'}",25,284,Left,44.92344624158773,28.111277646600342,2.2461723120793864,0.441570916687913,Left,Correct,0.0,0.0,-45,45,1204,-1,-1
"{'cat': 'RB', 'resp': 'button'}",25,285,Left,40.820067848589915,40.54760761287629,2.041003392429496,0.6369203309862687,Left,Correct,0.0,0.0,-45,45,669,-1,-1
"{'cat': 'RB', 'resp': 'button'}",25,286,Left,38.321033400774716,69.38426462999448,1.916051670038736,1.0898854801816038,Left,Correct,0.0,0.0,-45,45,412,-1,-1
"{'cat': 'RB', 'resp': 'button'}",25,287,Right,59.710876276968335,54.35155429432803,2.985543813848417,0.8537522184112386,Right,Correct,0.0,0.0,-45,45,454,-1,-1
"{'cat': 'RB', 'resp': 'button'}",25,288,Left,34.237758517087286,60.98475967257457,1.7118879258543642,0.9579463648414968,Left,Correct,0.0,0.0,-45,45,564,-1,-1
"{'cat': 'RB', 'resp': 'button'}",25,289,Right,56.84294301014814,77.61473042264721,2.842147150507407,1.2191693345307035,Right,Correct,0.0,0.0,-45,45,803,-1,-1
"{'cat': 'RB', 'resp': 'button'}",25,290,Left,41.4493420837072,29.550738109966638,2.07246710418536,0.4641819087721356,Left,Correct,0.0,0.0,-45,45,894,-1,-1
"{'cat': 'RB', 'resp': 'button'}",25,291,Left,39.30483501275829,72.35535396068347,1.9652417506379145,1.1365552422538618,Left,Correct,0.0,0.0,-45,45,625,-1,-1
"{'cat': 'RB', 'resp': 'button'}",25,292,Left,47.28655642091451,29.5717204601283,2.3643278210457255,0.4645114987577503,Left,Correct,0.0,0.0,-45,45,346,-1,-1
"{'cat': 'RB', 'resp': 'button'}",25,293,Right,55.337005282681254,74.10437430153104,2.7668502641340624,1.164028789522791,Right,Correct,0.0,0.0,-45,45,425,-1,-1
"{'cat': 'RB', 'resp': 'button'}",25,294,Left,47.72856430541153,30.3341931728763,2.3864282152705765,0.47648839212240923,Left,Correct,0.0,0.0,-45,45,798,-1,-1
"{'cat': 'RB', 'resp': 'button'}",25,295,Left,42.30598596689304,26.50905936680248,2.115299298344652,0.4164033308016118,Left,Correct,0.0,0.0,-45,45,456,-1,-1
"{'cat': 'RB', 'resp': 'button'}",25,296,Right,59.66848113630135,49.018522223424036,2.9834240568150676,0.7699811465346849,Right,Correct,0.0,0.0,-45,45,741,-1,-1
"{'cat': 'RB', 'resp': 'button'}",25,297,Right,62.25986625424101,41.6430591952455,3.112993312712051,0.6541276442039408,Right,Correct,0.0,0.0,-45,45,974,-1,-1
"{'cat': 'RB', 'resp': 'button'}",25,298,Left,46.234116995300525,62.732891069728716,2.3117058497650262,0.9854059486155423,Left,Correct,0.0,0.0,-45,45,1208,-1,-1
"{'cat': 'RB', 'resp': 'button'}",25,299,Right,57.49522284016725,80.86058498270765,2.8747611420083627,1.2701550987332375,Right,Correct,0.0,0.0,-45,45,576,-1,-1
"{'cat': 'RB', 'resp': 'button'}",25,300,Left,38.49503212544626,79.96323073642074,1.9247516062723127,1.2560594911942249,Left,Correct,0.0,0.0,-45,45,693,-1,-1
"{'cat': 'RB', 'resp': 'button'}",25,301,Right,52.51468997071558,59.502075403503746,2.6257344985357793,0.9346564148049665,Right,Correct,0.0,0.0,-45,45,854,-1,-1
"{'cat': 'RB', 'resp': 'button'}",25,302,Left,44.797740770343765,73.23807186210149,2.239887038517188,1.150420942625297,Left,Correct,0.0,0.0,-45,45,880,-1,-1
"{'cat': 'RB', 'resp': 'button'}",25,303,Left,47.633092397867635,40.39207620710036,2.3816546198933817,0.6344772493773279,Left,Correct,0.0,0.0,-45,45,1242,-1,-1
"{'cat': 'RB', 'resp': 'button'}",25,304,Left,45.75323945116166,65.02316398351606,2.2876619725580833,1.0213814714188922,Left,Correct,0.0,0.0,-45,45,1880,-1,-1
"{'cat': 'RB', 'resp': 'button'}",25,305,Right,66.73605173635634,44.03058747219283,3.336802586817817,0.6916308506794188,Right,Correct,0.0,0.0,-45,45,718,-1,-1
"{'cat': 'RB', 'resp': 'button'}",25,306,Left,36.55770250360695,13.877781875681997,1.8278851251803474,0.2179916879438207,Left,Correct,0.0,0.0,-45,45,634,-1,-1
"{'cat': 'RB', 'resp': 'button'}",25,307,Right,64.03660596425888,61.97382665499674,3.2018302982129443,0.9734825926709253,Right,Correct,0.0,0.0,-45,45,784,-1,-1
"{'cat': 'RB', 'resp': 'button'}",25,308,Left,40.87885064847495,55.98671172673043,2.0439425324237477,0.8794372112967292,Left,Correct,0.0,0.0,-45,45,1155,-1,-1
"{'cat': 'RB', 'resp': 'button'}",25,309,Left,37.06153215593675,21.444597502069918,1.8530766077968377,0.3368509498584644,Left,Correct,0.0,0.0,-45,45,708,-1,-1
"{'cat': 'RB', 'resp': 'button'}",25,310,Right,61.60714198435949,84.84112392408366,3.0803570992179745,1.3326812582110124,Right,Correct,0.0,0.0,-45,45,652,-1,-1
"{'cat': 'RB', 'resp': 'button'}",25,311,Left,42.9285896504812,42.14061235619091,2.14642948252406,0.661943190979923,Left,Correct,0.0,0.0,-45,45,1092,-1,-1
"{'cat': 'RB', 'resp': 'button'}",25,312,Right,61.562128556629574,61.399546269137986,3.0781064278314783,0.9644618174643524,Right,Correct,0.0,0.0,-45,45,843,-1,-1
"{'cat': 'RB', 'resp': 'button'}",25,313,Left,42.708403137094955,50.74378359708093,2.1354201568547477,0.7970814888196986,Left,Correct,0.0,0.0,-45,45,566,-1,-1
"{'cat': 'RB', 'resp': 'button'}",25,314,Left,38.579955409736684,10.365769352643916,1.928997770486834,0.16282512423536175,Left,Correct,0.0,0.0,-45,45,843,-1,-1
"{'cat': 'RB', 'resp': 'button'}",25,315,Left,45.1910931210901,37.90041520037112,2.259554656054505,0.5953383298074442,Left,Correct,0.0,0.0,-45,45,1059,-1,-1
"{'cat': 'RB', 'resp': 'button'}",25,316,Left,48.30548174032126,63.13844404010652,2.415274087016063,0.9917763597774447,Right,Incorrect,0.0,0.0,-45,45,638,-1,-1
"{'cat': 'RB', 'resp': 'button'}",25,317,Left,38.01659045619649,61.72671782274786,1.9008295228098246,0.9696010162107741,Left,Correct,0.0,0.0,-45,45,620,-1,-1
"{'cat': 'RB', 'resp': 'button'}",25,318,Left,45.768023493944774,55.91230945249186,2.288401174697239,0.8782685031059378,Left,Correct,0.0,0.0,-45,45,544,-1,-1
"{'cat': 'RB', 'resp': 'button'}",25,319,Right,65.24374271650645,27.198661615969733,3.2621871358253225,0.42723557760102604,Right,Correct,0.0,0.0,-45,45,1092,-1,-1
"{'cat': 'RB', 'resp': 'button'}",25,320,Right,53.473680925865345,41.367686081451446,2.673684046293267,0.649802093447483,Right,Correct,0.0,0.0,-45,45,5420,-1,-1
"{'cat': 'RB', 'resp': 'button'}",25,321,Right,60.65065962682872,73.5757769233937,3.0325329813414363,1.1557256013234753,Right,Correct,0.0,0.0,-45,45,615,-1,-1
"{'cat': 'RB', 'resp': 'button'}",25,322,Left,44.87304168758616,85.01887335203119,2.243652084379308,1.3354733396961112,Left,Correct,0.0,0.0,-45,45,691,-1,-1
"{'cat': 'RB', 'resp': 'button'}",25,323,Right,56.91941255742375,79.68804537509229,2.8459706278711874,1.2517368896466001,Left,Incorrect,0.0,0.0,-45,45,801,-1,-1
"{'cat': 'RB', 'resp': 'button'}",25,324,Right,52.67049255209669,60.17778849289506,2.6335246276048343,0.9452704911927976,Right,Correct,0.0,0.0,-45,45,456,-1,-1
"{'cat': 'RB', 'resp': 'button'}",25,325,Left,37.05213233634763,34.989285554123896,1.8526066168173816,0.5496104122559555,Left,Correct,0.0,0.0,-45,45,1178,-1,-1
"{'cat': 'RB', 'resp': 'button'}",25,326,Right,60.61192921873881,81.98790940866444,3.0305964609369402,1.2878630694072284,Right,Correct,0.0,0.0,-45,45,792,-1,-1
"{'cat': 'RB', 'resp': 'button'}",25,327,Left,37.366928729149606,17.731888471878243,1.8683464364574802,0.27853185278763115,Left,Correct,0.0,0.0,-45,45,1055,-1,-1
"{'cat': 'RB', 'resp': 'button'}",25,328,Right,52.54769581239144,26.44418377127758,2.627384790619572,0.41538426733012035,Right,Correct,0.0,0.0,-45,45,419,-1,-1
"{'cat': 'RB', 'resp': 'button'}",25,329,Right,58.655168828418354,16.169580443073954,2.932758441420918,0.25399117565795165,Left,Incorrect,0.0,0.0,-45,45,459,-1,-1
"{'cat': 'RB', 'resp': 'button'}",25,330,Left,32.548327895540325,56.25407132900549,1.6274163947770162,0.8836368861085995,Left,Correct,0.0,0.0,-45,45,1121,-1,-1
"{'cat': 'RB', 'resp': 'button'}",25,331,Left,34.068182305251014,57.738228353939284,1.7034091152625508,0.9069499701401278,Left,Correct,0.0,0.0,-45,45,557,-1,-1
"{'cat': 'RB', 'resp': 'button'}",25,332,Left,33.417774184836766,40.18584753856275,1.6708887092418383,0.631237817027141,Left,Correct,0.0,0.0,-45,45,986,-1,-1
"{'cat': 'RB', 'resp': 'button'}",25,333,Left,38.71108675079266,71.30799059341936,1.9355543375396331,1.1201032969526816,Left,Correct,0.0,0.0,-45,45,2787,-1,-1
"{'cat': 'RB', 'resp': 'button'}",25,334,Left,36.18672731108133,77.18772298238461,1.8093363655540662,1.2124619173439177,Left,Correct,0.0,0.0,-45,45,655,-1,-1
"{'cat': 'RB', 'resp': 'button'}",25,335,Left,41.69356046692767,27.323257779793405,2.0846780233463833,0.4291927295656956,Left,Correct,0.0,0.0,-45,45,545,-1,-1
"{'cat': 'RB', 'resp': 'button'}",25,336,Right,57.85800334299475,24.11230809911535,2.892900167149737,0.3787552499263722,Right,Correct,0.0,0.0,-45,45,608,-1,-1
"{'cat': 'RB', 'resp': 'button'}",25,337,Right,56.64132770332286,69.33399939772633,2.832066385166143,1.0890959157594808,Right,Correct,0.0,0.0,-45,45,601,-1,-1
"{'cat': 'RB', 'resp': 'button'}",25,338,Left,37.40930038465034,63.53555372110723,1.870465019232517,0.9980141440599504,Left,Correct,0.0,0.0,-45,45,672,-1,-1
"{'cat': 'RB', 'resp': 'button'}",25,339,Left,36.19858808779376,55.73087371732335,1.8099294043896879,0.8754185172424176,Left,Correct,0.0,0.0,-45,45,668,-1,-1
"{'cat': 'RB', 'resp': 'button'}",25,340,Left,44.95735705523998,61.29542436126703,2.247867852761999,0.9628262743601267,Right,Incorrect,0.0,0.0,-45,45,907,-1,-1
"{'cat': 'RB', 'resp': 'button'}",25,341,Left,46.48005394009314,30.23758168751937,2.3240026970046572,0.4749708224591605,Right,Incorrect,0.0,0.0,-45,45,402,-1,-1
"{'cat': 'RB', 'resp': 'button'}",25,342,Right,60.979941216144276,29.306416016208154,3.048997060807214,0.46034410629782896,Right,Correct,0.0,0.0,-45,45,690,-1,-1
"{'cat': 'RB', 'resp': 'button'}",25,343,Right,55.42933918179009,37.22040014344494,2.7714669590895045,0.5846566782715956,Right,Correct,0.0,0.0,-45,45,432,-1,-1
"{'cat': 'RB', 'resp': 'button'}",25,344,Right,56.181061628728784,66.23226539178631,2.8090530814364394,1.0403739919272268,Right,Correct,0.0,0.0,-45,45,451,-1,-1
"{'cat': 'RB', 'resp': 'button'}",25,345,Right,63.45618478554043,40.65152417554212,3.1728092392770213,0.6385526485355549,Right,Correct,0.0,0.0,-45,45,476,-1,-1
"{'cat': 'RB', 'resp': 'button'}",25,346,Left,34.176290142017564,77.17432932418298,1.7088145071008782,1.2122515302528627,Left,Correct,0.0,0.0,-45,45,789,-1,-1
"{'cat': 'RB', 'resp': 'button'}",25,347,Left,47.835618298830205,52.984004078773935,2.3917809149415103,0.8322707898582391,Left,Correct,0.0,0.0,-45,45,1534,-1,-1
"{'cat': 'RB', 'resp': 'button'}",25,348,Right,65.87581592740824,21.147023760734935,3.293790796370412,0.3321766724600683,Right,Correct,0.0,0.0,-45,45,617,-1,-1
"{'cat': 'RB', 'resp': 'button'}",25,349,Right,57.80345770996084,71.84532663419851,2.890172885498042,1.1285437517437855,Right,Correct,0.0,0.0,-45,45,924,-1,-1
"{'cat': 'RB', 'resp': 'button'}",25,350,Left,35.98783752813653,64.50899140678221,1.7993918764068266,1.0133048674701706,Left,Correct,0.0,0.0,-45,45,592,-1,-1
"{'cat': 'RB', 'resp': 'button'}",25,351,Left,40.05287705649572,59.515028512300546,2.002643852824786,0.9348598817621523,Left,Correct,0.0,0.0,-45,45,764,-1,-1
"{'cat': 'RB', 'resp': 'button'}",25,352,Right,51.63403988408399,52.881186775560735,2.5817019942041997,0.8306557394360565,Left,Incorrect,0.0,0.0,-45,45,2311,-1,-1
"{'cat': 'RB', 'resp': 'button'}",25,353,Right,65.0197481018666,49.515982036517684,3.25098740509333,0.7777952270060405,Right,Correct,0.0,0.0,-45,45,453,-1,-1
"{'cat': 'RB', 'resp': 'button'}",25,354,Right,67.08670295714916,48.72371695069488,3.3543351478574577,0.7653503561394576,Right,Correct,0.0,0.0,-45,45,763,-1,-1
"{'cat': 'RB', 'resp': 'button'}",25,355,Right,54.85591206646947,66.15330969751764,2.742795603323474,1.0391337587818592,Right,Correct,0.0,0.0,-45,45,436,-1,-1
"{'cat': 'RB', 'resp': 'button'}",25,356,Left,47.324652300662684,37.17637037130834,2.3662326150331343,0.5839650602281776,Right,Incorrect,0.0,0.0,-45,45,432,-1,-1
"{'cat': 'RB', 'resp': 'button'}",25,357,Right,66.79595864659724,68.25924232391459,3.339797932329862,1.0722136711220778,Right,Correct,0.0,0.0,-45,45,644,-1,-1
"{'cat': 'RB', 'resp': 'button'}",25,358,Right,61.2299338497468,38.355331437715435,3.06149669248734,0.6024841373536423,Right,Correct,0.0,0.0,-45,45,423,-1,-1
"{'cat': 'RB', 'resp': 'button'}",25,359,Left,33.97025295667992,70.87683454826609,1.6985126478339962,1.11333071363266,Left,Correct,0.0,0.0,-45,45,734,-1,-1
"{'cat': 'RB', 'resp': 'button'}",25,360,Left,31.816092599863406,47.669806537799076,1.5908046299931704,0.7487955700859813,Left,Correct,0.0,0.0,-45,45,1033,-1,-1
"{'cat': 'RB', 'resp': 'button'}",25,361,Right,64.7568223523891,73.96187218761197,3.237841117619455,1.161790371551745,Right,Correct,0.0,0.0,-45,45,2067,-1,-1
"{'cat': 'RB', 'resp': 'button'}",25,362,Left,37.05771947409634,59.74788920704411,1.852885973704817,0.9385176490017333,Left,Correct,0.0,0.0,-45,45,987,-1,-1
"{'cat': 'RB', 'resp': 'button'}",25,363,Right,64.44704336052463,29.751072028647787,3.2223521680262315,0.4673287466081033,Right,Correct,0.0,0.0,-45,45,2184,-1,-1
"{'cat': 'RB', 'resp': 'button'}",25,364,Right,51.972258356236466,69.59048940585069,2.598612917811823,1.0931248513856944,Right,Correct,0.0,0.0,-45,45,971,-1,-1
"{'cat': 'RB', 'resp': 'button'}",25,365,Left,36.08813501499046,77.7109698122719,1.8044067507495232,1.2206810593278579,Left,Correct,0.0,0.0,-45,45,617,-1,-1
"{'cat': 'RB', 'resp': 'button'}",25,366,Right,59.085483782491295,68.71724801530765,2.9542741891245647,1.0794080076989914,Right,Correct,0.0,0.0,-45,45,745,-1,-1
"{'cat': 'RB', 'resp': 'button'}",25,367,Right,62.63276104033305,44.072365299982756,3.1316380520166525,0.6922870952637576,Right,Correct,0.0,0.0,-45,45,676,-1,-1
"{'cat': 'RB', 'resp': 'button'}",25,368,Left,47.43260290056804,70.23210719698162,2.3716301450284023,1.1032033600808413,Left,Correct,0.0,0.0,-45,45,4931,-1,-1
"{'cat': 'RB', 'resp': 'button'}",25,369,Right,56.37126782669667,34.59116455593077,2.8185633913348336,0.5433567422401387,Right,Correct,0.0,0.0,-45,45,587,-1,-1
"{'cat': 'RB', 'resp': 'button'}",25,370,Right,53.30653041103251,30.94309148674968,2.6653265205516252,0.48605294447064834,Right,Correct,0.0,0.0,-45,45,925,-1,-1
"{'cat': 'RB', 'resp': 'button'}",25,371,Left,43.44822584097974,20.7393142406859,2.172411292048987,0.325772386295145,Left,Correct,0.0,0.0,-45,45,2798,-1,-1
"{'cat': 'RB', 'resp': 'button'}",25,372,Left,37.953306848348234,48.31511870898446,1.8976653424174117,0.7589321099673215,Left,Correct,0.0,0.0,-45,45,1038,-1,-1
"{'cat': 'RB', 'resp': 'button'}",25,373,Left,37.44315654866266,71.26855192213674,1.872157827433133,1.1194837957528374,Left,Correct,0.0,0.0,-45,45,600,-1,-1
"{'cat': 'RB', 'resp': 'button'}",25,374,Right,64.33320499024637,31.578002412629797,3.2166602495123184,0.4960261019727926,Right,Correct,0.0,0.0,-45,45,692,-1,-1
"{'cat': 'RB', 'resp': 'button'}",25,375,Right,65.07606515602573,52.92406423512672,3.2538032578012865,0.831329256995942,Right,Correct,0.0,0.0,-45,45,703,-1,-1
"{'cat': 'RB', 'resp': 'button'}",25,376,Right,65.48668252934672,73.7143326408659,3.274334126467336,1.1579020294440932,Right,Correct,0.0,0.0,-45,45,1055,-1,-1
"{'cat': 'RB', 'resp': 'button'}",25,377,Right,54.54893641537327,82.7768640621282,2.7274468207686637,1.3002559401239144,Right,Correct,0.0,0.0,-45,45,2311,-1,-1
"{'cat': 'RB', 'resp': 'button'}",25,378,Left,44.749487085304764,83.45903093207139,2.237474354265238,1.3109713922595938,Left,Correct,0.0,0.0,-45,45,773,-1,-1
"{'cat': 'RB', 'resp': 'button'}",25,379,Left,39.44274094592277,37.95947091093249,1.9721370472961386,0.5962659747397049,Left,Correct,0.0,0.0,-45,45,898,-1,-1
"{'cat': 'RB', 'resp': 'button'}",25,380,Left,44.6552984651804,53.59457508205822,2.2327649232590203,0.8418616167503034,Left,Correct,0.0,0.0,-45,45,2682,-1,-1
"{'cat': 'RB', 'resp': 'button'}",25,381,Left,45.128923431771696,27.367085567252932,2.2564461715885846,0.4298811748412254,Left,Correct,0.0,0.0,-45,45,628,-1,-1
"{'cat': 'RB', 'resp': 'button'}",25,382,Right,59.46940246164419,75.21059683204945,2.9734701230822096,1.1814052923983516,Right,Correct,0.0,0.0,-45,45,1890,-1,-1
"{'cat': 'RB', 'resp': 'button'}",25,383,Left,36.14410811217369,61.12666240674995,1.8072054056086844,0.9601753677775452,Left,Correct,0.0,0.0,-45,45,992,-1,-1
"{'cat': 'RB', 'resp': 'button'}",25,384,Left,39.00198214873209,83.78868377478157,1.9500991074366043,1.3161495670040606,Left,Correct,0.0,0.0,-45,45,2284,-1,-1
"{'cat': 'RB', 'resp': 'button'}",25,385,Left,44.058372193572,70.87809540190018,2.2029186096785995,1.1133505190752304,Left,Correct,0.0,0.0,-45,45,605,-1,-1
"{'cat': 'RB', 'resp': 'button'}",25,386,Left,35.251606159522424,33.577001392855976,1.7625803079761213,0.5274263045268529,Left,Correct,0.0,0.0,-45,45,2167,-1,-1
"{'cat': 'RB', 'resp': 'button'}",25,387,Right,55.58983761826991,16.382593282882326,2.7794918809134956,0.257337173521263,Left,Incorrect,0.0,0.0,-45,45,852,-1,-1
"{'cat': 'RB', 'resp': 'button'}",25,388,Right,62.06497418227593,21.9626623722643,3.103248709113797,0.34498869380989255,Right,Correct,0.0,0.0,-45,45,471,-1,-1
"{'cat': 'RB', 'resp': 'button'}",25,389,Left,33.03857473271572,64.79898146240288,1.651928736635786,1.0178600206119304,Left,Correct,0.0,0.0,-45,45,1015,-1,-1
"{'cat': 'RB', 'resp': 'button'}",25,390,Right,61.11494454245474,51.2829118929392,3.055747227122737,0.8055500962877521,Right,Correct,0.0,0.0,-45,45,5211,-1,-1
"{'cat': 'RB', 'resp': 'button'}",25,391,Left,39.358833573681345,53.43297089755096,1.9679416786840673,0.8393231441561165,Left,Correct,0.0,0.0,-45,45,568,-1,-1
"{'cat': 'RB', 'resp': 'button'}",25,392,Right,68.28431540399927,32.680693660762174,3.4142157701999634,0.5133471355943449,Right,Correct,0.0,0.0,-45,45,527,-1,-1
"{'cat': 'RB', 'resp': 'button'}",25,393,Right,57.99888012192134,14.337022874299656,2.8999440060960673,0.2252054286812431,Right,Correct,0.0,0.0,-45,45,581,-1,-1
"{'cat': 'RB', 'resp': 'button'}",25,394,Left,44.05968098715785,64.27754170913613,2.2029840493578923,1.0096692641211678,Right,Incorrect,0.0,0.0,-45,45,979,-1,-1
"{'cat': 'RB', 'resp': 'button'}",25,395,Left,43.87564834069732,21.91929216395207,2.193782417034866,0.3443074361708007,Right,Incorrect,0.0,0.0,-45,45,368,-1,-1
"{'cat': 'RB', 'resp': 'button'}",25,396,Right,63.421709310520974,69.81821521631456,3.171085465526049,1.0967019600516246,Right,Correct,0.0,0.0,-45,45,498,-1,-1
"{'cat': 'RB', 'resp': 'button'}",25,397,Right,61.290540923434946,51.91516889107491,3.0645270461717473,0.8154815659903716,Right,Correct,0.0,0.0,-45,45,462,-1,-1
"{'cat': 'RB', 'resp': 'button'}",25,398,Left,37.31876058124137,87.83959037661447,1.8659380290620686,1.3797810591075435,Left,Correct,0.0,0.0,-45,45,424,-1,-1
"{'cat': 'RB', 'resp': 'button'}",25,399,Right,59.68474124643899,53.42604574943609,2.9842370623219496,0.8392143641839032,Left,Incorrect,0.0,0.0,-45,45,258,-1,-1
