condition,subject,trial,cat,x,y,xt,yt,resp,fb,rotation,su,target_angle_left,target_angle_right,rt,mt,ep
"{'cat': 'RB', 'resp': 'button'}",21,0,Left,40.0435437087482,11.470265126319845,2.00217718543741,0.18017450327786813,Left,Correct,0.0,0.0,-45,45,2399,-1,-1
"{'cat': 'RB', 'resp': 'button'}",21,1,Left,37.198688043462425,72.2202488703683,1.8599344021731212,1.1344330164578778,Right,Incorrect,0.0,0.0,-45,45,973,-1,-1
"{'cat': 'RB', 'resp': 'button'}",21,2,Right,55.87843443010255,56.269079389887516,2.7939217215051273,0.8838726321776573,Right,Correct,0.0,0.0,-45,45,2361,-1,-1
"{'cat': 'RB', 'resp': 'button'}",21,3,Left,34.986198923809525,36.829302130080336,1.7493099461904762,0.5785133250434965,Left,Correct,0.0,0.0,-45,45,770,-1,-1
"{'cat': 'RB', 'resp': 'button'}",21,4,Right,62.274786933900266,73.22146075264267,3.1137393466950134,1.150160015928078,Left,Incorrect,0.0,0.0,-45,45,1713,-1,-1
"{'cat': 'RB', 'resp': 'button'}",21,5,Right,65.38311603956478,64.21639456354703,3.2691558019782394,1.0087087670043144,Left,Incorrect,0.0,0.0,-45,45,471,-1,-1
"{'cat': 'RB', 'resp': 'button'}",21,6,Left,38.01189186638512,49.17290087812126,1.900594593319256,0.7724061207720242,Left,Correct,0.0,0.0,-45,45,324,-1,-1
"{'cat': 'RB', 'resp': 'button'}",21,7,Right,58.508898564683534,40.1836142708414,2.925444928234177,0.6312027369398066,Right,Correct,0.0,0.0,-45,45,357,-1,-1
"{'cat': 'RB', 'resp': 'button'}",21,8,Left,33.01019085077377,64.65426581283609,1.6505095425386884,1.0155868325042376,Left,Correct,0.0,0.0,-45,45,1714,-1,-1
"{'cat': 'RB', 'resp': 'button'}",21,9,Right,55.5515195246251,24.206910888990784,2.777575976231255,0.38024126707478106,Left,Incorrect,0.0,0.0,-45,45,1902,-1,-1
"{'cat': 'RB', 'resp': 'button'}",21,10,Left,31.480059327333358,53.15886855481504,1.5740029663666677,0.8350175546247619,Right,Incorrect,0.0,0.0,-45,45,269,-1,-1
"{'cat': 'RB', 'resp': 'button'}",21,11,Left,33.446168333168764,30.96462554874421,1.6723084166584383,0.48639120072546815,Left,Correct,0.0,0.0,-45,45,599,-1,-1
"{'cat': 'RB', 'resp': 'button'}",21,12,Right,64.72307843934752,80.31266880576804,3.236153921967376,1.261548451551955,Right,Correct,0.0,0.0,-45,45,1335,-1,-1
"{'cat': 'RB', 'resp': 'button'}",21,13,Right,63.340114010798665,74.49920458505851,3.1670057005399332,1.1702307691135143,Right,Correct,0.0,0.0,-45,45,876,-1,-1
"{'cat': 'RB', 'resp': 'button'}",21,14,Right,62.30445113976049,32.74867418636762,3.1152225569880243,0.5144149711934911,Left,Incorrect,0.0,0.0,-45,45,1170,-1,-1
"{'cat': 'RB', 'resp': 'button'}",21,15,Right,62.64392901196895,82.04261325097171,3.132196450598448,1.2887223553528067,Right,Correct,0.0,0.0,-45,45,1004,-1,-1
"{'cat': 'RB', 'resp': 'button'}",21,16,Right,59.9359253228686,83.47537144252647,2.9967962661434298,1.3112280683976019,Right,Correct,0.0,0.0,-45,45,1136,-1,-1
"{'cat': 'RB', 'resp': 'button'}",21,17,Left,46.250706132875784,40.81005124231965,2.3125353066437895,0.6410427858774721,Left,Correct,0.0,0.0,-45,45,1294,-1,-1
"{'cat': 'RB', 'resp': 'button'}",21,18,Right,53.51335769736791,25.05461091150806,2.6756678848683952,0.39355690789072206,Right,Correct,0.0,0.0,-45,45,1100,-1,-1
"{'cat': 'RB', 'resp': 'button'}",21,19,Right,68.99739976487385,58.76930715933796,3.4498699882436927,0.9231461181416909,Right,Correct,0.0,0.0,-45,45,877,-1,-1
"{'cat': 'RB', 'resp': 'button'}",21,20,Left,46.67148153232364,26.96670259997613,2.333574076616182,0.4235919738981289,Left,Correct,0.0,0.0,-45,45,812,-1,-1
"{'cat': 'RB', 'resp': 'button'}",21,21,Right,63.36998920283966,48.705237342961595,3.168499460141983,0.765060079139977,Right,Correct,0.0,0.0,-45,45,613,-1,-1
"{'cat': 'RB', 'resp': 'button'}",21,22,Left,44.423160514905334,26.3737139765878,2.2211580257452668,0.4142773303836334,Left,Correct,0.0,0.0,-45,45,531,-1,-1
"{'cat': 'RB', 'resp': 'button'}",21,23,Right,67.03854481903326,54.23802444446829,3.3519272409516634,0.8519688956998258,Right,Correct,0.0,0.0,-45,45,610,-1,-1
"{'cat': 'RB', 'resp': 'button'}",21,24,Right,65.54252347209784,73.04324281067295,3.2771261736048922,1.147360575041928,Left,Incorrect,0.0,0.0,-45,45,2080,-1,-1
"{'cat': 'RB', 'resp': 'button'}",21,25,Left,46.64743374442147,69.2050724427871,2.3323716872210736,1.087070735887047,Left,Correct,0.0,0.0,-45,45,792,-1,-1
"{'cat': 'RB', 'resp': 'button'}",21,26,Right,60.22768592354849,71.24269290810581,3.011384296177425,1.1190776033102945,Right,Correct,0.0,0.0,-45,45,940,-1,-1
"{'cat': 'RB', 'resp': 'button'}",21,27,Right,57.18929534525229,57.342717002260855,2.8594647672626143,0.900737292355906,Right,Correct,0.0,0.0,-45,45,1230,-1,-1
"{'cat': 'RB', 'resp': 'button'}",21,28,Left,32.89060100659094,38.45186974256008,1.644530050329547,0.604000557500092,Left,Correct,0.0,0.0,-45,45,586,-1,-1
"{'cat': 'RB', 'resp': 'button'}",21,29,Right,60.02207026009434,33.525142118506764,3.0011035130047166,0.526611700950273,Right,Correct,0.0,0.0,-45,45,703,-1,-1
"{'cat': 'RB', 'resp': 'button'}",21,30,Left,44.46823306971708,68.72422426231878,2.223411653485854,1.0795175903307905,Left,Correct,0.0,0.0,-45,45,764,-1,-1
"{'cat': 'RB', 'resp': 'button'}",21,31,Left,37.16379073327782,73.85072769558688,1.8581895366638912,1.16004451795358,Left,Correct,0.0,0.0,-45,45,691,-1,-1
"{'cat': 'RB', 'resp': 'button'}",21,32,Left,36.949338787764894,46.8784913601185,1.8474669393882448,0.7363656203416044,Left,Correct,0.0,0.0,-45,45,1672,-1,-1
"{'cat': 'RB', 'resp': 'button'}",21,33,Left,47.26719811179506,40.34044661652101,2.363359905589753,0.633666253664968,Right,Incorrect,0.0,0.0,-45,45,1054,-1,-1
"{'cat': 'RB', 'resp': 'button'}",21,34,Right,52.21892873528943,67.82848857944516,2.6109464367644715,1.0654474071264206,Right,Correct,0.0,0.0,-45,45,759,-1,-1
"{'cat': 'RB', 'resp': 'button'}",21,35,Left,46.28095616265783,39.656641355934156,2.3140478081328917,0.6229250657492396,Left,Correct,0.0,0.0,-45,45,967,-1,-1
"{'cat': 'RB', 'resp': 'button'}",21,36,Right,52.691208150110796,54.79002461559219,2.63456040750554,0.8606396941117418,Right,Correct,0.0,0.0,-45,45,692,-1,-1
"{'cat': 'RB', 'resp': 'button'}",21,37,Left,43.20918584808301,20.5583887834297,2.16045929240415,0.3229304158583277,Left,Correct,0.0,0.0,-45,45,918,-1,-1
"{'cat': 'RB', 'resp': 'button'}",21,38,Left,42.85318672172182,23.865962409233855,2.142659336086091,0.3748856608784962,Left,Correct,0.0,0.0,-45,45,735,-1,-1
"{'cat': 'RB', 'resp': 'button'}",21,39,Left,31.440003800236106,53.6867854824232,1.5720001900118052,0.8433100543321592,Left,Correct,0.0,0.0,-45,45,723,-1,-1
"{'cat': 'RB', 'resp': 'button'}",21,40,Right,54.45587614123229,61.07837436663384,2.7227938070616142,0.95941686101712,Right,Correct,0.0,0.0,-45,45,702,-1,-1
"{'cat': 'RB', 'resp': 'button'}",21,41,Left,46.735629722667014,63.95339294964357,2.3367814861333507,1.0045775473137075,Right,Incorrect,0.0,0.0,-45,45,2129,-1,-1
"{'cat': 'RB', 'resp': 'button'}",21,42,Left,35.03858328475091,54.695258188705566,1.7519291642375459,0.8591511065591719,Left,Correct,0.0,0.0,-45,45,922,-1,-1
"{'cat': 'RB', 'resp': 'button'}",21,43,Left,36.787999788082956,47.150304558832346,1.839399989404148,0.7406352520827453,Left,Correct,0.0,0.0,-45,45,896,-1,-1
"{'cat': 'RB', 'resp': 'button'}",21,44,Left,45.00779304940054,44.295099561081145,2.250389652470027,0.695785796855605,Right,Incorrect,0.0,0.0,-45,45,1265,-1,-1
"{'cat': 'RB', 'resp': 'button'}",21,45,Left,45.19417284014379,66.2675175259851,2.2597086420071895,1.0409277311563383,Right,Incorrect,0.0,0.0,-45,45,1497,-1,-1
"{'cat': 'RB', 'resp': 'button'}",21,46,Left,31.574519444273744,51.37123821538782,1.5787259722136873,0.8069375229163681,Left,Correct,0.0,0.0,-45,45,589,-1,-1
"{'cat': 'RB', 'resp': 'button'}",21,47,Right,63.06258361856295,32.32775713266895,3.1531291809281474,0.507803221575139,Right,Correct,0.0,0.0,-45,45,722,-1,-1
"{'cat': 'RB', 'resp': 'button'}",21,48,Left,41.36447753845263,81.79587341616181,2.0682238769226315,1.284846575090873,Left,Correct,0.0,0.0,-45,45,899,-1,-1
"{'cat': 'RB', 'resp': 'button'}",21,49,Left,40.22000054249854,43.87015587595044,2.0110000271249273,0.6891107970586249,Left,Correct,0.0,0.0,-45,45,707,-1,-1
"{'cat': 'RB', 'resp': 'button'}",21,50,Left,32.00312206762858,47.59581806574879,1.6001561033814289,0.7476333618847638,Left,Correct,0.0,0.0,-45,45,744,-1,-1
"{'cat': 'RB', 'resp': 'button'}",21,51,Left,35.40038895642819,51.18711890734007,1.7700194478214093,0.8040453835886338,Left,Correct,0.0,0.0,-45,45,826,-1,-1
"{'cat': 'RB', 'resp': 'button'}",21,52,Left,46.7386825949264,31.67413410242272,2.3369341297463198,0.49753613502494576,Left,Correct,0.0,0.0,-45,45,5261,-1,-1
"{'cat': 'RB', 'resp': 'button'}",21,53,Right,56.37416059356797,23.900966710400635,2.8187080296783984,0.3754355071554441,Right,Correct,0.0,0.0,-45,45,714,-1,-1
"{'cat': 'RB', 'resp': 'button'}",21,54,Left,41.98633096153641,56.96375749923056,2.0993165480768203,0.8947846104022661,Left,Correct,0.0,0.0,-45,45,688,-1,-1
"{'cat': 'RB', 'resp': 'button'}",21,55,Right,58.12739160538108,88.83950073596813,2.906369580269054,1.3954876143035124,Right,Correct,0.0,0.0,-45,45,814,-1,-1
"{'cat': 'RB', 'resp': 'button'}",21,56,Left,39.43152818448165,55.74900783900456,1.9715764092240824,0.8757033673596826,Left,Correct,0.0,0.0,-45,45,678,-1,-1
"{'cat': 'RB', 'resp': 'button'}",21,57,Left,38.75106458711245,35.80602804255225,1.9375532293556228,0.5624397732635613,Left,Correct,0.0,0.0,-45,45,602,-1,-1
"{'cat': 'RB', 'resp': 'button'}",21,58,Left,36.16055266666288,53.097805148744925,1.808027633333144,0.8340583728851968,Left,Correct,0.0,0.0,-45,45,764,-1,-1
"{'cat': 'RB', 'resp': 'button'}",21,59,Right,62.9830791541638,26.146469547259414,3.14915395770819,0.41070778323489715,Right,Correct,0.0,0.0,-45,45,595,-1,-1
"{'cat': 'RB', 'resp': 'button'}",21,60,Left,38.18061613857715,16.6861522808616,1.9090308069288573,0.2621054671111769,Left,Correct,0.0,0.0,-45,45,819,-1,-1
"{'cat': 'RB', 'resp': 'button'}",21,61,Right,55.623373766894204,34.15308872745824,2.78116868834471,0.536475463217916,Right,Correct,0.0,0.0,-45,45,1267,-1,-1
"{'cat': 'RB', 'resp': 'button'}",21,62,Right,57.66766073001713,25.36009301141207,2.883383036500857,0.39835540949503007,Right,Correct,0.0,0.0,-45,45,657,-1,-1
"{'cat': 'RB', 'resp': 'button'}",21,63,Right,58.081659623974005,87.71862228861045,2.9040829811987003,1.3778808968245824,Right,Correct,0.0,0.0,-45,45,621,-1,-1
"{'cat': 'RB', 'resp': 'button'}",21,64,Left,46.159589028759896,53.739274418999024,2.307979451437995,0.8441345486198661,Left,Correct,0.0,0.0,-45,45,2141,-1,-1
"{'cat': 'RB', 'resp': 'button'}",21,65,Right,63.4514145234044,14.01230443006503,3.17257072617022,0.22010476328678003,Right,Correct,0.0,0.0,-45,45,754,-1,-1
"{'cat': 'RB', 'resp': 'button'}",21,66,Left,32.39681046873376,65.72883385604113,1.619840523436688,1.0324661078558144,Left,Correct,0.0,0.0,-45,45,637,-1,-1
"{'cat': 'RB', 'resp': 'button'}",21,67,Left,38.58057046384638,21.80033766639694,1.929028523192319,0.3424389032926473,Left,Correct,0.0,0.0,-45,45,938,-1,-1
"{'cat': 'RB', 'resp': 'button'}",21,68,Right,53.994510243959766,73.18598660872158,2.6997255121979884,1.1496027893784035,Right,Correct,0.0,0.0,-45,45,754,-1,-1
"{'cat': 'RB', 'resp': 'button'}",21,69,Right,66.71512926964029,53.943907717828765,3.335756463482014,0.8473489209612828,Right,Correct,0.0,0.0,-45,45,733,-1,-1
"{'cat': 'RB', 'resp': 'button'}",21,70,Left,43.09762156397608,45.407803979203706,2.154881078198804,0.7132641169835586,Left,Correct,0.0,0.0,-45,45,678,-1,-1
"{'cat': 'RB', 'resp': 'button'}",21,71,Right,61.61055970635874,17.606697260575046,3.080527985317937,0.2765653538390105,Right,Correct,0.0,0.0,-45,45,663,-1,-1
"{'cat': 'RB', 'resp': 'button'}",21,72,Right,63.55914840838172,54.947697866824306,3.1779574204190864,0.863116419750434,Right,Correct,0.0,0.0,-45,45,789,-1,-1
"{'cat': 'RB', 'resp': 'button'}",21,73,Right,57.69879494636764,81.65938803328065,2.884939747318382,1.2827026677099638,Right,Correct,0.0,0.0,-45,45,700,-1,-1
"{'cat': 'RB', 'resp': 'button'}",21,74,Left,39.68756174731009,31.143403013401258,1.9843780873655046,0.4891994305734381,Left,Correct,0.0,0.0,-45,45,706,-1,-1
"{'cat': 'RB', 'resp': 'button'}",21,75,Right,63.50296362221863,55.84964694386572,3.1751481811109317,0.8772842027221608,Right,Correct,0.0,0.0,-45,45,678,-1,-1
"{'cat': 'RB', 'resp': 'button'}",21,76,Right,53.9040285245066,23.97259125697359,2.69520142622533,0.37656058290209565,Right,Correct,0.0,0.0,-45,45,558,-1,-1
"{'cat': 'RB', 'resp': 'button'}",21,77,Right,60.13936319031442,76.01449993664497,3.0069681595157207,1.194032972836328,Right,Correct,0.0,0.0,-45,45,644,-1,-1
"{'cat': 'RB', 'resp': 'button'}",21,78,Right,57.755708816329765,15.207978055108214,2.8877854408164882,0.23888636066941377,Right,Correct,0.0,0.0,-45,45,710,-1,-1
"{'cat': 'RB', 'resp': 'button'}",21,79,Left,39.40995315353769,67.77435973123438,1.9704976576768845,1.0645971531669893,Left,Correct,0.0,0.0,-45,45,949,-1,-1
"{'cat': 'RB', 'resp': 'button'}",21,80,Left,38.282562605683516,42.41410964752937,1.914128130284176,0.6662392763861512,Left,Correct,0.0,0.0,-45,45,770,-1,-1
"{'cat': 'RB', 'resp': 'button'}",21,81,Right,59.54583765567291,23.65695434797516,2.977291882783646,0.37160256992953933,Right,Correct,0.0,0.0,-45,45,700,-1,-1
"{'cat': 'RB', 'resp': 'button'}",21,82,Right,52.770684687827426,61.93233632830387,2.6385342343913716,0.9728308641432585,Right,Correct,0.0,0.0,-45,45,681,-1,-1
"{'cat': 'RB', 'resp': 'button'}",21,83,Left,43.853364089430684,64.66193489541388,2.192668204471534,1.0157072981716686,Left,Correct,0.0,0.0,-45,45,688,-1,-1
"{'cat': 'RB', 'resp': 'button'}",21,84,Right,58.04885315885631,32.145106296747315,2.9024426579428155,0.5049341489536219,Right,Correct,0.0,0.0,-45,45,705,-1,-1
"{'cat': 'RB', 'resp': 'button'}",21,85,Right,62.869658398150406,33.42302957411968,3.1434829199075205,0.5250077208538438,Right,Correct,0.0,0.0,-45,45,884,-1,-1
"{'cat': 'RB', 'resp': 'button'}",21,86,Right,53.77327847896231,59.95098602395301,2.6886639239481154,0.9417078863415758,Right,Correct,0.0,0.0,-45,45,1150,-1,-1
"{'cat': 'RB', 'resp': 'button'}",21,87,Left,43.23786090708227,75.57339068011781,2.161893045354114,1.187104044837647,Left,Correct,0.0,0.0,-45,45,692,-1,-1
"{'cat': 'RB', 'resp': 'button'}",21,88,Left,38.22536859046736,47.831566859496014,1.911268429523368,0.7513364952774084,Left,Correct,0.0,0.0,-45,45,692,-1,-1
"{'cat': 'RB', 'resp': 'button'}",21,89,Right,64.0158702618691,65.03167446107328,3.200793513093455,1.0215151536877538,Right,Correct,0.0,0.0,-45,45,819,-1,-1
"{'cat': 'RB', 'resp': 'button'}",21,90,Right,60.195091982657985,81.85169888727904,3.009754599132899,1.2857234795405985,Right,Correct,0.0,0.0,-45,45,660,-1,-1
"{'cat': 'RB', 'resp': 'button'}",21,91,Right,62.4052656471112,14.780578915745416,3.12026328235556,0.23217279068754992,Right,Correct,0.0,0.0,-45,45,649,-1,-1
"{'cat': 'RB', 'resp': 'button'}",21,92,Left,47.977881083266205,40.337161937120825,2.39889405416331,0.6336146580416031,Left,Correct,0.0,0.0,-45,45,1377,-1,-1
"{'cat': 'RB', 'resp': 'button'}",21,93,Right,57.61887075790705,62.455766393245746,2.8809435378953525,0.9810528843767057,Right,Correct,0.0,0.0,-45,45,681,-1,-1
"{'cat': 'RB', 'resp': 'button'}",21,94,Right,61.931543136895534,29.69515741642319,3.096577156844777,0.46645044193313784,Right,Correct,0.0,0.0,-45,45,585,-1,-1
"{'cat': 'RB', 'resp': 'button'}",21,95,Left,44.84084076806646,58.2997179165447,2.242042038403323,0.9157698275648705,Left,Correct,0.0,0.0,-45,45,840,-1,-1
"{'cat': 'RB', 'resp': 'button'}",21,96,Right,68.80824884137532,59.926917384163104,3.440412442068766,0.9413298170318464,Right,Correct,0.0,0.0,-45,45,631,-1,-1
"{'cat': 'RB', 'resp': 'button'}",21,97,Right,58.55726771016614,27.012895288007424,2.927863385508307,0.42431756694497225,Right,Correct,0.0,0.0,-45,45,647,-1,-1
"{'cat': 'RB', 'resp': 'button'}",21,98,Left,32.82702760709537,23.68465794092831,1.6413513803547684,0.37203773695003767,Left,Correct,0.0,0.0,-45,45,652,-1,-1
"{'cat': 'RB', 'resp': 'button'}",21,99,Left,33.4358621618715,63.63114151163798,1.671793108093575,0.999515633562472,Left,Correct,0.0,0.0,-45,45,829,-1,-1
"{'cat': 'RB', 'resp': 'button'}",21,100,Right,62.233429608842414,86.58296470591387,3.1116714804421206,1.3600420292306168,Right,Correct,0.0,0.0,-45,45,570,-1,-1
"{'cat': 'RB', 'resp': 'button'}",21,101,Left,32.446989397793544,40.55538315185986,1.6223494698896772,0.637042468867011,Left,Correct,0.0,0.0,-45,45,723,-1,-1
"{'cat': 'RB', 'resp': 'button'}",21,102,Left,31.020744667917185,53.43749254252502,1.5510372333958593,0.8393941699892798,Left,Correct,0.0,0.0,-45,45,568,-1,-1
"{'cat': 'RB', 'resp': 'button'}",21,103,Left,40.59443145624766,78.66245780251393,2.029721572812383,1.2356269977284742,Left,Correct,0.0,0.0,-45,45,1064,-1,-1
"{'cat': 'RB', 'resp': 'button'}",21,104,Left,44.5218275178453,23.41592498773293,2.226091375892265,0.3678164895923572,Left,Correct,0.0,0.0,-45,45,822,-1,-1
"{'cat': 'RB', 'resp': 'button'}",21,105,Right,61.06977047198967,14.332673576145346,3.0534885235994835,0.22513711006559384,Right,Correct,0.0,0.0,-45,45,586,-1,-1
"{'cat': 'RB', 'resp': 'button'}",21,106,Left,39.37416055136205,15.902424665826643,1.9687080275681026,0.2497947025221305,Left,Correct,0.0,0.0,-45,45,652,-1,-1
"{'cat': 'RB', 'resp': 'button'}",21,107,Left,33.85624156603616,49.701445081589284,1.692812078301808,0.7807084737055873,Left,Correct,0.0,0.0,-45,45,677,-1,-1
"{'cat': 'RB', 'resp': 'button'}",21,108,Right,63.34098423506203,85.45096438848516,3.1670492117531017,1.3422606098251402,Right,Correct,0.0,0.0,-45,45,723,-1,-1
"{'cat': 'RB', 'resp': 'button'}",21,109,Right,62.05163379320514,53.71831721680318,3.102581689660257,0.8438053536575749,Right,Correct,0.0,0.0,-45,45,660,-1,-1
"{'cat': 'RB', 'resp': 'button'}",21,110,Left,43.55900997574777,37.19563247511501,2.1779504987873883,0.5842676286472362,Left,Correct,0.0,0.0,-45,45,735,-1,-1
"{'cat': 'RB', 'resp': 'button'}",21,111,Right,58.03398807574943,48.03741261993666,2.9016994037874713,0.7545699129212733,Right,Correct,0.0,0.0,-45,45,744,-1,-1
"{'cat': 'RB', 'resp': 'button'}",21,112,Right,61.05427273326843,51.37004274556609,3.0527136366634213,0.8069187445203203,Right,Correct,0.0,0.0,-45,45,758,-1,-1
"{'cat': 'RB', 'resp': 'button'}",21,113,Left,34.4872867739841,68.32308281713446,1.7243643386992051,1.0732164752445834,Left,Correct,0.0,0.0,-45,45,688,-1,-1
"{'cat': 'RB', 'resp': 'button'}",21,114,Left,38.49880592701041,40.899105790765695,1.9249402963505204,0.6424416514533063,Left,Correct,0.0,0.0,-45,45,1505,-1,-1
"{'cat': 'RB', 'resp': 'button'}",21,115,Right,64.94637013674355,43.778115092955815,3.2473185068371775,0.6876650238201921,Right,Correct,0.0,0.0,-45,45,598,-1,-1
"{'cat': 'RB', 'resp': 'button'}",21,116,Right,62.771583876194754,42.82619111033102,3.138579193809738,0.6727122368672421,Right,Correct,0.0,0.0,-45,45,877,-1,-1
"{'cat': 'RB', 'resp': 'button'}",21,117,Right,59.72668278515164,31.17187212250658,2.9863341392575817,0.48964662229353567,Right,Correct,0.0,0.0,-45,45,788,-1,-1
"{'cat': 'RB', 'resp': 'button'}",21,118,Right,59.20544668273436,88.07840716568333,2.960272334136718,1.3835323844580065,Right,Correct,0.0,0.0,-45,45,668,-1,-1
"{'cat': 'RB', 'resp': 'button'}",21,119,Right,64.30469227019671,83.34845596257452,3.2152346135098355,1.3092344847003825,Right,Correct,0.0,0.0,-45,45,713,-1,-1
"{'cat': 'RB', 'resp': 'button'}",21,120,Right,60.03416612033379,89.01384718162586,3.0017083060166896,1.3982262418678015,Right,Correct,0.0,0.0,-45,45,561,-1,-1
"{'cat': 'RB', 'resp': 'button'}",21,121,Right,59.983478844665456,73.29008625441719,2.9991739422332726,1.1512379827891968,Right,Correct,0.0,0.0,-45,45,635,-1,-1
"{'cat': 'RB', 'resp': 'button'}",21,122,Left,36.2666747332175,18.161275828189734,1.8133337366608748,0.2852766536082938,Left,Correct,0.0,0.0,-45,45,782,-1,-1
"{'cat': 'RB', 'resp': 'button'}",21,123,Right,66.08304630846945,21.271075939512116,3.304152315423472,0.33412527952760934,Right,Correct,0.0,0.0,-45,45,670,-1,-1
"{'cat': 'RB', 'resp': 'button'}",21,124,Right,54.52135837828907,20.55387818227998,2.726067918914454,0.3228595635011516,Right,Correct,0.0,0.0,-45,45,5194,-1,-1
"{'cat': 'RB', 'resp': 'button'}",21,125,Left,39.238571280980175,65.94695852595125,1.9619285640490087,1.0358924021585958,Left,Correct,0.0,0.0,-45,45,673,-1,-1
"{'cat': 'RB', 'resp': 'button'}",21,126,Left,42.00050984849309,79.5633636240087,2.1000254924246544,1.2497783932803954,Left,Correct,0.0,0.0,-45,45,1040,-1,-1
"{'cat': 'RB', 'resp': 'button'}",21,127,Right,57.738803915315216,63.46586644564853,2.8869401957657606,0.996919498896802,Right,Correct,0.0,0.0,-45,45,599,-1,-1
"{'cat': 'RB', 'resp': 'button'}",21,128,Left,33.17659889054661,63.19994565437417,1.6588299445273305,0.9927424248752803,Left,Correct,0.0,0.0,-45,45,708,-1,-1
"{'cat': 'RB', 'resp': 'button'}",21,129,Right,54.62087356178755,30.85202443200867,2.7310436780893776,0.48462246651985624,Right,Correct,0.0,0.0,-45,45,1123,-1,-1
"{'cat': 'RB', 'resp': 'button'}",21,130,Left,46.14443706886219,34.32402566494232,2.3072218534431097,0.5391605343530516,Left,Correct,0.0,0.0,-45,45,1129,-1,-1
"{'cat': 'RB', 'resp': 'button'}",21,131,Left,38.76193988808142,54.88619236646967,1.9380969944040711,0.8621502936100864,Left,Correct,0.0,0.0,-45,45,1006,-1,-1
"{'cat': 'RB', 'resp': 'button'}",21,132,Left,42.227180462541426,75.5411257249026,2.111359023127071,1.1865972281062847,Left,Correct,0.0,0.0,-45,45,678,-1,-1
"{'cat': 'RB', 'resp': 'button'}",21,133,Left,47.383742076942994,39.92104529071342,2.3691871038471497,0.6270783130446534,Left,Correct,0.0,0.0,-45,45,2294,-1,-1
"{'cat': 'RB', 'resp': 'button'}",21,134,Left,45.47374634241323,49.423331011030946,2.2736873171206615,0.7763398681009571,Left,Correct,0.0,0.0,-45,45,3487,-1,-1
"{'cat': 'RB', 'resp': 'button'}",21,135,Left,40.30418282196441,63.95179707781887,2.0152091410982207,1.0045524794177048,Left,Correct,0.0,0.0,-45,45,1119,-1,-1
"{'cat': 'RB', 'resp': 'button'}",21,136,Right,64.9361346363149,79.68217848092866,3.2468067318157456,1.251644732688581,Right,Correct,0.0,0.0,-45,45,698,-1,-1
"{'cat': 'RB', 'resp': 'button'}",21,137,Right,61.62636228245702,62.00132702423419,3.081318114122851,0.9739145674607621,Right,Correct,0.0,0.0,-45,45,634,-1,-1
"{'cat': 'RB', 'resp': 'button'}",21,138,Left,37.394598573734655,57.46818793664765,1.8697299286867326,0.9027081851844492,Left,Correct,0.0,0.0,-45,45,809,-1,-1
"{'cat': 'RB', 'resp': 'button'}",21,139,Right,64.76634398960441,47.65973965905508,3.2383171994802207,0.7486374399244476,Right,Correct,0.0,0.0,-45,45,1033,-1,-1
"{'cat': 'RB', 'resp': 'button'}",21,140,Left,39.16848087340629,49.388798250552654,1.9584240436703144,0.7757974287678231,Left,Correct,0.0,0.0,-45,45,712,-1,-1
"{'cat': 'RB', 'resp': 'button'}",21,141,Right,54.42855948891003,61.26354208360072,2.721427974445502,0.9623254687136457,Right,Correct,0.0,0.0,-45,45,1097,-1,-1
"{'cat': 'RB', 'resp': 'button'}",21,142,Right,64.46147566614778,44.31461781176501,3.2230737833073886,0.6960923888204018,Right,Correct,0.0,0.0,-45,45,1002,-1,-1
"{'cat': 'RB', 'resp': 'button'}",21,143,Right,60.7594512856573,52.032591337750354,3.037972564282865,0.8173260334695821,Right,Correct,0.0,0.0,-45,45,732,-1,-1
"{'cat': 'RB', 'resp': 'button'}",21,144,Left,31.89717977682102,42.48782342529074,1.594858988841051,0.6673971696995685,Left,Correct,0.0,0.0,-45,45,663,-1,-1
"{'cat': 'RB', 'resp': 'button'}",21,145,Right,61.801114542182404,18.204537473111685,3.09005572710912,0.2859562059376389,Right,Correct,0.0,0.0,-45,45,1577,-1,-1
"{'cat': 'RB', 'resp': 'button'}",21,146,Right,60.32515459209107,85.5029332907434,3.016257729604553,1.343076935432888,Right,Correct,0.0,0.0,-45,45,665,-1,-1
"{'cat': 'RB', 'resp': 'button'}",21,147,Left,36.03892027960612,47.84947400970648,1.8019460139803058,0.7516177801351481,Left,Correct,0.0,0.0,-45,45,893,-1,-1
"{'cat': 'RB', 'resp': 'button'}",21,148,Right,60.41251097030945,27.436444866921992,3.0206255485154725,0.43097066817271756,Right,Correct,0.0,0.0,-45,45,1264,-1,-1
"{'cat': 'RB', 'resp': 'button'}",21,149,Left,40.2280121813321,56.01033173477877,2.011400609066605,0.8798082335155412,Left,Correct,0.0,0.0,-45,45,747,-1,-1
"{'cat': 'RB', 'resp': 'button'}",21,150,Left,45.335750972866045,20.685014265502982,2.2667875486433022,0.3249194442795212,Left,Correct,0.0,0.0,-45,45,1166,-1,-1
"{'cat': 'RB', 'resp': 'button'}",21,151,Left,40.80655262089442,78.28943311693588,2.040327631044721,1.2297675396693761,Left,Correct,0.0,0.0,-45,45,742,-1,-1
"{'cat': 'RB', 'resp': 'button'}",21,152,Right,56.882303797781404,30.09684318992373,2.84411518988907,0.4727601073085419,Right,Correct,0.0,0.0,-45,45,607,-1,-1
"{'cat': 'RB', 'resp': 'button'}",21,153,Left,37.10832990037208,37.44172930963927,1.8554164950186038,0.5881333086843018,Left,Correct,0.0,0.0,-45,45,712,-1,-1
"{'cat': 'RB', 'resp': 'button'}",21,154,Left,33.73105764811415,59.224445654496925,1.6865528824057077,0.9302954169054775,Left,Correct,0.0,0.0,-45,45,720,-1,-1
"{'cat': 'RB', 'resp': 'button'}",21,155,Left,37.5961463376338,34.64879817938901,1.8798073168816898,0.5442620490804196,Left,Correct,0.0,0.0,-45,45,724,-1,-1
"{'cat': 'RB', 'resp': 'button'}",21,156,Left,43.52441021029602,50.068554557994595,2.176220510514801,0.7864750158762779,Left,Correct,0.0,0.0,-45,45,781,-1,-1
"{'cat': 'RB', 'resp': 'button'}",21,157,Right,66.18115487549214,43.211847710759535,3.3090577437746074,0.6787701165808154,Right,Correct,0.0,0.0,-45,45,866,-1,-1
"{'cat': 'RB', 'resp': 'button'}",21,158,Right,63.38199988562275,82.09267216991938,3.1690999942811375,1.2895086790128698,Right,Correct,0.0,0.0,-45,45,1278,-1,-1
"{'cat': 'RB', 'resp': 'button'}",21,159,Left,32.333429319829065,58.76119715239174,1.6166714659914532,0.9230187264504769,Left,Correct,0.0,0.0,-45,45,597,-1,-1
"{'cat': 'RB', 'resp': 'button'}",21,160,Right,56.7557754457008,26.10544800745897,2.8377887722850397,0.4100634183945171,Right,Correct,0.0,0.0,-45,45,1005,-1,-1
"{'cat': 'RB', 'resp': 'button'}",21,161,Right,53.88992551286876,20.191864999922068,2.6944962756434383,0.3171730737301602,Right,Correct,0.0,0.0,-45,45,664,-1,-1
"{'cat': 'RB', 'resp': 'button'}",21,162,Right,61.37703839982463,88.99596629799692,3.0688519199912316,1.3979453696045598,Right,Correct,0.0,0.0,-45,45,697,-1,-1
"{'cat': 'RB', 'resp': 'button'}",21,163,Left,48.12993057164639,48.68539441024715,2.4064965285823194,0.7647483870817701,Left,Correct,0.0,0.0,-45,45,618,-1,-1
"{'cat': 'RB', 'resp': 'button'}",21,164,Right,63.37053071960555,50.65607439089807,3.1685265359802774,0.7957037558307172,Right,Correct,0.0,0.0,-45,45,666,-1,-1
"{'cat': 'RB', 'resp': 'button'}",21,165,Left,35.850458531306934,62.95168478190561,1.7925229265653468,0.9888427522096753,Left,Correct,0.0,0.0,-45,45,592,-1,-1
"{'cat': 'RB', 'resp': 'button'}",21,166,Left,48.22860744623067,49.29350643213479,2.411430372311534,0.7743005883843793,Left,Correct,0.0,0.0,-45,45,924,-1,-1
"{'cat': 'RB', 'resp': 'button'}",21,167,Right,59.553215085983204,31.882806871003897,2.97766075429916,0.5008139592088402,Right,Correct,0.0,0.0,-45,45,840,-1,-1
"{'cat': 'RB', 'resp': 'button'}",21,168,Left,40.376417747851164,59.5542174216554,2.0188208873925584,0.9354754597108094,Left,Correct,0.0,0.0,-45,45,672,-1,-1
"{'cat': 'RB', 'resp': 'button'}",21,169,Left,31.41097628153461,43.694748846602266,1.5705488140767303,0.6863555098846839,Left,Correct,0.0,0.0,-45,45,734,-1,-1
"{'cat': 'RB', 'resp': 'button'}",21,170,Right,58.11778049868552,46.90830648406088,2.905889024934276,0.7368339552133206,Right,Correct,0.0,0.0,-45,45,1011,-1,-1
"{'cat': 'RB', 'resp': 'button'}",21,171,Left,43.135376775200136,13.379147046191342,2.156768838760007,0.2101591503580615,Left,Correct,0.0,0.0,-45,45,1666,-1,-1
"{'cat': 'RB', 'resp': 'button'}",21,172,Right,58.41571408949113,69.63632624886188,2.9207857044745564,1.0938448548320328,Right,Correct,0.0,0.0,-45,45,1027,-1,-1
"{'cat': 'RB', 'resp': 'button'}",21,173,Right,54.74208975559525,39.51565467319135,2.7371044877797623,0.6207104521154456,Right,Correct,0.0,0.0,-45,45,853,-1,-1
"{'cat': 'RB', 'resp': 'button'}",21,174,Left,41.51460545866683,42.192444324884434,2.0757302729333413,0.6627573656402664,Left,Correct,0.0,0.0,-45,45,1207,-1,-1
"{'cat': 'RB', 'resp': 'button'}",21,175,Left,47.70021570738888,54.78955614278263,2.385010785369444,0.8606323353580572,Left,Correct,0.0,0.0,-45,45,1531,-1,-1
"{'cat': 'RB', 'resp': 'button'}",21,176,Left,39.06069895882954,47.23334110624248,1.953034947941477,0.7419395871193608,Left,Correct,0.0,0.0,-45,45,813,-1,-1
"{'cat': 'RB', 'resp': 'button'}",21,177,Right,67.29086093760486,55.119181809237304,3.364543046880243,0.8658100832189004,Right,Correct,0.0,0.0,-45,45,668,-1,-1
"{'cat': 'RB', 'resp': 'button'}",21,178,Left,31.437155573650116,62.736750237501006,1.5718577786825056,0.9854665682811543,Left,Correct,0.0,0.0,-45,45,667,-1,-1
"{'cat': 'RB', 'resp': 'button'}",21,179,Left,38.74100526381272,31.021937998122603,1.937050263190636,0.4872914625751001,Left,Correct,0.0,0.0,-45,45,949,-1,-1
"{'cat': 'RB', 'resp': 'button'}",21,180,Right,59.85336802197707,30.903212359012823,2.9926684010988533,0.485426524597,Right,Correct,0.0,0.0,-45,45,821,-1,-1
"{'cat': 'RB', 'resp': 'button'}",21,181,Left,37.33584554780114,64.67242878836026,1.8667922773900572,1.015872135856608,Left,Correct,0.0,0.0,-45,45,1020,-1,-1
"{'cat': 'RB', 'resp': 'button'}",21,182,Right,56.452203547685784,51.37159064981231,2.822610177384289,0.8069430589433623,Right,Correct,0.0,0.0,-45,45,978,-1,-1
"{'cat': 'RB', 'resp': 'button'}",21,183,Right,59.34069986661866,20.34337479954472,2.967034993330933,0.31955298409736704,Right,Correct,0.0,0.0,-45,45,1406,-1,-1
"{'cat': 'RB', 'resp': 'button'}",21,184,Left,32.09027589962096,53.52302029931471,1.6045137949810482,0.8407376368513223,Left,Correct,0.0,0.0,-45,45,666,-1,-1
"{'cat': 'RB', 'resp': 'button'}",21,185,Left,33.717433388789274,56.084046899346035,1.6858716694394638,0.8809661486128546,Left,Correct,0.0,0.0,-45,45,657,-1,-1
"{'cat': 'RB', 'resp': 'button'}",21,186,Left,31.182234202365194,62.9779470676153,1.5591117101182597,0.9892552792289352,Left,Correct,0.0,0.0,-45,45,585,-1,-1
"{'cat': 'RB', 'resp': 'button'}",21,187,Left,48.785528898057535,46.18388369069125,2.4392764449028768,0.7254547485846056,Right,Incorrect,0.0,0.0,-45,45,759,-1,-1
"{'cat': 'RB', 'resp': 'button'}",21,188,Left,46.404737997063634,36.14631709446262,2.3202368998531817,0.5677850211914545,Left,Correct,0.0,0.0,-45,45,1247,-1,-1
"{'cat': 'RB', 'resp': 'button'}",21,189,Left,43.75738897775862,66.20482061701225,2.1878694488879313,1.0399428904131787,Left,Correct,0.0,0.0,-45,45,614,-1,-1
"{'cat': 'RB', 'resp': 'button'}",21,190,Right,64.31087958819947,43.50006435230864,3.2155439794099734,0.6832974129994802,Right,Correct,0.0,0.0,-45,45,825,-1,-1
"{'cat': 'RB', 'resp': 'button'}",21,191,Left,36.5715855843398,15.610095564774404,1.82857927921699,0.24520280774064937,Left,Correct,0.0,0.0,-45,45,731,-1,-1
"{'cat': 'RB', 'resp': 'button'}",21,192,Right,56.63160970627922,69.97257369108175,2.8315804853139612,1.0991266173033643,Right,Correct,0.0,0.0,-45,45,955,-1,-1
"{'cat': 'RB', 'resp': 'button'}",21,193,Left,48.54590089186792,33.81253207825934,2.427295044593396,0.5311260118816438,Left,Correct,0.0,0.0,-45,45,786,-1,-1
"{'cat': 'RB', 'resp': 'button'}",21,194,Left,39.8584028350633,57.724655751897906,1.9929201417531652,0.9067367722058113,Left,Correct,0.0,0.0,-45,45,558,-1,-1
"{'cat': 'RB', 'resp': 'button'}",21,195,Right,56.34780217511948,28.346510149691692,2.817390108755974,0.4452659402058996,Right,Correct,0.0,0.0,-45,45,1590,-1,-1
"{'cat': 'RB', 'resp': 'button'}",21,196,Left,41.40935078496341,26.751947273037747,2.0704675392481704,0.4202186051109844,Left,Correct,0.0,0.0,-45,45,1123,-1,-1
"{'cat': 'RB', 'resp': 'button'}",21,197,Right,51.089577075015704,50.113137921903345,2.554478853750785,0.7871753297189182,Left,Incorrect,0.0,0.0,-45,45,692,-1,-1
"{'cat': 'RB', 'resp': 'button'}",21,198,Left,46.04526639604573,19.169841667401776,2.302263319802287,0.3011191687639446,Left,Correct,0.0,0.0,-45,45,1432,-1,-1
"{'cat': 'RB', 'resp': 'button'}",21,199,Right,61.474508122671274,67.58117496744462,3.0737254061335637,1.0615626139934522,Right,Correct,0.0,0.0,-45,45,647,-1,-1
"{'cat': 'RB', 'resp': 'button'}",21,200,Right,61.62085851952443,80.97395166505558,3.0810429259762215,1.2719358584153682,Right,Correct,0.0,0.0,-45,45,650,-1,-1
"{'cat': 'RB', 'resp': 'button'}",21,201,Left,36.39245128617854,40.57894745429735,1.819622564308927,0.637412616064134,Left,Correct,0.0,0.0,-45,45,688,-1,-1
"{'cat': 'RB', 'resp': 'button'}",21,202,Left,33.02475338869323,32.70703599481125,1.6512376694346613,0.5137609200099797,Left,Correct,0.0,0.0,-45,45,693,-1,-1
"{'cat': 'RB', 'resp': 'button'}",21,203,Left,35.801038316109135,61.119284117883524,1.7900519158054566,0.9600594698870509,Left,Correct,0.0,0.0,-45,45,678,-1,-1
"{'cat': 'RB', 'resp': 'button'}",21,204,Right,66.09757800909475,56.0991498091737,3.304878900454737,0.8812033845656667,Right,Correct,0.0,0.0,-45,45,811,-1,-1
"{'cat': 'RB', 'resp': 'button'}",21,205,Left,35.15522157200334,61.50746401656314,1.7577610786001672,0.9661569854768666,Left,Correct,0.0,0.0,-45,45,667,-1,-1
"{'cat': 'RB', 'resp': 'button'}",21,206,Right,58.661215947582065,30.249206635497426,2.933060797379103,0.47515342671499167,Right,Correct,0.0,0.0,-45,45,865,-1,-1
"{'cat': 'RB', 'resp': 'button'}",21,207,Left,32.364869424732596,60.688711218246446,1.6182434712366298,0.9532960465953775,Left,Correct,0.0,0.0,-45,45,673,-1,-1
"{'cat': 'RB', 'resp': 'button'}",21,208,Left,31.719239361377127,50.76492899466515,1.5859619680688564,0.7974136399482376,Left,Correct,0.0,0.0,-45,45,777,-1,-1
"{'cat': 'RB', 'resp': 'button'}",21,209,Left,47.50876703048318,26.427617178189593,2.3754383515241586,0.41512403989441915,Left,Correct,0.0,0.0,-45,45,1292,-1,-1
"{'cat': 'RB', 'resp': 'button'}",21,210,Right,55.54816255014124,39.82230820668843,2.777408127507062,0.6255273545556045,Right,Correct,0.0,0.0,-45,45,715,-1,-1
"{'cat': 'RB', 'resp': 'button'}",21,211,Left,40.9180723969747,84.34872178320848,2.045903619848735,1.3249466234690854,Left,Correct,0.0,0.0,-45,45,998,-1,-1
"{'cat': 'RB', 'resp': 'button'}",21,212,Right,53.18266124043208,32.71516723072909,2.659133062021604,0.5138886451651002,Right,Correct,0.0,0.0,-45,45,748,-1,-1
"{'cat': 'RB', 'resp': 'button'}",21,213,Right,61.140873373039796,65.06591075261602,3.0570436686519895,1.022052936097738,Right,Correct,0.0,0.0,-45,45,750,-1,-1
"{'cat': 'RB', 'resp': 'button'}",21,214,Left,46.115014420485,71.50977168365729,2.30575072102425,1.123272866906306,Left,Correct,0.0,0.0,-45,45,1044,-1,-1
"{'cat': 'RB', 'resp': 'button'}",21,215,Right,59.86886191641301,51.58170577187755,2.9934430958206506,0.8102435395628037,Right,Correct,0.0,0.0,-45,45,1030,-1,-1
"{'cat': 'RB', 'resp': 'button'}",21,216,Right,56.70200358023233,29.84082043020364,2.8351001790116164,0.46873851120309984,Right,Correct,0.0,0.0,-45,45,823,-1,-1
"{'cat': 'RB', 'resp': 'button'}",21,217,Right,59.75933247734321,54.88713615949179,2.9879666238671603,0.8621651186762105,Right,Correct,0.0,0.0,-45,45,752,-1,-1
"{'cat': 'RB', 'resp': 'button'}",21,218,Left,31.191367931582896,47.238283037132106,1.559568396579145,0.7420172147882478,Left,Correct,0.0,0.0,-45,45,741,-1,-1
"{'cat': 'RB', 'resp': 'button'}",21,219,Right,58.33825266740362,36.66576642584956,2.9169126333701807,0.5759445122084413,Right,Correct,0.0,0.0,-45,45,754,-1,-1
"{'cat': 'RB', 'resp': 'button'}",21,220,Left,37.47212359845673,83.6042085578334,1.8736061799228367,1.3132518370723916,Left,Correct,0.0,0.0,-45,45,1013,-1,-1
"{'cat': 'RB', 'resp': 'button'}",21,221,Right,64.597258832288,66.97685648619309,3.2298629416144,1.0520700014878104,Right,Correct,0.0,0.0,-45,45,619,-1,-1
"{'cat': 'RB', 'resp': 'button'}",21,222,Left,42.195533123856016,51.38491069823196,2.109776656192801,0.8071522897746655,Left,Correct,0.0,0.0,-45,45,829,-1,-1
"{'cat': 'RB', 'resp': 'button'}",21,223,Right,58.27962959600849,67.20004585477946,2.9139814798004244,1.0555758518913618,Right,Correct,0.0,0.0,-45,45,875,-1,-1
"{'cat': 'RB', 'resp': 'button'}",21,224,Left,34.07903005132255,79.301812424752,1.7039515025661274,1.2456699566497833,Left,Correct,0.0,0.0,-45,45,854,-1,-1
"{'cat': 'RB', 'resp': 'button'}",21,225,Left,45.02866990452143,35.93177356052165,2.2514334952260713,0.5644149792409339,Left,Correct,0.0,0.0,-45,45,1243,-1,-1
"{'cat': 'RB', 'resp': 'button'}",21,226,Right,68.02409889852602,32.54069170244338,3.4012049449263007,0.5111479899756323,Right,Correct,0.0,0.0,-45,45,987,-1,-1
"{'cat': 'RB', 'resp': 'button'}",21,227,Right,56.256168411148764,22.590116899096618,2.8128084205574386,0.35484472646968285,Right,Correct,0.0,0.0,-45,45,3984,-1,-1
"{'cat': 'RB', 'resp': 'button'}",21,228,Right,68.73600078999016,49.68086814159515,3.436800039499508,0.7803852518879926,Right,Correct,0.0,0.0,-45,45,1014,-1,-1
"{'cat': 'RB', 'resp': 'button'}",21,229,Right,67.13423112494225,40.366991592930006,3.356711556247112,0.6340832211793492,Right,Correct,0.0,0.0,-45,45,762,-1,-1
"{'cat': 'RB', 'resp': 'button'}",21,230,Right,53.875049340814094,32.837776799611675,2.6937524670407047,0.5158145917694069,Right,Correct,0.0,0.0,-45,45,1396,-1,-1
"{'cat': 'RB', 'resp': 'button'}",21,231,Left,32.980083378274195,38.5340487570641,1.6490041689137098,0.6052914224413174,Left,Correct,0.0,0.0,-45,45,639,-1,-1
"{'cat': 'RB', 'resp': 'button'}",21,232,Right,51.77437188482999,57.95559742729667,2.588718594241499,0.9103643955600136,Left,Incorrect,0.0,0.0,-45,45,2343,-1,-1
"{'cat': 'RB', 'resp': 'button'}",21,233,Left,39.64906146199676,18.28610077221988,1.9824530730998378,0.28723739924404307,Right,Incorrect,0.0,0.0,-45,45,2356,-1,-1
"{'cat': 'RB', 'resp': 'button'}",21,234,Left,40.41615156826724,31.485456547473415,2.020807578413362,0.49457239492231564,Left,Correct,0.0,0.0,-45,45,741,-1,-1
"{'cat': 'RB', 'resp': 'button'}",21,235,Left,40.33497050502075,62.34562762888348,2.0167485252510375,0.9793228287117259,Left,Correct,0.0,0.0,-45,45,688,-1,-1
"{'cat': 'RB', 'resp': 'button'}",21,236,Left,42.57045028848594,17.76616930500557,2.1285225144242967,0.2790703348551899,Left,Correct,0.0,0.0,-45,45,700,-1,-1
"{'cat': 'RB', 'resp': 'button'}",21,237,Left,44.89324937937919,72.91445041908835,2.2446624689689596,1.1453375088857256,Left,Correct,0.0,0.0,-45,45,1134,-1,-1
"{'cat': 'RB', 'resp': 'button'}",21,238,Left,46.19724823384956,81.17000319224664,2.3098624116924777,1.2750154286031106,Left,Correct,0.0,0.0,-45,45,650,-1,-1
"{'cat': 'RB', 'resp': 'button'}",21,239,Right,67.93354982072862,72.60456562080894,3.3966774910364306,1.1404698498570573,Right,Correct,0.0,0.0,-45,45,650,-1,-1
"{'cat': 'RB', 'resp': 'button'}",21,240,Right,59.55863327262652,52.220624400322265,2.977931663631326,0.8202796499096215,Right,Correct,0.0,0.0,-45,45,615,-1,-1
"{'cat': 'RB', 'resp': 'button'}",21,241,Left,43.387629073318095,63.13542079400281,2.169381453665905,0.9917288707386974,Left,Correct,0.0,0.0,-45,45,771,-1,-1
"{'cat': 'RB', 'resp': 'button'}",21,242,Right,61.01068578907493,26.49519420571272,3.0505342894537466,0.4161855373605097,Right,Correct,0.0,0.0,-45,45,900,-1,-1
"{'cat': 'RB', 'resp': 'button'}",21,243,Right,51.2970587781118,61.99332590309927,2.56485293890559,0.9737888861438726,Left,Incorrect,0.0,0.0,-45,45,1595,-1,-1
"{'cat': 'RB', 'resp': 'button'}",21,244,Left,36.27993298555073,34.241839344825365,1.8139966492775363,0.5378695546555264,Left,Correct,0.0,0.0,-45,45,720,-1,-1
"{'cat': 'RB', 'resp': 'button'}",21,245,Right,58.50412433669694,68.62559236117039,2.925206216834847,1.0779682840505036,Right,Correct,0.0,0.0,-45,45,624,-1,-1
"{'cat': 'RB', 'resp': 'button'}",21,246,Left,37.17007716945587,39.50339541439577,1.8585038584727938,0.6205178841285923,Left,Correct,0.0,0.0,-45,45,1077,-1,-1
"{'cat': 'RB', 'resp': 'button'}",21,247,Left,34.22229222574051,47.610967471882,1.7111146112870257,0.7478713281998356,Left,Correct,0.0,0.0,-45,45,917,-1,-1
"{'cat': 'RB', 'resp': 'button'}",21,248,Left,33.94798964070177,74.11829582910887,1.6973994820350884,1.1642474683666173,Left,Correct,0.0,0.0,-45,45,621,-1,-1
"{'cat': 'RB', 'resp': 'button'}",21,249,Left,41.420008424293854,51.584883309688934,2.0710004212146926,0.8102934522100274,Left,Correct,0.0,0.0,-45,45,645,-1,-1
"{'cat': 'RB', 'resp': 'button'}",21,250,Right,64.66422495019926,18.931504950366268,3.2332112475099626,0.2973753843673473,Right,Correct,0.0,0.0,-45,45,608,-1,-1
"{'cat': 'RB', 'resp': 'button'}",21,251,Right,64.74527199540395,39.14087897917253,3.237263599770198,0.6148234892800778,Right,Correct,0.0,0.0,-45,45,1136,-1,-1
"{'cat': 'RB', 'resp': 'button'}",21,252,Right,56.57587809452838,30.336685976687114,2.828793904726419,0.4765275489931037,Right,Correct,0.0,0.0,-45,45,679,-1,-1
"{'cat': 'RB', 'resp': 'button'}",21,253,Left,38.6137562171387,47.389079917917925,1.930687810856935,0.7443859266525528,Left,Correct,0.0,0.0,-45,45,1191,-1,-1
"{'cat': 'RB', 'resp': 'button'}",21,254,Right,55.31801963874643,29.83194086830727,2.7659009819373215,0.4685990313709962,Right,Correct,0.0,0.0,-45,45,1349,-1,-1
"{'cat': 'RB', 'resp': 'button'}",21,255,Right,64.54903754143554,84.65011699382093,3.2274518770717773,1.3296809283665219,Right,Correct,0.0,0.0,-45,45,740,-1,-1
"{'cat': 'RB', 'resp': 'button'}",21,256,Right,62.2612543988634,21.730990578017934,3.11306271994317,0.3413496017756507,Right,Correct,0.0,0.0,-45,45,951,-1,-1
"{'cat': 'RB', 'resp': 'button'}",21,257,Right,63.257066009211044,56.734210867261154,3.162853300460552,0.8911789003390093,Right,Correct,0.0,0.0,-45,45,883,-1,-1
"{'cat': 'RB', 'resp': 'button'}",21,258,Right,62.85352817766393,39.38839170525408,3.1426764088831964,0.6187114100897169,Right,Correct,0.0,0.0,-45,45,602,-1,-1
"{'cat': 'RB', 'resp': 'button'}",21,259,Left,36.48757467648657,86.05048981821335,1.8243787338243282,1.351677933253512,Left,Correct,0.0,0.0,-45,45,895,-1,-1
"{'cat': 'RB', 'resp': 'button'}",21,260,Left,41.018480788729356,24.115884299451903,2.050924039436468,0.37881142474989765,Left,Correct,0.0,0.0,-45,45,768,-1,-1
"{'cat': 'RB', 'resp': 'button'}",21,261,Right,57.604956645690564,48.92462334252344,2.880247832284528,0.7685061863625967,Right,Correct,0.0,0.0,-45,45,3110,-1,-1
"{'cat': 'RB', 'resp': 'button'}",21,262,Right,56.01822064305078,40.10741349928584,2.800911032152539,0.6300057780192224,Right,Correct,0.0,0.0,-45,45,686,-1,-1
"{'cat': 'RB', 'resp': 'button'}",21,263,Left,42.60845811357059,35.123421069635015,2.1304229056785293,0.5517174080065316,Left,Correct,0.0,0.0,-45,45,981,-1,-1
"{'cat': 'RB', 'resp': 'button'}",21,264,Right,57.518682903048436,32.63612185315132,2.8759341451524216,0.5126470032776075,Right,Correct,0.0,0.0,-45,45,881,-1,-1
"{'cat': 'RB', 'resp': 'button'}",21,265,Right,61.246076050272016,16.918224985751294,3.062303802513601,0.26575085663507775,Right,Correct,0.0,0.0,-45,45,1064,-1,-1
"{'cat': 'RB', 'resp': 'button'}",21,266,Left,44.09035790711941,57.266057970735666,2.2045178953559708,0.899533135104552,Left,Correct,0.0,0.0,-45,45,2641,-1,-1
"{'cat': 'RB', 'resp': 'button'}",21,267,Left,38.64019296097013,82.4883381218303,1.9320096480485065,1.2957237852518646,Left,Correct,0.0,0.0,-45,45,838,-1,-1
"{'cat': 'RB', 'resp': 'button'}",21,268,Left,47.75409684740323,39.88170397115748,2.3877048423701615,0.6264603410421561,Right,Incorrect,0.0,0.0,-45,45,2016,-1,-1
"{'cat': 'RB', 'resp': 'button'}",21,269,Right,59.72158727594237,49.625761314791134,2.986079363797119,0.7795196358767418,Right,Correct,0.0,0.0,-45,45,1030,-1,-1
"{'cat': 'RB', 'resp': 'button'}",21,270,Right,61.21121034710881,67.15849302486701,3.0605605173554404,1.0549231415654179,Right,Correct,0.0,0.0,-45,45,926,-1,-1
"{'cat': 'RB', 'resp': 'button'}",21,271,Left,46.77384687483597,49.908216332527125,2.338692343741798,0.7839564289201866,Right,Incorrect,0.0,0.0,-45,45,1508,-1,-1
"{'cat': 'RB', 'resp': 'button'}",21,272,Right,56.998159374242405,29.917806832114202,2.8499079687121203,0.46994781077644254,Right,Correct,0.0,0.0,-45,45,920,-1,-1
"{'cat': 'RB', 'resp': 'button'}",21,273,Left,40.272981118356945,44.738554802344986,2.0136490559178473,0.7027515754963568,Left,Correct,0.0,0.0,-45,45,651,-1,-1
"{'cat': 'RB', 'resp': 'button'}",21,274,Left,42.03323045612422,35.890274042832964,2.101661522806211,0.5637631063414424,Left,Correct,0.0,0.0,-45,45,873,-1,-1
"{'cat': 'RB', 'resp': 'button'}",21,275,Left,43.80238802676448,45.62422833205919,2.190119401338224,0.7166637027685022,Right,Incorrect,0.0,0.0,-45,45,2363,-1,-1
"{'cat': 'RB', 'resp': 'button'}",21,276,Right,60.51185881830523,10.464832563767708,3.0255929409152613,0.16438120551689933,Right,Correct,0.0,0.0,-45,45,748,-1,-1
"{'cat': 'RB', 'resp': 'button'}",21,277,Right,63.21938989780312,29.236849399700215,3.1609694948901557,0.4592513564410467,Right,Correct,0.0,0.0,-45,45,758,-1,-1
"{'cat': 'RB', 'resp': 'button'}",21,278,Left,44.3776516300008,59.454252272796964,2.21888258150004,0.933905210824466,Left,Correct,0.0,0.0,-45,45,751,-1,-1
"{'cat': 'RB', 'resp': 'button'}",21,279,Right,56.74576812557086,72.3083263899165,2.8372884062785433,1.1358165348996732,Right,Correct,0.0,0.0,-45,45,765,-1,-1
"{'cat': 'RB', 'resp': 'button'}",21,280,Left,43.86531258517094,15.348719420591259,2.1932656292585473,0.24109712086870239,Left,Correct,0.0,0.0,-45,45,994,-1,-1
"{'cat': 'RB', 'resp': 'button'}",21,281,Right,65.0152193791249,32.203900150333695,3.250760968956245,0.5058576806461379,Right,Correct,0.0,0.0,-45,45,756,-1,-1
"{'cat': 'RB', 'resp': 'button'}",21,282,Left,46.359013220017346,31.145634398038712,2.317950661000867,0.48923448108135986,Left,Correct,0.0,0.0,-45,45,1438,-1,-1
"{'cat': 'RB', 'resp': 'button'}",21,283,Left,40.04956386058212,65.62982806057349,2.002478193029106,1.0309109284572946,Left,Correct,0.0,0.0,-45,45,780,-1,-1
"{'cat': 'RB', 'resp': 'button'}",21,284,Left,34.339611606210575,20.408083687124883,1.716980580310529,0.32056942892658613,Left,Correct,0.0,0.0,-45,45,743,-1,-1
"{'cat': 'RB', 'resp': 'button'}",21,285,Right,57.736196131924295,28.936053164404807,2.8868098065962147,0.4545264602258891,Right,Correct,0.0,0.0,-45,45,724,-1,-1
"{'cat': 'RB', 'resp': 'button'}",21,286,Left,37.40978020240921,83.71863939417089,1.8704890101204603,1.3150493124463019,Left,Correct,0.0,0.0,-45,45,849,-1,-1
"{'cat': 'RB', 'resp': 'button'}",21,287,Left,36.47484838888922,84.91260123611531,1.8237424194444611,1.3338040212028974,Left,Correct,0.0,0.0,-45,45,1018,-1,-1
"{'cat': 'RB', 'resp': 'button'}",21,288,Left,30.687704641587334,45.66405701396646,1.5343852320793667,0.7172893302409125,Left,Correct,0.0,0.0,-45,45,677,-1,-1
"{'cat': 'RB', 'resp': 'button'}",21,289,Left,43.0433212737348,25.80326950110243,2.1521660636867397,0.4053168095163048,Left,Correct,0.0,0.0,-45,45,1980,-1,-1
"{'cat': 'RB', 'resp': 'button'}",21,290,Left,46.81911699919029,51.669876199350064,2.340955849959515,0.8116285173988613,Left,Correct,0.0,0.0,-45,45,750,-1,-1
"{'cat': 'RB', 'resp': 'button'}",21,291,Left,36.0844974462086,82.9623466030146,1.8042248723104302,1.3031694930630038,Left,Correct,0.0,0.0,-45,45,590,-1,-1
"{'cat': 'RB', 'resp': 'button'}",21,292,Right,53.47239636903158,71.11458462375671,2.673619818451579,1.1170652830854189,Right,Correct,0.0,0.0,-45,45,2083,-1,-1
"{'cat': 'RB', 'resp': 'button'}",21,293,Left,33.84776788428258,59.7985322418713,1.6923883942141291,0.9393131479325763,Left,Correct,0.0,0.0,-45,45,544,-1,-1
"{'cat': 'RB', 'resp': 'button'}",21,294,Left,38.42211172565671,89.77741944987785,1.9211055862828357,1.4102204070099285,Left,Correct,0.0,0.0,-45,45,557,-1,-1
"{'cat': 'RB', 'resp': 'button'}",21,295,Right,55.17386933264709,52.93676239384272,2.758693466632354,0.8315287192066236,Right,Correct,0.0,0.0,-45,45,1423,-1,-1
"{'cat': 'RB', 'resp': 'button'}",21,296,Right,60.12038882390374,81.30075325818416,3.006019441195187,1.277069245836139,Right,Correct,0.0,0.0,-45,45,671,-1,-1
"{'cat': 'RB', 'resp': 'button'}",21,297,Left,41.60237745761521,88.18463868827287,2.0801188728807607,1.3852010653127416,Left,Correct,0.0,0.0,-45,45,781,-1,-1
"{'cat': 'RB', 'resp': 'button'}",21,298,Right,53.44709393993887,22.476148121516157,2.6723546969969436,0.35305450909775593,Left,Incorrect,0.0,0.0,-45,45,2205,-1,-1
"{'cat': 'RB', 'resp': 'button'}",21,299,Right,67.28164781192064,70.17046963767285,3.3640823905960313,1.1022351595632933,Right,Correct,0.0,0.0,-45,45,732,-1,-1
"{'cat': 'RB', 'resp': 'button'}",21,300,Left,46.08207284821353,39.82691777031202,2.3041036424106762,0.6255997614116852,Left,Correct,0.0,0.0,-45,45,681,-1,-1
"{'cat': 'RB', 'resp': 'button'}",21,301,Left,44.659284548652515,53.80985154990289,2.232964227432626,0.8452431715996613,Left,Correct,0.0,0.0,-45,45,885,-1,-1
"{'cat': 'RB', 'resp': 'button'}",21,302,Left,41.708415366853785,49.22868986493534,2.085420768342689,0.7732824521276558,107,Incorrect,0.0,0.0,-45,45,693,-1,-1
"{'cat': 'RB', 'resp': 'button'}",21,303,Right,57.337633129655785,85.92817693303019,2.8668816564827893,1.3497566469458577,Right,Correct,0.0,0.0,-45,45,772,-1,-1
"{'cat': 'RB', 'resp': 'button'}",21,304,Right,58.35932759434836,36.803324565957126,2.9179663797174182,0.5781052704204583,Right,Correct,0.0,0.0,-45,45,3051,-1,-1
"{'cat': 'RB', 'resp': 'button'}",21,305,Right,68.62136977735014,62.80858849704582,3.431068488867507,0.9865950010233178,Right,Correct,0.0,0.0,-45,45,616,-1,-1
"{'cat': 'RB', 'resp': 'button'}",21,306,Right,61.19748088652468,90.99870020600515,3.059874044326234,1.4294042402670288,Left,Incorrect,0.0,0.0,-45,45,907,-1,-1
"{'cat': 'RB', 'resp': 'button'}",21,307,Right,52.204297107027095,42.324387487494334,2.6102148553513547,0.6648299239919998,Right,Correct,0.0,0.0,-45,45,1668,-1,-1
"{'cat': 'RB', 'resp': 'button'}",21,308,Right,59.91576074613053,66.96457731282494,2.995788037306527,1.0518771206835829,Right,Correct,0.0,0.0,-45,45,840,-1,-1
"{'cat': 'RB', 'resp': 'button'}",21,309,Right,55.38918416251951,18.9144040727267,2.769459208125976,0.2971067644095354,Right,Correct,0.0,0.0,-45,45,918,-1,-1
"{'cat': 'RB', 'resp': 'button'}",21,310,Left,36.913210208252536,18.540024041488433,1.845660510412627,0.291226016630591,Left,Correct,0.0,0.0,-45,45,646,-1,-1
"{'cat': 'RB', 'resp': 'button'}",21,311,Left,39.44144141094158,67.54087090852407,1.9720720705470791,1.060929519316379,Left,Correct,0.0,0.0,-45,45,653,-1,-1
"{'cat': 'RB', 'resp': 'button'}",21,312,Right,68.72974443786899,64.8487269926209,3.4364872218934495,1.0186414215733397,Right,Correct,0.0,0.0,-45,45,901,-1,-1
"{'cat': 'RB', 'resp': 'button'}",21,313,Right,52.14167748853008,35.86182370195647,2.607083874426504,0.5633162094319939,Left,Incorrect,0.0,0.0,-45,45,2935,-1,-1
"{'cat': 'RB', 'resp': 'button'}",21,314,Right,52.672788537203196,70.17482702262866,2.63363942686016,1.1023036052061235,Left,Incorrect,0.0,0.0,-45,45,672,-1,-1
"{'cat': 'RB', 'resp': 'button'}",21,315,Left,30.66346675029955,47.902477572955306,1.5331733375149776,0.752450358159731,Left,Correct,0.0,0.0,-45,45,476,-1,-1
"{'cat': 'RB', 'resp': 'button'}",21,316,Left,44.10954068992647,76.90872894877928,2.2054770344963233,1.2080794893120683,Right,Incorrect,0.0,0.0,-45,45,941,-1,-1
"{'cat': 'RB', 'resp': 'button'}",21,317,Right,62.55458939343168,57.44518958709001,3.127729469671584,0.9023469279543743,Right,Correct,0.0,0.0,-45,45,649,-1,-1
"{'cat': 'RB', 'resp': 'button'}",21,318,Right,55.16343730756628,27.16623482534797,2.758171865378314,0.4267262187650419,Right,Correct,0.0,0.0,-45,45,2922,-1,-1
"{'cat': 'RB', 'resp': 'button'}",21,319,Left,32.13509257056288,69.81030762987653,1.606754628528144,1.096577747974318,Left,Correct,0.0,0.0,-45,45,618,-1,-1
"{'cat': 'RB', 'resp': 'button'}",21,320,Right,51.93823745891486,36.50974403768012,2.596911872945743,0.5734937182660982,Right,Correct,0.0,0.0,-45,45,1084,-1,-1
"{'cat': 'RB', 'resp': 'button'}",21,321,Right,54.82632021645301,24.46847059273353,2.741316010822651,0.38434983729354777,Right,Correct,0.0,0.0,-45,45,1145,-1,-1
"{'cat': 'RB', 'resp': 'button'}",21,322,Right,62.768329701425124,71.97480008425076,3.1384164850712564,1.1305775159413811,Right,Correct,0.0,0.0,-45,45,549,-1,-1
"{'cat': 'RB', 'resp': 'button'}",21,323,Right,51.38986275676569,60.552344686465055,2.5694931378382844,0.9511540061231778,Right,Correct,0.0,0.0,-45,45,1127,-1,-1
"{'cat': 'RB', 'resp': 'button'}",21,324,Left,41.940269794951625,22.855821175462612,2.097013489747581,0.3590183994829768,Left,Correct,0.0,0.0,-45,45,1016,-1,-1
"{'cat': 'RB', 'resp': 'button'}",21,325,Left,39.93323051650865,36.565453014523456,1.9966615258254325,0.5743687928280482,Left,Correct,0.0,0.0,-45,45,601,-1,-1
"{'cat': 'RB', 'resp': 'button'}",21,326,Left,33.275007723185205,46.40855377682582,1.6637503861592604,0.7289838580450142,Left,Correct,0.0,0.0,-45,45,475,-1,-1
"{'cat': 'RB', 'resp': 'button'}",21,327,Right,55.75964967721118,79.03957822878232,2.7879824838605587,1.2415507915318913,Right,Correct,0.0,0.0,-45,45,742,-1,-1
"{'cat': 'RB', 'resp': 'button'}",21,328,Right,63.283565275885636,35.40502081266575,3.1641782637942817,0.5561407664263223,Right,Correct,0.0,0.0,-45,45,737,-1,-1
"{'cat': 'RB', 'resp': 'button'}",21,329,Left,42.67997428676921,74.61118639490222,2.1339987143384604,1.1719897752692177,Left,Correct,0.0,0.0,-45,45,620,-1,-1
"{'cat': 'RB', 'resp': 'button'}",21,330,Right,66.29880905310651,52.9487275474555,3.3149404526553257,0.8317166674000683,Right,Correct,0.0,0.0,-45,45,1126,-1,-1
"{'cat': 'RB', 'resp': 'button'}",21,331,Left,49.11764162602229,50.139378703014614,2.4558820813011146,0.7875875189447364,Left,Correct,0.0,0.0,-45,45,1307,-1,-1
"{'cat': 'RB', 'resp': 'button'}",21,332,Right,53.468615843396435,47.81057451793403,2.673430792169822,0.7510067483472447,Right,Correct,0.0,0.0,-45,45,842,-1,-1
"{'cat': 'RB', 'resp': 'button'}",21,333,Right,55.6600276440318,31.04773992168033,2.78300138220159,0.4876967582425873,Right,Correct,0.0,0.0,-45,45,579,-1,-1
"{'cat': 'RB', 'resp': 'button'}",21,334,Right,65.56232667473637,56.73942552198621,3.2781163337368184,0.8912608119438854,Right,Correct,0.0,0.0,-45,45,771,-1,-1
"{'cat': 'RB', 'resp': 'button'}",21,335,Right,58.896441126989544,28.204433462280846,2.9448220563494774,0.44303420481881817,Right,Correct,0.0,0.0,-45,45,491,-1,-1
"{'cat': 'RB', 'resp': 'button'}",21,336,Right,60.15881081816311,61.9563866035322,3.0079405409081557,0.9732086449831292,Right,Correct,0.0,0.0,-45,45,556,-1,-1
"{'cat': 'RB', 'resp': 'button'}",21,337,Left,44.874761526890964,77.32132171874085,2.243738076344548,1.2145604813872457,Left,Correct,0.0,0.0,-45,45,664,-1,-1
"{'cat': 'RB', 'resp': 'button'}",21,338,Left,46.54994131303129,28.209600808182902,2.327497065651565,0.4431153732984405,Left,Correct,0.0,0.0,-45,45,978,-1,-1
"{'cat': 'RB', 'resp': 'button'}",21,339,Left,43.94857414440358,62.84802894350002,2.197428707220179,0.9872145301074918,Left,Correct,0.0,0.0,-45,45,636,-1,-1
"{'cat': 'RB', 'resp': 'button'}",21,340,Right,56.82032147606821,43.27917851842816,2.8410160738034103,0.6798277464344754,Right,Correct,0.0,0.0,-45,45,2910,-1,-1
"{'cat': 'RB', 'resp': 'button'}",21,341,Right,62.92221057292086,44.166080436139914,3.1461105286460427,0.6937591691801652,Right,Correct,0.0,0.0,-45,45,648,-1,-1
"{'cat': 'RB', 'resp': 'button'}",21,342,Right,61.97658993628958,62.32866736318956,3.0988294968144787,0.9790564174811911,Right,Correct,0.0,0.0,-45,45,1134,-1,-1
"{'cat': 'RB', 'resp': 'button'}",21,343,Right,52.32303976346749,54.88689763904782,2.6161519881733746,0.8621613720058379,Right,Correct,0.0,0.0,-45,45,889,-1,-1
"{'cat': 'RB', 'resp': 'button'}",21,344,Left,33.34336879575592,74.17113034153286,1.667168439787796,1.165077390947053,Left,Correct,0.0,0.0,-45,45,633,-1,-1
"{'cat': 'RB', 'resp': 'button'}",21,345,Left,39.32104492668756,88.63179668141416,1.9660522463343781,1.3922250066439747,Left,Correct,0.0,0.0,-45,45,3901,-1,-1
"{'cat': 'RB', 'resp': 'button'}",21,346,Right,64.22655096631595,14.565497273308829,3.2113275483157975,0.2287942961485459,Right,Correct,0.0,0.0,-45,45,787,-1,-1
"{'cat': 'RB', 'resp': 'button'}",21,347,Left,43.59619665450294,58.35922666417196,2.1798098327251467,0.916704588786721,Left,Correct,0.0,0.0,-45,45,1039,-1,-1
"{'cat': 'RB', 'resp': 'button'}",21,348,Right,58.57080321923814,37.20749843091245,2.928540160961907,0.5844540186450417,Right,Correct,0.0,0.0,-45,45,1135,-1,-1
"{'cat': 'RB', 'resp': 'button'}",21,349,Right,59.65100342816469,71.47181893475602,2.9825501714082345,1.1226767065206467,Right,Correct,0.0,0.0,-45,45,726,-1,-1
"{'cat': 'RB', 'resp': 'button'}",21,350,Right,66.32010941007283,55.44074890593179,3.316005470503642,0.8708612473619582,Right,Correct,0.0,0.0,-45,45,893,-1,-1
"{'cat': 'RB', 'resp': 'button'}",21,351,Right,53.388410319915224,51.15124690944082,2.6694205159957614,0.8034819075632844,Right,Correct,0.0,0.0,-45,45,948,-1,-1
"{'cat': 'RB', 'resp': 'button'}",21,352,Right,57.134461956538324,18.06905077540082,2.8567230978269165,0.2838279858667008,Right,Correct,0.0,0.0,-45,45,984,-1,-1
"{'cat': 'RB', 'resp': 'button'}",21,353,Right,62.29876581307487,45.92178838191685,3.1149382906537437,0.7213377651016754,Right,Correct,0.0,0.0,-45,45,917,-1,-1
"{'cat': 'RB', 'resp': 'button'}",21,354,Left,48.53423544227759,49.98057977439406,2.4267117721138796,0.7850931112069748,Left,Correct,0.0,0.0,-45,45,2043,-1,-1
"{'cat': 'RB', 'resp': 'button'}",21,355,Left,38.418735737246564,79.28609795928217,1.9209367868623282,1.2454231144034078,Left,Correct,0.0,0.0,-45,45,721,-1,-1
"{'cat': 'RB', 'resp': 'button'}",21,356,Right,56.638662044740165,77.80803262527546,2.8319331022370084,1.2222057184292017,Right,Correct,0.0,0.0,-45,45,724,-1,-1
"{'cat': 'RB', 'resp': 'button'}",21,357,Right,60.20923124480754,75.12072258465142,3.010461562240377,1.1799935510214887,Right,Correct,0.0,0.0,-45,45,1477,-1,-1
"{'cat': 'RB', 'resp': 'button'}",21,358,Right,59.27933384114017,52.47165121703762,2.9639666920570082,0.8242227699258565,Right,Correct,0.0,0.0,-45,45,850,-1,-1
"{'cat': 'RB', 'resp': 'button'}",21,359,Left,33.50014691724509,47.3807810860808,1.6750073458622545,0.7442555689068883,Left,Correct,0.0,0.0,-45,45,639,-1,-1
"{'cat': 'RB', 'resp': 'button'}",21,360,Right,59.58671888720079,73.85449455231614,2.9793359443600393,1.1601036876007191,Right,Correct,0.0,0.0,-45,45,1260,-1,-1
"{'cat': 'RB', 'resp': 'button'}",21,361,Right,55.098656319898396,49.1840006940147,2.75493281599492,0.7725804762723594,Right,Correct,0.0,0.0,-45,45,945,-1,-1
"{'cat': 'RB', 'resp': 'button'}",21,362,Left,39.85248602467147,41.28867344805518,1.9926243012335734,0.6485609659043905,Left,Correct,0.0,0.0,-45,45,861,-1,-1
"{'cat': 'RB', 'resp': 'button'}",21,363,Left,44.68549214697151,62.741607721269176,2.2342746073485755,0.9855428694577594,Left,Correct,0.0,0.0,-45,45,582,-1,-1
"{'cat': 'RB', 'resp': 'button'}",21,364,Left,44.08577341172477,56.77629335401799,2.2042886705862386,0.8918399304952096,Right,Incorrect,0.0,0.0,-45,45,925,-1,-1
"{'cat': 'RB', 'resp': 'button'}",21,365,Right,55.50989697416859,24.452392832821204,2.7754948487084294,0.384097288431414,Right,Correct,0.0,0.0,-45,45,469,-1,-1
"{'cat': 'RB', 'resp': 'button'}",21,366,Left,47.9509641840917,45.34261593448899,2.3975482092045852,0.7122401455716705,Left,Correct,0.0,0.0,-45,45,1680,-1,-1
"{'cat': 'RB', 'resp': 'button'}",21,367,Right,58.80412136274947,24.399974016413783,2.9402060681374733,0.38327389558873687,Right,Correct,0.0,0.0,-45,45,910,-1,-1
"{'cat': 'RB', 'resp': 'button'}",21,368,Right,55.75340232669036,62.40405110430471,2.7876701163345183,0.9802405425176285,Right,Correct,0.0,0.0,-45,45,1067,-1,-1
"{'cat': 'RB', 'resp': 'button'}",21,369,Left,31.008048115722424,38.3088009283851,1.5504024057861212,0.6017532378222423,Left,Correct,0.0,0.0,-45,45,724,-1,-1
"{'cat': 'RB', 'resp': 'button'}",21,370,Left,44.67707139948434,19.030815253105754,2.233853569974217,0.2989353469549081,Right,Incorrect,0.0,0.0,-45,45,1554,-1,-1
"{'cat': 'RB', 'resp': 'button'}",21,371,Right,56.7582902239748,24.345332409147748,2.8379145111987394,0.38241558722890034,Right,Correct,0.0,0.0,-45,45,780,-1,-1
"{'cat': 'RB', 'resp': 'button'}",21,372,Left,43.28876081593859,79.74477831280726,2.1644380407969295,1.2526280485483097,Left,Correct,0.0,0.0,-45,45,860,-1,-1
"{'cat': 'RB', 'resp': 'button'}",21,373,Left,44.57984337898386,22.642403280432998,2.228992168949193,0.3556660390271287,Left,Correct,0.0,0.0,-45,45,1528,-1,-1
"{'cat': 'RB', 'resp': 'button'}",21,374,Left,37.135326149775,46.335908434101725,1.8567663074887497,0.7278427476699166,Left,Correct,0.0,0.0,-45,45,1644,-1,-1
"{'cat': 'RB', 'resp': 'button'}",21,375,Left,41.38603464597032,65.50766288920344,2.069301732298516,1.0289919624327915,Left,Correct,0.0,0.0,-45,45,1537,-1,-1
"{'cat': 'RB', 'resp': 'button'}",21,376,Left,45.89358139369784,32.48579242552745,2.294679069684892,0.5102856341504,Left,Correct,0.0,0.0,-45,45,1495,-1,-1
"{'cat': 'RB', 'resp': 'button'}",21,377,Left,32.496819175098416,47.81581440836925,1.6248409587549206,0.7510890563537291,Left,Correct,0.0,0.0,-45,45,664,-1,-1
"{'cat': 'RB', 'resp': 'button'}",21,378,Right,63.50446520995416,39.74104069130879,3.175223260497708,0.6242508074091435,Right,Correct,0.0,0.0,-45,45,769,-1,-1
"{'cat': 'RB', 'resp': 'button'}",21,379,Left,45.149654241283145,74.51191181490519,2.2574827120641574,1.170430373813183,Left,Correct,0.0,0.0,-45,45,586,-1,-1
"{'cat': 'RB', 'resp': 'button'}",21,380,Left,41.56036096768976,71.22386757622284,2.0780180483844877,1.1187818956885698,Left,Correct,0.0,0.0,-45,45,1520,-1,-1
"{'cat': 'RB', 'resp': 'button'}",21,381,Left,38.81180795521736,17.275896644234578,1.9405903977608683,0.27136914990851957,Left,Correct,0.0,0.0,-45,45,819,-1,-1
"{'cat': 'RB', 'resp': 'button'}",21,382,Right,51.41741572689284,52.17444359516463,2.570870786344642,0.8195542435185212,Right,Correct,0.0,0.0,-45,45,849,-1,-1
"{'cat': 'RB', 'resp': 'button'}",21,383,Right,64.95000358909188,51.190757511196765,3.247500179454594,0.8041025386443615,Right,Correct,0.0,0.0,-45,45,1127,-1,-1
"{'cat': 'RB', 'resp': 'button'}",21,384,Left,39.49620070639968,83.12212522174849,1.974810035319984,1.3056792897370797,Left,Correct,0.0,0.0,-45,45,739,-1,-1
"{'cat': 'RB', 'resp': 'button'}",21,385,Right,62.80503275128685,71.7638468484961,3.140251637564343,1.1272638702628919,Right,Correct,0.0,0.0,-45,45,788,-1,-1
"{'cat': 'RB', 'resp': 'button'}",21,386,Left,33.72500650873816,36.116228008554984,1.686250325436908,0.5673123829352513,Left,Correct,0.0,0.0,-45,45,678,-1,-1
"{'cat': 'RB', 'resp': 'button'}",21,387,Right,59.87112257840065,87.48722672993824,2.9935561289200323,1.374246143888593,Right,Correct,0.0,0.0,-45,45,1059,-1,-1
"{'cat': 'RB', 'resp': 'button'}",21,388,Right,69.21076763250758,53.19614625190994,3.460538381625379,0.8356031113214423,Right,Correct,0.0,0.0,-45,45,925,-1,-1
"{'cat': 'RB', 'resp': 'button'}",21,389,Left,39.96223712408026,24.662576845315705,1.9981118562040132,0.3873988511791877,Left,Correct,0.0,0.0,-45,45,967,-1,-1
"{'cat': 'RB', 'resp': 'button'}",21,390,Right,61.51246557583763,48.8084836514611,3.075623278791882,0.7666818683614385,Right,Correct,0.0,0.0,-45,45,2439,-1,-1
"{'cat': 'RB', 'resp': 'button'}",21,391,Right,54.20391363626132,53.60518325652447,2.7101956818130657,0.8420282495651593,Right,Correct,0.0,0.0,-45,45,599,-1,-1
"{'cat': 'RB', 'resp': 'button'}",21,392,Right,61.6651513014734,86.23052358140933,3.08325756507367,1.3545058969927848,Right,Correct,0.0,0.0,-45,45,500,-1,-1
"{'cat': 'RB', 'resp': 'button'}",21,393,Right,59.00904828481654,45.91163334417756,2.950452414240827,0.721178250141882,Right,Correct,0.0,0.0,-45,45,1250,-1,-1
"{'cat': 'RB', 'resp': 'button'}",21,394,Right,59.32675798737257,28.683959288054563,2.9663378993686287,0.4505665788761047,Right,Correct,0.0,0.0,-45,45,3028,-1,-1
"{'cat': 'RB', 'resp': 'button'}",21,395,Left,44.49232394692321,57.899611935612874,2.22461619734616,0.9094849775131066,Left,Correct,0.0,0.0,-45,45,605,-1,-1
"{'cat': 'RB', 'resp': 'button'}",21,396,Right,54.59072652625836,27.93973892319805,2.729536326312918,0.438876392721679,Right,Correct,0.0,0.0,-45,45,964,-1,-1
"{'cat': 'RB', 'resp': 'button'}",21,397,Left,45.09985922424406,39.32119446744596,2.254992961212203,0.6176558783465194,Left,Correct,0.0,0.0,-45,45,785,-1,-1
"{'cat': 'RB', 'resp': 'button'}",21,398,Left,41.62644883865279,39.86410152491857,2.0813224419326395,0.6261838424632091,Left,Correct,0.0,0.0,-45,45,674,-1,-1
"{'cat': 'RB', 'resp': 'button'}",21,399,Left,44.48270793106421,73.7258109299366,2.2241353965532107,1.1580823299871945,Left,Correct,0.0,0.0,-45,45,1033,-1,-1
