condition,subject,trial,cat,x,y,xt,yt,resp,fb,rotation,su,target_angle_left,target_angle_right,rt,mt,ep
"{'cat': 'II', 'resp': 'button'}",31,0,Right,42.32147473153083,23.250909252495354,2.116073736576541,0.3652244284846118,Right,Correct,0.0,0.0,-45,45,4444,-1,-1
"{'cat': 'II', 'resp': 'button'}",31,1,Left,55.23340697500592,75.02011162265526,2.761670348750296,1.1784131577261003,Right,Incorrect,0.0,0.0,-45,45,3373,-1,-1
"{'cat': 'II', 'resp': 'button'}",31,2,Right,39.964267602082515,31.458118906921328,1.9982133801041257,0.4941429762686911,Right,Correct,0.0,0.0,-45,45,7619,-1,-1
"{'cat': 'II', 'resp': 'button'}",31,3,Right,74.06037220835093,50.226346292922116,3.7030186104175464,0.7889536026525054,Left,Incorrect,0.0,0.0,-45,45,690,-1,-1
"{'cat': 'II', 'resp': 'button'}",31,4,Right,65.70145787919864,43.6385453765399,3.2850728939599323,0.6854726678414129,Left,Incorrect,0.0,0.0,-45,45,6562,-1,-1
"{'cat': 'II', 'resp': 'button'}",31,5,Left,55.37597854708493,83.23558476271609,2.768798927354246,1.3074615080389966,Left,Correct,0.0,0.0,-45,45,4690,-1,-1
"{'cat': 'II', 'resp': 'button'}",31,6,Left,46.14990881276747,78.25544316246513,2.3074954406383736,1.2292336267130701,Right,Incorrect,0.0,0.0,-45,45,6559,-1,-1
"{'cat': 'II', 'resp': 'button'}",31,7,Right,54.94076453233181,41.88529514843365,2.7470382266165903,0.6579326776587967,Left,Incorrect,0.0,0.0,-45,45,736,-1,-1
"{'cat': 'II', 'resp': 'button'}",31,8,Right,57.006292154163575,38.15893875998488,2.850314607708179,0.5993992083857564,Right,Correct,0.0,0.0,-45,45,7851,-1,-1
"{'cat': 'II', 'resp': 'button'}",31,9,Right,68.67540896028922,45.18356237961612,3.433770448014461,0.7097417381740908,Right,Correct,0.0,0.0,-45,45,13910,-1,-1
"{'cat': 'II', 'resp': 'button'}",31,10,Left,26.60508465329323,36.86394295218156,1.3302542326646614,0.5790574618046341,Left,Correct,0.0,0.0,-45,45,4946,-1,-1
"{'cat': 'II', 'resp': 'button'}",31,11,Right,58.59825553120437,26.53844684410505,2.9299127765602186,0.4168649482156183,Right,Correct,0.0,0.0,-45,45,1135,-1,-1
"{'cat': 'II', 'resp': 'button'}",31,12,Left,40.32331964083393,66.3617828456678,2.0161659820416964,1.0424084473353559,Left,Correct,0.0,0.0,-45,45,1084,-1,-1
"{'cat': 'II', 'resp': 'button'}",31,13,Left,57.73102552901193,70.77853142992609,2.886551276450597,1.1117865718606506,Right,Incorrect,0.0,0.0,-45,45,677,-1,-1
"{'cat': 'II', 'resp': 'button'}",31,14,Left,40.29120514815558,60.22724674153202,2.0145602574077794,0.946047379545684,Right,Incorrect,0.0,0.0,-45,45,3038,-1,-1
"{'cat': 'II', 'resp': 'button'}",31,15,Right,52.432846390981766,25.456608958443354,2.621642319549088,0.3998714784457688,Right,Correct,0.0,0.0,-45,45,4141,-1,-1
"{'cat': 'II', 'resp': 'button'}",31,16,Left,52.82657063326332,60.15806856550838,2.6413285316631665,0.9449607312977609,Right,Incorrect,0.0,0.0,-45,45,6193,-1,-1
"{'cat': 'II', 'resp': 'button'}",31,17,Left,35.01530861877288,48.03972391366577,1.7507654309386438,0.7546062186382715,Left,Correct,0.0,0.0,-45,45,1996,-1,-1
"{'cat': 'II', 'resp': 'button'}",31,18,Right,86.05994488353386,67.31874902398641,4.302997244176693,1.057440436913054,Right,Correct,0.0,0.0,-45,45,11463,-1,-1
"{'cat': 'II', 'resp': 'button'}",31,19,Right,33.13829107938167,18.109025865110684,1.6569145539690837,0.2844559131074964,Left,Incorrect,0.0,0.0,-45,45,4028,-1,-1
"{'cat': 'II', 'resp': 'button'}",31,20,Right,75.62937394761856,64.86770306630488,3.781468697380928,1.0189394970417376,Right,Correct,0.0,0.0,-45,45,4951,-1,-1
"{'cat': 'II', 'resp': 'button'}",31,21,Right,67.00997391369873,52.528134950498966,3.3504986956849363,0.8251100143363039,Right,Correct,0.0,0.0,-45,45,2695,-1,-1
"{'cat': 'II', 'resp': 'button'}",31,22,Right,68.94065123378465,47.47634487411004,3.4470325616892326,0.7457566813789978,Right,Correct,0.0,0.0,-45,45,1826,-1,-1
"{'cat': 'II', 'resp': 'button'}",31,23,Left,24.799082406786418,46.978513140265775,1.239954120339321,0.7379367587901526,Left,Correct,0.0,0.0,-45,45,2797,-1,-1
"{'cat': 'II', 'resp': 'button'}",31,24,Right,84.64168822553853,57.063502819542904,4.232084411276927,0.8963514062298823,Right,Correct,0.0,0.0,-45,45,1024,-1,-1
"{'cat': 'II', 'resp': 'button'}",31,25,Left,58.03911413772465,79.34685538718036,2.9019557068862327,1.2463774898490874,Left,Correct,0.0,0.0,-45,45,1937,-1,-1
"{'cat': 'II', 'resp': 'button'}",31,26,Left,21.894245615502523,36.16939104286868,1.0947122807751262,0.5681474659254635,Left,Correct,0.0,0.0,-45,45,807,-1,-1
"{'cat': 'II', 'resp': 'button'}",31,27,Left,40.37878950904009,50.00654803465378,2.0189394754520045,0.7855010196852672,Right,Incorrect,0.0,0.0,-45,45,1208,-1,-1
"{'cat': 'II', 'resp': 'button'}",31,28,Right,41.434985529374956,31.242235534934743,2.071749276468748,0.4907518881913648,Left,Incorrect,0.0,0.0,-45,45,1745,-1,-1
"{'cat': 'II', 'resp': 'button'}",31,29,Right,51.21972497995915,43.05770472524563,2.5609862489979576,0.6763488442263509,Right,Correct,0.0,0.0,-45,45,2098,-1,-1
"{'cat': 'II', 'resp': 'button'}",31,30,Right,66.67198274159509,39.715297582179524,3.3335991370797546,0.6238464355965383,Right,Correct,0.0,0.0,-45,45,713,-1,-1
"{'cat': 'II', 'resp': 'button'}",31,31,Left,38.390318713011744,56.692069812144666,1.919515935650587,0.8905169501931668,Right,Incorrect,0.0,0.0,-45,45,2295,-1,-1
"{'cat': 'II', 'resp': 'button'}",31,32,Right,59.85131663194656,49.813441255233684,2.9925658315973283,0.7824677054873445,Right,Correct,0.0,0.0,-45,45,959,-1,-1
"{'cat': 'II', 'resp': 'button'}",31,33,Left,31.547029864667728,61.398017106348235,1.5773514932333865,0.9644377974314204,Left,Correct,0.0,0.0,-45,45,1268,-1,-1
"{'cat': 'II', 'resp': 'button'}",31,34,Right,48.62796299566073,33.633619982812526,2.431398149783037,0.5283156672581735,Left,Incorrect,0.0,0.0,-45,45,1169,-1,-1
"{'cat': 'II', 'resp': 'button'}",31,35,Right,72.84359072549069,41.47556673516172,3.642179536274534,0.6514966787932863,Right,Correct,0.0,0.0,-45,45,1646,-1,-1
"{'cat': 'II', 'resp': 'button'}",31,36,Left,13.67461624552999,35.37054324008998,0.6837308122764995,0.5555991939827339,Left,Correct,0.0,0.0,-45,45,1144,-1,-1
"{'cat': 'II', 'resp': 'button'}",31,37,Left,36.09928711166628,65.3156510527554,1.804964355583314,1.025975847558854,Left,Correct,0.0,0.0,-45,45,6169,-1,-1
"{'cat': 'II', 'resp': 'button'}",31,38,Left,58.14191246514205,83.73758996806787,2.9070956232571024,1.3153469873649817,Right,Incorrect,0.0,0.0,-45,45,1310,-1,-1
"{'cat': 'II', 'resp': 'button'}",31,39,Right,37.90534683519118,16.918980199008235,1.8952673417595591,0.2657627194971772,Left,Incorrect,0.0,0.0,-45,45,1647,-1,-1
"{'cat': 'II', 'resp': 'button'}",31,40,Right,81.92098109743225,54.85018657864864,4.096049054871612,0.8615847160175601,Right,Correct,0.0,0.0,-45,45,3203,-1,-1
"{'cat': 'II', 'resp': 'button'}",31,41,Left,47.32179145107006,54.10003449123189,2.366089572553503,0.8498013545830425,Right,Incorrect,0.0,0.0,-45,45,1814,-1,-1
"{'cat': 'II', 'resp': 'button'}",31,42,Left,60.682685443109904,78.42840749902773,3.0341342721554954,1.2319505441584606,Right,Incorrect,0.0,0.0,-45,45,1210,-1,-1
"{'cat': 'II', 'resp': 'button'}",31,43,Right,41.87633218616923,21.884396552615158,2.0938166093084614,0.3437592971897079,Right,Correct,0.0,0.0,-45,45,15267,-1,-1
"{'cat': 'II', 'resp': 'button'}",31,44,Right,38.70421777405523,22.394946316452717,1.9352108887027615,0.3517789941265283,Left,Incorrect,0.0,0.0,-45,45,5448,-1,-1
"{'cat': 'II', 'resp': 'button'}",31,45,Left,58.10754811282067,82.59731096292091,2.9053774056410338,1.29743552663692,Right,Incorrect,0.0,0.0,-45,45,11115,-1,-1
"{'cat': 'II', 'resp': 'button'}",31,46,Left,38.43814771032162,52.44658969771229,1.9219073855160813,0.8238291045008553,Right,Incorrect,0.0,0.0,-45,45,4765,-1,-1
"{'cat': 'II', 'resp': 'button'}",31,47,Right,51.408046359805184,24.400449894365288,2.5704023179902595,0.3832813706621191,Right,Correct,0.0,0.0,-45,45,3619,-1,-1
"{'cat': 'II', 'resp': 'button'}",31,48,Right,55.36700392805003,45.64545261035234,2.7683501964025017,0.71699709295232,Left,Incorrect,0.0,0.0,-45,45,1078,-1,-1
"{'cat': 'II', 'resp': 'button'}",31,49,Right,54.55538630158935,45.26741251041987,2.7277693150794677,0.7110588529487688,Right,Correct,0.0,0.0,-45,45,16871,-1,-1
"{'cat': 'II', 'resp': 'button'}",31,50,Right,77.63390413283162,46.7742602858506,3.881695206641581,0.7347283624556254,Right,Correct,0.0,0.0,-45,45,2664,-1,-1
"{'cat': 'II', 'resp': 'button'}",31,51,Left,50.32437311118059,57.80856183125166,2.5162186555590296,0.9080547658182577,Left,Correct,0.0,0.0,-45,45,2112,-1,-1
"{'cat': 'II', 'resp': 'button'}",31,52,Right,35.93287000332192,24.95634042605305,1.796643500166096,0.3920132787148712,Left,Incorrect,0.0,0.0,-45,45,9904,-1,-1
"{'cat': 'II', 'resp': 'button'}",31,53,Right,86.62555162741604,63.74916702044875,4.331277581370802,1.0013695739195525,Left,Incorrect,0.0,0.0,-45,45,2354,-1,-1
"{'cat': 'II', 'resp': 'button'}",31,54,Right,72.95409587036374,61.61678737139472,3.647704793518187,0.96787423271889,Right,Correct,0.0,0.0,-45,45,1306,-1,-1
"{'cat': 'II', 'resp': 'button'}",31,55,Right,56.18407843841599,27.177879106163196,2.8092039219207994,0.4269091267003691,Left,Incorrect,0.0,0.0,-45,45,1005,-1,-1
"{'cat': 'II', 'resp': 'button'}",31,56,Right,40.976975012099615,23.44603752993147,2.048848750604981,0.3682894962991165,Right,Correct,0.0,0.0,-45,45,13931,-1,-1
"{'cat': 'II', 'resp': 'button'}",31,57,Right,41.66574739311267,14.677278165487255,2.0832873696556335,0.23055014629694318,Right,Correct,0.0,0.0,-45,45,1749,-1,-1
"{'cat': 'II', 'resp': 'button'}",31,58,Right,42.4544844432248,30.333245895978763,2.12272422216124,0.47647351233169816,Right,Correct,0.0,0.0,-45,45,2123,-1,-1
"{'cat': 'II', 'resp': 'button'}",31,59,Right,36.53527460544226,11.249223885738694,1.826763730272113,0.17670239559011752,Left,Incorrect,0.0,0.0,-45,45,1362,-1,-1
"{'cat': 'II', 'resp': 'button'}",31,60,Left,46.681394434537005,64.84072318711084,2.3340697217268502,1.0185156980903838,Right,Incorrect,0.0,0.0,-45,45,11625,-1,-1
"{'cat': 'II', 'resp': 'button'}",31,61,Left,54.83297680373027,64.39198431959956,2.7416488401865133,1.0114669244426155,Left,Correct,0.0,0.0,-45,45,1981,-1,-1
"{'cat': 'II', 'resp': 'button'}",31,62,Left,21.347906868065586,40.96736682709442,1.0673953434032795,0.6435138933045902,Left,Correct,0.0,0.0,-45,45,2289,-1,-1
"{'cat': 'II', 'resp': 'button'}",31,63,Right,48.13098278082185,36.33660342552229,2.4065491390410925,0.5707740318901328,Right,Correct,0.0,0.0,-45,45,6842,-1,-1
"{'cat': 'II', 'resp': 'button'}",31,64,Right,57.94604953550683,50.17469485482218,2.8973024767753417,0.7881422637600947,Right,Correct,0.0,0.0,-45,45,902,-1,-1
"{'cat': 'II', 'resp': 'button'}",31,65,Right,62.370245817729675,49.9335018053372,3.1185122908864837,0.7843536121983002,Right,Correct,0.0,0.0,-45,45,1802,-1,-1
"{'cat': 'II', 'resp': 'button'}",31,66,Right,62.088655591961135,34.08872678531021,3.104432779598057,0.5354644681948008,Left,Incorrect,0.0,0.0,-45,45,1311,-1,-1
"{'cat': 'II', 'resp': 'button'}",31,67,Right,60.46270060283196,47.36962862346466,3.0231350301415976,0.7440803864337668,Right,Correct,0.0,0.0,-45,45,1613,-1,-1
"{'cat': 'II', 'resp': 'button'}",31,68,Right,51.61847490203545,25.86867973651912,2.5809237451017726,0.4063442710915781,Left,Incorrect,0.0,0.0,-45,45,2687,-1,-1
"{'cat': 'II', 'resp': 'button'}",31,69,Right,57.537411517025426,30.672792938643763,2.8768705758512714,0.48180710480562067,Left,Incorrect,0.0,0.0,-45,45,2974,-1,-1
"{'cat': 'II', 'resp': 'button'}",31,70,Left,39.285525540638496,59.396233074122655,1.9642762770319249,0.9329938473828541,Right,Incorrect,0.0,0.0,-45,45,9373,-1,-1
"{'cat': 'II', 'resp': 'button'}",31,71,Right,52.64136856088492,36.30251473287085,2.6320684280442457,0.5702385679581113,Left,Incorrect,0.0,0.0,-45,45,3998,-1,-1
"{'cat': 'II', 'resp': 'button'}",31,72,Right,33.41684199029646,21.787358521697413,1.670842099514823,0.3422350273644579,Right,Correct,0.0,0.0,-45,45,7269,-1,-1
"{'cat': 'II', 'resp': 'button'}",31,73,Left,57.27258435185961,77.68988610490484,2.8636292175929805,1.220349877226984,Right,Incorrect,0.0,0.0,-45,45,1164,-1,-1
"{'cat': 'II', 'resp': 'button'}",31,74,Left,43.47643869248734,75.51983305886961,2.173821934624367,1.1862627636903618,Left,Correct,0.0,0.0,-45,45,5168,-1,-1
"{'cat': 'II', 'resp': 'button'}",31,75,Right,44.46117082587244,30.506672508810965,2.2230585412936223,0.47919769119575123,Left,Incorrect,0.0,0.0,-45,45,2367,-1,-1
"{'cat': 'II', 'resp': 'button'}",31,76,Left,53.65202353286576,70.75654695801755,2.682601176643288,1.1114412405834457,Left,Correct,0.0,0.0,-45,45,1175,-1,-1
"{'cat': 'II', 'resp': 'button'}",31,77,Left,61.7916658870761,74.85697771223431,3.089583294353805,1.175850656253451,Left,Correct,0.0,0.0,-45,45,1767,-1,-1
"{'cat': 'II', 'resp': 'button'}",31,78,Left,24.505590303435852,40.73766224234117,1.2252795151717926,0.6399057021248068,Right,Incorrect,0.0,0.0,-45,45,2895,-1,-1
"{'cat': 'II', 'resp': 'button'}",31,79,Right,44.999809262960525,18.59270444079243,2.249990463148026,0.29205351840779914,Left,Incorrect,0.0,0.0,-45,45,5310,-1,-1
"{'cat': 'II', 'resp': 'button'}",31,80,Right,39.31537897610099,19.493758716134327,1.9657689488050494,0.306207245867298,Left,Incorrect,0.0,0.0,-45,45,8191,-1,-1
"{'cat': 'II', 'resp': 'button'}",31,81,Left,17.128037826520746,40.56737636506952,0.8564018913260373,0.637230857819573,Right,Incorrect,0.0,0.0,-45,45,27483,-1,-1
"{'cat': 'II', 'resp': 'button'}",31,82,Right,66.87739988261907,52.846587869288356,3.3438699941309538,0.8301122610872189,Right,Correct,0.0,0.0,-45,45,633,-1,-1
"{'cat': 'II', 'resp': 'button'}",31,83,Right,57.14173526749122,39.75164284841873,2.857086763374561,0.6244173457035876,Right,Correct,0.0,0.0,-45,45,612,-1,-1
"{'cat': 'II', 'resp': 'button'}",31,84,Right,85.70102667291505,67.0975108826926,4.285051333645753,1.0539652363161416,Right,Correct,0.0,0.0,-45,45,2036,-1,-1
"{'cat': 'II', 'resp': 'button'}",31,85,Left,32.1492774678381,43.98770959094139,1.6074638733919047,0.6909573264957138,Left,Correct,0.0,0.0,-45,45,9017,-1,-1
"{'cat': 'II', 'resp': 'button'}",31,86,Right,50.30084290083759,20.19854046267864,2.515042145041879,0.317277931653937,Left,Incorrect,0.0,0.0,-45,45,866,-1,-1
"{'cat': 'II', 'resp': 'button'}",31,87,Right,61.836738114286206,42.71999457265073,3.0918369057143105,0.6710441055541767,Right,Correct,0.0,0.0,-45,45,2676,-1,-1
"{'cat': 'II', 'resp': 'button'}",31,88,Left,19.81728486246762,45.65712128476278,0.990864243123381,0.7171803840613447,Right,Incorrect,0.0,0.0,-45,45,1223,-1,-1
"{'cat': 'II', 'resp': 'button'}",31,89,Left,55.230243759961084,71.42729921488598,2.761512187998054,1.121977392396229,Right,Incorrect,0.0,0.0,-45,45,876,-1,-1
"{'cat': 'II', 'resp': 'button'}",31,90,Left,43.92889934510531,54.626900091893425,2.1964449672552657,0.8580773400853801,Left,Correct,0.0,0.0,-45,45,13602,-1,-1
"{'cat': 'II', 'resp': 'button'}",31,91,Left,25.722143921958057,58.58449050671791,1.286107196097903,0.9202430249510298,Left,Correct,0.0,0.0,-45,45,7166,-1,-1
"{'cat': 'II', 'resp': 'button'}",31,92,Right,85.44341543669826,69.3426669196989,4.272170771834913,1.0892320648762501,Right,Correct,0.0,0.0,-45,45,765,-1,-1
"{'cat': 'II', 'resp': 'button'}",31,93,Right,75.56698027078899,56.916447350428555,3.778349013539449,0.8940414643226829,Right,Correct,0.0,0.0,-45,45,1766,-1,-1
"{'cat': 'II', 'resp': 'button'}",31,94,Left,12.438803049747275,32.369038518396124,0.6219401524873638,0.5084516680657916,Left,Correct,0.0,0.0,-45,45,1314,-1,-1
"{'cat': 'II', 'resp': 'button'}",31,95,Right,59.8021602642881,41.86378689046586,2.990108013214405,0.6575948267326812,Right,Correct,0.0,0.0,-45,45,2108,-1,-1
"{'cat': 'II', 'resp': 'button'}",31,96,Left,67.1455684537092,89.17830666120685,3.35727842268546,1.4008095653321258,Right,Incorrect,0.0,0.0,-45,45,1214,-1,-1
"{'cat': 'II', 'resp': 'button'}",31,97,Left,23.2305482267854,47.895024628038,1.1615274113392702,0.752333287574732,Left,Correct,0.0,0.0,-45,45,4928,-1,-1
"{'cat': 'II', 'resp': 'button'}",31,98,Left,47.88357589804235,73.23489056010217,2.3941787949021176,1.1503709708503473,Right,Incorrect,0.0,0.0,-45,45,2522,-1,-1
"{'cat': 'II', 'resp': 'button'}",31,99,Left,28.27216372081434,61.37187646470044,1.413608186040717,0.9640271811926161,Left,Correct,0.0,0.0,-45,45,5643,-1,-1
"{'cat': 'II', 'resp': 'button'}",31,100,Right,79.74033306907987,48.071409428129854,3.9870166534539933,0.7551039335355993,Right,Correct,0.0,0.0,-45,45,6911,-1,-1
"{'cat': 'II', 'resp': 'button'}",31,101,Left,29.27703148154374,39.77778073112799,1.4638515740771871,0.6248279186050866,Left,Correct,0.0,0.0,-45,45,3511,-1,-1
"{'cat': 'II', 'resp': 'button'}",31,102,Right,34.59801666190478,14.118201193368911,1.729900833095239,0.2217681857549521,Right,Correct,0.0,0.0,-45,45,4983,-1,-1
"{'cat': 'II', 'resp': 'button'}",31,103,Left,49.87646652098412,60.59023581018435,2.4938233260492058,0.951749198502742,Right,Incorrect,0.0,0.0,-45,45,3425,-1,-1
"{'cat': 'II', 'resp': 'button'}",31,104,Left,48.4371545012835,55.41465436162101,2.421857725064175,0.8704513552184306,Left,Correct,0.0,0.0,-45,45,17368,-1,-1
"{'cat': 'II', 'resp': 'button'}",31,105,Left,19.683422454597277,46.2461438401027,0.9841711227298638,0.7264327287246175,Left,Correct,0.0,0.0,-45,45,2424,-1,-1
"{'cat': 'II', 'resp': 'button'}",31,106,Left,60.54474831613234,69.23096617915522,3.0272374158066166,1.0874774737467874,Right,Incorrect,0.0,0.0,-45,45,2625,-1,-1
"{'cat': 'II', 'resp': 'button'}",31,107,Left,57.00944909879689,79.70757181598314,2.850472454939845,1.2520436102628674,Right,Incorrect,0.0,0.0,-45,45,1931,-1,-1
"{'cat': 'II', 'resp': 'button'}",31,108,Left,47.188730333966056,67.39241312732877,2.359436516698303,1.058597549942522,Left,Correct,0.0,0.0,-45,45,5953,-1,-1
"{'cat': 'II', 'resp': 'button'}",31,109,Left,53.404929360860784,65.23505695823074,2.670246468043039,1.024709878482447,Left,Correct,0.0,0.0,-45,45,1858,-1,-1
"{'cat': 'II', 'resp': 'button'}",31,110,Right,72.63683381961205,52.78213823525441,3.631841690980602,0.8290998886031808,Right,Correct,0.0,0.0,-45,45,1728,-1,-1
"{'cat': 'II', 'resp': 'button'}",31,111,Right,38.17504951595487,11.735571935587895,1.9087524757977434,0.18434193289258738,Right,Correct,0.0,0.0,-45,45,6716,-1,-1
"{'cat': 'II', 'resp': 'button'}",31,112,Right,48.07300113967981,40.275994769019036,2.4036500569839903,0.6326538464118557,Left,Incorrect,0.0,0.0,-45,45,6133,-1,-1
"{'cat': 'II', 'resp': 'button'}",31,113,Right,35.211046952132754,16.5311595104061,1.7605523476066378,0.2596708463660642,Right,Correct,0.0,0.0,-45,45,8443,-1,-1
"{'cat': 'II', 'resp': 'button'}",31,114,Right,81.02004406586735,63.80777560778813,4.0510022032933675,1.002290195456666,Left,Incorrect,0.0,0.0,-45,45,2628,-1,-1
"{'cat': 'II', 'resp': 'button'}",31,115,Right,44.278210688336394,33.213401137676435,2.21391053441682,0.5217148850742758,Right,Correct,0.0,0.0,-45,45,11413,-1,-1
"{'cat': 'II', 'resp': 'button'}",31,116,Left,24.011765112095983,45.86986909915224,1.200588255604799,0.7205222189151107,Left,Correct,0.0,0.0,-45,45,1500,-1,-1
"{'cat': 'II', 'resp': 'button'}",31,117,Right,47.07217150727063,20.56879796339302,2.353608575363532,0.323093922874841,Left,Incorrect,0.0,0.0,-45,45,7406,-1,-1
"{'cat': 'II', 'resp': 'button'}",31,118,Right,70.9022339520204,47.198401931433104,3.54511169760102,0.7413907638448426,Right,Correct,0.0,0.0,-45,45,477,-1,-1
"{'cat': 'II', 'resp': 'button'}",31,119,Left,25.6886121065126,52.32749673850485,1.28443060532563,0.8219583966721534,Right,Incorrect,0.0,0.0,-45,45,426,-1,-1
"{'cat': 'II', 'resp': 'button'}",31,120,Left,11.25419897215139,30.865757440825963,0.5627099486075694,0.48483818411791674,Left,Correct,0.0,0.0,-45,45,2503,-1,-1
"{'cat': 'II', 'resp': 'button'}",31,121,Right,59.38524762399218,43.87161118806122,2.969262381199609,0.6891336570478045,Right,Correct,0.0,0.0,-45,45,6756,-1,-1
"{'cat': 'II', 'resp': 'button'}",31,122,Right,71.08629553446744,51.786688404542254,3.554314776723372,0.8134633992272683,Right,Correct,0.0,0.0,-45,45,6799,-1,-1
"{'cat': 'II', 'resp': 'button'}",31,123,Left,41.36138712653955,68.83004524196846,2.068069356326977,1.081179822392106,Left,Correct,0.0,0.0,-45,45,1438,-1,-1
"{'cat': 'II', 'resp': 'button'}",31,124,Right,55.27236417365768,38.90886827021444,2.763618208682884,0.6111790735859935,Right,Correct,0.0,0.0,-45,45,5687,-1,-1
"{'cat': 'II', 'resp': 'button'}",31,125,Right,78.72281978180084,52.205049068848076,3.9361409890900414,0.8200349931749389,Right,Correct,0.0,0.0,-45,45,1191,-1,-1
"{'cat': 'II', 'resp': 'button'}",31,126,Right,31.505724384456826,18.227623363169535,1.5752862192228412,0.28631883825067544,Left,Incorrect,0.0,0.0,-45,45,1387,-1,-1
"{'cat': 'II', 'resp': 'button'}",31,127,Left,48.35051294434539,66.37877174367514,2.4175256472172695,1.042675308321218,Left,Correct,0.0,0.0,-45,45,6540,-1,-1
"{'cat': 'II', 'resp': 'button'}",31,128,Left,46.50604571471895,64.56285185305335,2.3253022857359475,1.0141509053817928,Left,Correct,0.0,0.0,-45,45,2497,-1,-1
"{'cat': 'II', 'resp': 'button'}",31,129,Right,85.97233579309918,63.147182701313746,4.298616789654959,0.9919136263466987,Right,Correct,0.0,0.0,-45,45,5084,-1,-1
"{'cat': 'II', 'resp': 'button'}",31,130,Left,24.41561986861916,39.97628924615311,1.220780993430958,0.6279460830674762,Left,Correct,0.0,0.0,-45,45,841,-1,-1
"{'cat': 'II', 'resp': 'button'}",31,131,Right,49.272063757286794,33.12076499050506,2.4636031878643396,0.5202597598772235,Left,Incorrect,0.0,0.0,-45,45,2320,-1,-1
"{'cat': 'II', 'resp': 'button'}",31,132,Left,58.26038163169055,78.4758379867714,2.913019081584528,1.232695580517719,Right,Incorrect,0.0,0.0,-45,45,3028,-1,-1
"{'cat': 'II', 'resp': 'button'}",31,133,Left,65.47591887814988,79.93292528910965,3.2737959439074937,1.2555834543410431,Left,Correct,0.0,0.0,-45,45,2213,-1,-1
"{'cat': 'II', 'resp': 'button'}",31,134,Left,63.408027061106715,77.44956818507102,3.1704013530553357,1.2165749721696044,Left,Correct,0.0,0.0,-45,45,932,-1,-1
"{'cat': 'II', 'resp': 'button'}",31,135,Right,70.66436199031723,53.372600615669576,3.5332180995158615,0.8383748499858481,Left,Incorrect,0.0,0.0,-45,45,2252,-1,-1
"{'cat': 'II', 'resp': 'button'}",31,136,Left,40.8497528614754,54.14439731815969,2.04248764307377,0.8504982042388869,Left,Correct,0.0,0.0,-45,45,11180,-1,-1
"{'cat': 'II', 'resp': 'button'}",31,137,Left,40.98963804872144,65.72238514923254,2.049481902436072,1.0323648118061393,Left,Correct,0.0,0.0,-45,45,5301,-1,-1
"{'cat': 'II', 'resp': 'button'}",31,138,Right,71.78769277256262,42.09627506066025,3.589384638628131,0.6612467423703273,Right,Correct,0.0,0.0,-45,45,2342,-1,-1
"{'cat': 'II', 'resp': 'button'}",31,139,Right,61.17992593705734,52.83905211705324,3.058996296852867,0.8299938897679133,Left,Incorrect,0.0,0.0,-45,45,2513,-1,-1
"{'cat': 'II', 'resp': 'button'}",31,140,Left,43.23973338028685,69.68267071208574,2.1619866690143423,1.094572831958026,Left,Correct,0.0,0.0,-45,45,10380,-1,-1
"{'cat': 'II', 'resp': 'button'}",31,141,Right,71.05472634859092,59.17249551046385,3.552736317429546,0.9294793859512411,Right,Correct,0.0,0.0,-45,45,1062,-1,-1
"{'cat': 'II', 'resp': 'button'}",31,142,Right,80.54145356486853,59.457787824461136,4.027072678243427,0.9339607471401388,Right,Correct,0.0,0.0,-45,45,2798,-1,-1
"{'cat': 'II', 'resp': 'button'}",31,143,Right,74.19981733008738,54.71929948260014,3.7099908665043695,0.859528746320582,Right,Correct,0.0,0.0,-45,45,1926,-1,-1
"{'cat': 'II', 'resp': 'button'}",31,144,Right,72.5772137948186,50.63567008270414,3.62886068974093,0.7953832457070991,Right,Correct,0.0,0.0,-45,45,2014,-1,-1
"{'cat': 'II', 'resp': 'button'}",31,145,Left,55.82121802747526,83.2374979211465,2.791060901373763,1.3074915598613475,Left,Correct,0.0,0.0,-45,45,1889,-1,-1
"{'cat': 'II', 'resp': 'button'}",31,146,Right,69.57355985556018,40.7968023177124,3.478677992778009,0.6408346722564016,Left,Incorrect,0.0,0.0,-45,45,3450,-1,-1
"{'cat': 'II', 'resp': 'button'}",31,147,Left,43.613659207822494,75.00093284028577,2.1806829603911244,1.1781118981171161,Left,Correct,0.0,0.0,-45,45,3415,-1,-1
"{'cat': 'II', 'resp': 'button'}",31,148,Right,73.30759575732964,60.44351078136397,3.665379787866482,0.9494444471395423,Right,Correct,0.0,0.0,-45,45,1151,-1,-1
"{'cat': 'II', 'resp': 'button'}",31,149,Left,44.371169122055946,53.00947700213112,2.2185584561027976,0.8326709176026611,Left,Correct,0.0,0.0,-45,45,990,-1,-1
"{'cat': 'II', 'resp': 'button'}",31,150,Left,16.636671581781094,38.70316106472513,0.8318335790890546,0.6079478323582149,Left,Correct,0.0,0.0,-45,45,1050,-1,-1
"{'cat': 'II', 'resp': 'button'}",31,151,Right,81.42816115693792,54.20688458708595,4.071408057846896,0.8514797519638951,Right,Correct,0.0,0.0,-45,45,732,-1,-1
"{'cat': 'II', 'resp': 'button'}",31,152,Left,46.163922705932144,63.24100304225681,2.3081961352966074,0.9933873528160189,Left,Correct,0.0,0.0,-45,45,1350,-1,-1
"{'cat': 'II', 'resp': 'button'}",31,153,Right,85.9794109508194,59.052789588002156,4.29897054754097,0.9275990497182571,Right,Correct,0.0,0.0,-45,45,808,-1,-1
"{'cat': 'II', 'resp': 'button'}",31,154,Left,31.485818593489476,56.49159610310823,1.5742909296744738,0.8873679165354329,Left,Correct,0.0,0.0,-45,45,1193,-1,-1
"{'cat': 'II', 'resp': 'button'}",31,155,Right,70.66984760456846,40.4481378299753,3.5334923802284233,0.6353578632901891,Right,Correct,0.0,0.0,-45,45,777,-1,-1
"{'cat': 'II', 'resp': 'button'}",31,156,Right,76.61260219075625,58.250157346577936,3.830630109537813,0.9149913319522939,Right,Correct,0.0,0.0,-45,45,805,-1,-1
"{'cat': 'II', 'resp': 'button'}",31,157,Left,56.734340072540306,84.00976554730535,2.8367170036270153,1.319622311366077,Left,Correct,0.0,0.0,-45,45,1376,-1,-1
"{'cat': 'II', 'resp': 'button'}",31,158,Right,88.5028940061708,67.6616136909741,4.42514470030854,1.062826142507974,Right,Correct,0.0,0.0,-45,45,701,-1,-1
"{'cat': 'II', 'resp': 'button'}",31,159,Left,28.31422682534793,59.25825819993926,1.4157113412673965,0.9308265431272815,Left,Correct,0.0,0.0,-45,45,801,-1,-1
"{'cat': 'II', 'resp': 'button'}",31,160,Left,46.87172699205993,58.60714694923483,2.3435863496029965,0.920598911517868,Left,Correct,0.0,0.0,-45,45,1030,-1,-1
"{'cat': 'II', 'resp': 'button'}",31,161,Left,40.159641404327026,61.35036323007235,2.0079820702163516,0.9636892520933033,Left,Correct,0.0,0.0,-45,45,837,-1,-1
"{'cat': 'II', 'resp': 'button'}",31,162,Left,51.87918660791278,72.98311618524528,2.5939593303956388,1.1464161082182844,Left,Correct,0.0,0.0,-45,45,619,-1,-1
"{'cat': 'II', 'resp': 'button'}",31,163,Left,61.69319953558194,81.65475696521426,3.084659976779097,1.2826299230628857,Right,Incorrect,0.0,0.0,-45,45,722,-1,-1
"{'cat': 'II', 'resp': 'button'}",31,164,Left,44.2292661166379,74.88786297871255,2.211463305831895,1.176335800884812,Left,Correct,0.0,0.0,-45,45,1347,-1,-1
"{'cat': 'II', 'resp': 'button'}",31,165,Left,45.02606926197556,69.95944209137909,2.2513034630987776,1.0989203466175854,Left,Correct,0.0,0.0,-45,45,947,-1,-1
"{'cat': 'II', 'resp': 'button'}",31,166,Left,32.414458870148145,53.82580653298142,1.620722943507407,0.8454937918877996,Left,Correct,0.0,0.0,-45,45,805,-1,-1
"{'cat': 'II', 'resp': 'button'}",31,167,Left,52.66250890588963,73.71264571057154,2.6331254452944814,1.1578755312049935,Right,Incorrect,0.0,0.0,-45,45,6674,-1,-1
"{'cat': 'II', 'resp': 'button'}",31,168,Right,62.72652643339837,46.80240987309748,3.1363263216699186,0.7351705351381073,Right,Correct,0.0,0.0,-45,45,554,-1,-1
"{'cat': 'II', 'resp': 'button'}",31,169,Left,37.734968548545964,63.58867911242009,1.8867484274272983,0.9988486357552884,Left,Correct,0.0,0.0,-45,45,786,-1,-1
"{'cat': 'II', 'resp': 'button'}",31,170,Right,72.50632001064561,41.99061032542776,3.62531600053228,0.6595869645905778,Right,Correct,0.0,0.0,-45,45,727,-1,-1
"{'cat': 'II', 'resp': 'button'}",31,171,Left,20.008974192370726,46.23992722489241,1.0004487096185364,0.7263350783612433,Left,Correct,0.0,0.0,-45,45,732,-1,-1
"{'cat': 'II', 'resp': 'button'}",31,172,Left,32.58676077322223,45.499617065925776,1.6293380386611116,0.7147063135773061,Left,Correct,0.0,0.0,-45,45,651,-1,-1
"{'cat': 'II', 'resp': 'button'}",31,173,Right,46.950514977038765,33.39220007539807,2.3475257488519383,0.5245234522203556,Left,Incorrect,0.0,0.0,-45,45,1503,-1,-1
"{'cat': 'II', 'resp': 'button'}",31,174,Left,25.364354112942657,44.307439482691066,1.2682177056471329,0.695979631890983,Left,Correct,0.0,0.0,-45,45,693,-1,-1
"{'cat': 'II', 'resp': 'button'}",31,175,Right,83.81493401817738,55.88368704707657,4.1907467009088695,0.877818903413034,Right,Correct,0.0,0.0,-45,45,663,-1,-1
"{'cat': 'II', 'resp': 'button'}",31,176,Right,82.48596451018105,53.29274400694187,4.124298225509052,0.8371204653092503,Right,Correct,0.0,0.0,-45,45,721,-1,-1
"{'cat': 'II', 'resp': 'button'}",31,177,Left,27.64129586512344,50.775959968514805,1.3820647932561718,0.7975869140802776,Left,Correct,0.0,0.0,-45,45,676,-1,-1
"{'cat': 'II', 'resp': 'button'}",31,178,Right,69.22802203780863,44.741160542960856,3.461401101890431,0.7027925063742366,Right,Correct,0.0,0.0,-45,45,649,-1,-1
"{'cat': 'II', 'resp': 'button'}",31,179,Right,44.09876351300571,17.281958492138433,2.2049381756502853,0.27146436919272915,Left,Incorrect,0.0,0.0,-45,45,1293,-1,-1
"{'cat': 'II', 'resp': 'button'}",31,180,Right,50.0795970272747,21.489847398004947,2.5039798513637352,0.3375617335616904,Right,Correct,0.0,0.0,-45,45,1543,-1,-1
"{'cat': 'II', 'resp': 'button'}",31,181,Left,32.82809838725092,41.81604599909943,1.641404919362546,0.6568449145647182,Left,Correct,0.0,0.0,-45,45,1169,-1,-1
"{'cat': 'II', 'resp': 'button'}",31,182,Left,26.14034342195945,45.876266657887726,1.3070171710979723,0.7206227115327322,Left,Correct,0.0,0.0,-45,45,767,-1,-1
"{'cat': 'II', 'resp': 'button'}",31,183,Right,87.51804453094518,67.55374603562606,4.375902226547259,1.0611317613399673,Right,Correct,0.0,0.0,-45,45,752,-1,-1
"{'cat': 'II', 'resp': 'button'}",31,184,Left,45.94469690720157,57.16113287636311,2.2972348453600784,0.8978849755762618,Left,Correct,0.0,0.0,-45,45,1825,-1,-1
"{'cat': 'II', 'resp': 'button'}",31,185,Left,49.840305438264885,72.56640375600286,2.4920152719132442,1.1398704046864467,Left,Correct,0.0,0.0,-45,45,1404,-1,-1
"{'cat': 'II', 'resp': 'button'}",31,186,Left,14.325384651452865,32.13161815569853,0.7162692325726432,0.5047222777294746,Left,Correct,0.0,0.0,-45,45,790,-1,-1
"{'cat': 'II', 'resp': 'button'}",31,187,Right,64.7510118249529,32.7550816834108,3.237550591247645,0.5145156199216848,Right,Correct,0.0,0.0,-45,45,560,-1,-1
"{'cat': 'II', 'resp': 'button'}",31,188,Right,85.15427302226114,58.37390238615143,4.257713651113057,0.9169351144885051,Right,Correct,0.0,0.0,-45,45,714,-1,-1
"{'cat': 'II', 'resp': 'button'}",31,189,Left,33.715970340906765,63.87390224143557,1.6857985170453385,1.003328910189033,Left,Correct,0.0,0.0,-45,45,666,-1,-1
"{'cat': 'II', 'resp': 'button'}",31,190,Right,57.460518538379176,33.717978714361024,2.8730259269189586,0.5296407711146681,Left,Incorrect,0.0,0.0,-45,45,1165,-1,-1
"{'cat': 'II', 'resp': 'button'}",31,191,Left,19.95289200283855,44.05668743795584,0.9976446001419275,0.6920408279829189,Left,Correct,0.0,0.0,-45,45,718,-1,-1
"{'cat': 'II', 'resp': 'button'}",31,192,Left,32.07386043474135,57.023879277197715,1.6036930217370673,0.8957290010821779,Left,Correct,0.0,0.0,-45,45,3055,-1,-1
"{'cat': 'II', 'resp': 'button'}",31,193,Right,58.08114110620416,28.03707358494868,2.904057055310208,0.4404053220131561,Right,Correct,0.0,0.0,-45,45,705,-1,-1
"{'cat': 'II', 'resp': 'button'}",31,194,Right,80.88360180018337,60.03454694699023,4.044180090009169,0.9430204582512803,Right,Correct,0.0,0.0,-45,45,512,-1,-1
"{'cat': 'II', 'resp': 'button'}",31,195,Left,61.57249374650562,80.55835315009296,3.078624687325281,1.265407652208121,Right,Incorrect,0.0,0.0,-45,45,717,-1,-1
"{'cat': 'II', 'resp': 'button'}",31,196,Right,36.166462543049136,25.397095574372425,1.8083231271524567,0.39893664439483134,Left,Incorrect,0.0,0.0,-45,45,878,-1,-1
"{'cat': 'II', 'resp': 'button'}",31,197,Left,14.439792351594253,32.14924437579545,0.7219896175797126,0.5049991497473099,Left,Correct,0.0,0.0,-45,45,1252,-1,-1
"{'cat': 'II', 'resp': 'button'}",31,198,Left,63.781017535914714,76.48851136726752,3.1890508767957355,1.2014787269771352,Right,Incorrect,0.0,0.0,-45,45,1992,-1,-1
"{'cat': 'II', 'resp': 'button'}",31,199,Left,15.00267644969161,42.14875641869848,0.7501338224845804,0.6620711176146439,Left,Correct,0.0,0.0,-45,45,840,-1,-1
"{'cat': 'II', 'resp': 'button'}",31,200,Right,60.7090997617148,36.326661251120434,3.03545498808574,0.5706178605798248,Right,Correct,0.0,0.0,-45,45,921,-1,-1
"{'cat': 'II', 'resp': 'button'}",31,201,Left,17.026136697200982,41.389533785014834,0.8513068348600491,0.6501452763725457,Left,Correct,0.0,0.0,-45,45,804,-1,-1
"{'cat': 'II', 'resp': 'button'}",31,202,Right,74.49389662038655,56.07256126654022,3.724694831019327,0.8807857327146317,Right,Correct,0.0,0.0,-45,45,1321,-1,-1
"{'cat': 'II', 'resp': 'button'}",31,203,Left,52.251343776554165,59.390076548777564,2.6125671888277084,0.9328971409088753,Left,Correct,0.0,0.0,-45,45,1196,-1,-1
"{'cat': 'II', 'resp': 'button'}",31,204,Right,84.11126885873777,54.12039195301858,4.205563442936889,0.8501211288450167,Right,Correct,0.0,0.0,-45,45,791,-1,-1
"{'cat': 'II', 'resp': 'button'}",31,205,Right,61.64078833745972,37.03621904903829,3.082039416872986,0.5817635684060052,Left,Incorrect,0.0,0.0,-45,45,2545,-1,-1
"{'cat': 'II', 'resp': 'button'}",31,206,Right,76.06442235718427,57.468200121132014,3.8032211178592137,0.902708376577882,Right,Correct,0.0,0.0,-45,45,607,-1,-1
"{'cat': 'II', 'resp': 'button'}",31,207,Right,61.9688353096909,46.04228647831305,3.0984417654845453,0.7232305447737248,Right,Correct,0.0,0.0,-45,45,1480,-1,-1
"{'cat': 'II', 'resp': 'button'}",31,208,Right,43.510793317716946,35.951652761546335,2.1755396658858475,0.5647272410004257,Right,Correct,0.0,0.0,-45,45,2446,-1,-1
"{'cat': 'II', 'resp': 'button'}",31,209,Left,67.78959010022713,85.98637197940673,3.389479505011357,1.350670772596717,Right,Incorrect,0.0,0.0,-45,45,801,-1,-1
"{'cat': 'II', 'resp': 'button'}",31,210,Right,80.67060753661819,50.52461580844343,4.033530376830909,0.793638809246263,Right,Correct,0.0,0.0,-45,45,1594,-1,-1
"{'cat': 'II', 'resp': 'button'}",31,211,Right,35.21253417975774,14.957428866742745,1.7606267089878869,0.23495074322175458,Left,Incorrect,0.0,0.0,-45,45,1465,-1,-1
"{'cat': 'II', 'resp': 'button'}",31,212,Left,43.488604317555364,64.8994306790122,2.174430215877768,1.019437873216724,Right,Incorrect,0.0,0.0,-45,45,1111,-1,-1
"{'cat': 'II', 'resp': 'button'}",31,213,Right,39.92533332767623,13.031264648746614,1.9962666663838116,0.2046946264374337,Right,Correct,0.0,0.0,-45,45,5811,-1,-1
"{'cat': 'II', 'resp': 'button'}",31,214,Left,16.787702285742377,40.72096328625456,0.8393851142871188,0.639643395535985,Left,Correct,0.0,0.0,-45,45,824,-1,-1
"{'cat': 'II', 'resp': 'button'}",31,215,Left,41.49686638293361,65.93609053073138,2.0748433191466806,1.0357216880888862,Right,Incorrect,0.0,0.0,-45,45,1405,-1,-1
"{'cat': 'II', 'resp': 'button'}",31,216,Left,31.182583977340716,57.914763644055775,1.5591291988670357,0.9097229799927743,Left,Correct,0.0,0.0,-45,45,2693,-1,-1
"{'cat': 'II', 'resp': 'button'}",31,217,Right,36.16157273136635,13.011527164076103,1.8080786365683172,0.20438459075322762,Left,Incorrect,0.0,0.0,-45,45,833,-1,-1
"{'cat': 'II', 'resp': 'button'}",31,218,Right,83.0422034562338,53.03172995746125,4.15211017281169,0.8330204662075902,Right,Correct,0.0,0.0,-45,45,731,-1,-1
"{'cat': 'II', 'resp': 'button'}",31,219,Left,14.035432880507951,42.103575445182486,0.7017716440253976,0.6613614165422445,Left,Correct,0.0,0.0,-45,45,2730,-1,-1
"{'cat': 'II', 'resp': 'button'}",31,220,Left,53.531721466801,66.89348434538523,2.67658607334005,1.0507603949624302,Right,Incorrect,0.0,0.0,-45,45,1944,-1,-1
"{'cat': 'II', 'resp': 'button'}",31,221,Left,35.868035677691545,51.133704828062605,1.7934017838845773,0.803206357193352,Left,Correct,0.0,0.0,-45,45,1337,-1,-1
"{'cat': 'II', 'resp': 'button'}",31,222,Left,31.299175171209473,41.410867193718026,1.5649587585604738,0.6504803807728357,Left,Correct,0.0,0.0,-45,45,1941,-1,-1
"{'cat': 'II', 'resp': 'button'}",31,223,Right,57.984073704552635,37.03573191444721,2.8992036852276315,0.581755916513742,Right,Correct,0.0,0.0,-45,45,1995,-1,-1
"{'cat': 'II', 'resp': 'button'}",31,224,Left,46.361179682939834,74.37974264771466,2.318058984146992,1.1683542653897991,Left,Correct,0.0,0.0,-45,45,1619,-1,-1
"{'cat': 'II', 'resp': 'button'}",31,225,Left,13.294149418529912,41.73831885864082,0.6647074709264956,0.6556239794974715,Left,Correct,0.0,0.0,-45,45,839,-1,-1
"{'cat': 'II', 'resp': 'button'}",31,226,Left,44.02159591850522,73.55413051135994,2.2010797959252613,1.1553855802783661,Left,Correct,0.0,0.0,-45,45,1493,-1,-1
"{'cat': 'II', 'resp': 'button'}",31,227,Right,57.98408311651854,42.12199338211247,2.899204155825927,0.6616507248190121,Right,Correct,0.0,0.0,-45,45,676,-1,-1
"{'cat': 'II', 'resp': 'button'}",31,228,Right,65.95576172440691,49.36442163606632,3.2977880862203452,0.7754145218028748,Right,Correct,0.0,0.0,-45,45,674,-1,-1
"{'cat': 'II', 'resp': 'button'}",31,229,Right,76.06073764285743,46.02840483445207,3.8030368821428713,0.7230124924218576,Right,Correct,0.0,0.0,-45,45,636,-1,-1
"{'cat': 'II', 'resp': 'button'}",31,230,Right,63.46235081816634,42.420164760342466,3.1731175409083168,0.6663343898758025,Right,Correct,0.0,0.0,-45,45,1135,-1,-1
"{'cat': 'II', 'resp': 'button'}",31,231,Left,57.12877780009518,69.20408579651502,2.856438890004759,1.0870552376836466,Right,Incorrect,0.0,0.0,-45,45,1753,-1,-1
"{'cat': 'II', 'resp': 'button'}",31,232,Right,47.45036930076607,40.05382105669042,2.3725184650383033,0.6291639498994939,Left,Incorrect,0.0,0.0,-45,45,2239,-1,-1
"{'cat': 'II', 'resp': 'button'}",31,233,Right,73.13914619303725,62.20225998644288,3.6569573096518626,0.9770708150504566,Right,Correct,0.0,0.0,-45,45,762,-1,-1
"{'cat': 'II', 'resp': 'button'}",31,234,Right,42.63892271847081,19.574867714871484,2.1319461359235405,0.3074813030401613,Left,Incorrect,0.0,0.0,-45,45,1446,-1,-1
"{'cat': 'II', 'resp': 'button'}",31,235,Right,41.65255200133908,21.232288730152483,2.082627600066954,0.33351601146772203,Right,Correct,0.0,0.0,-45,45,908,-1,-1
"{'cat': 'II', 'resp': 'button'}",31,236,Right,68.25598105583289,35.55813093668143,3.4127990527916445,0.5585458146303116,Right,Correct,0.0,0.0,-45,45,690,-1,-1
"{'cat': 'II', 'resp': 'button'}",31,237,Left,66.53152567576052,79.90253127668296,3.326576283788026,1.2551060263102793,Right,Incorrect,0.0,0.0,-45,45,997,-1,-1
"{'cat': 'II', 'resp': 'button'}",31,238,Left,25.176244922258554,53.87609396354243,1.2588122461129276,0.8462837049998915,Left,Correct,0.0,0.0,-45,45,747,-1,-1
"{'cat': 'II', 'resp': 'button'}",31,239,Right,40.239354571108805,23.98512669383302,2.0119677285554403,0.3767574890838313,Left,Incorrect,0.0,0.0,-45,45,1909,-1,-1
"{'cat': 'II', 'resp': 'button'}",31,240,Right,72.7597329676761,48.56652583164709,3.637986648383805,0.7628812038154071,Right,Correct,0.0,0.0,-45,45,836,-1,-1
"{'cat': 'II', 'resp': 'button'}",31,241,Right,64.46779607564102,42.11581961005839,3.2233898037820508,0.6615537474343618,Right,Correct,0.0,0.0,-45,45,684,-1,-1
"{'cat': 'II', 'resp': 'button'}",31,242,Left,21.064851631916103,51.241028306444576,1.053242581595805,0.8048921904495646,Left,Correct,0.0,0.0,-45,45,1212,-1,-1
"{'cat': 'II', 'resp': 'button'}",31,243,Left,56.70774981708314,72.7927559617315,2.835387490854157,1.1434259368196515,Right,Incorrect,0.0,0.0,-45,45,2706,-1,-1
"{'cat': 'II', 'resp': 'button'}",31,244,Left,41.88687783648017,55.124258615737645,2.0943438918240083,0.8658898295089261,Left,Correct,0.0,0.0,-45,45,2260,-1,-1
"{'cat': 'II', 'resp': 'button'}",31,245,Right,59.44419822646679,39.9505788016665,2.9722099113233393,0.627542224349878,Right,Correct,0.0,0.0,-45,45,872,-1,-1
"{'cat': 'II', 'resp': 'button'}",31,246,Left,65.79682228956649,85.09897386864469,3.2898411144783246,1.3367315556688197,Right,Incorrect,0.0,0.0,-45,45,610,-1,-1
"{'cat': 'II', 'resp': 'button'}",31,247,Left,52.17540213697639,77.90296931035611,2.6087701068488194,1.2236969803912292,Left,Correct,0.0,0.0,-45,45,831,-1,-1
"{'cat': 'II', 'resp': 'button'}",31,248,Right,62.394087754078285,30.38904975306081,3.119704387703914,0.4773500772689528,Right,Correct,0.0,0.0,-45,45,931,-1,-1
"{'cat': 'II', 'resp': 'button'}",31,249,Right,72.89236179180511,57.26343515916243,3.6446180895902556,0.8994919360767007,Right,Correct,0.0,0.0,-45,45,1550,-1,-1
"{'cat': 'II', 'resp': 'button'}",31,250,Left,44.77346598632592,70.15977646415455,2.2386732993162957,1.10206719158645,Left,Correct,0.0,0.0,-45,45,1337,-1,-1
"{'cat': 'II', 'resp': 'button'}",31,251,Left,58.481374608229146,67.95812065430815,2.924068730411457,1.0674836629967164,Left,Correct,0.0,0.0,-45,45,903,-1,-1
"{'cat': 'II', 'resp': 'button'}",31,252,Left,61.282731150732275,72.57833833805206,3.0641365575366137,1.1400578726628938,Left,Correct,0.0,0.0,-45,45,1096,-1,-1
"{'cat': 'II', 'resp': 'button'}",31,253,Right,76.47706344780977,55.073535858173244,3.8238531723904883,0.8650930782962555,Right,Correct,0.0,0.0,-45,45,1058,-1,-1
"{'cat': 'II', 'resp': 'button'}",31,254,Right,70.21285361460257,38.31829515104649,3.5106426807301285,0.6019023727230652,Right,Correct,0.0,0.0,-45,45,1029,-1,-1
"{'cat': 'II', 'resp': 'button'}",31,255,Right,40.9737970838062,14.153361974304723,2.04868985419031,0.22232049001036422,Right,Correct,0.0,0.0,-45,45,2232,-1,-1
"{'cat': 'II', 'resp': 'button'}",31,256,Left,27.128372929593407,51.770906089907626,1.3564186464796704,0.8132154912087044,Left,Correct,0.0,0.0,-45,45,2719,-1,-1
"{'cat': 'II', 'resp': 'button'}",31,257,Left,32.89217373431242,57.80705728081861,1.644608686715621,0.9080311323953205,Left,Correct,0.0,0.0,-45,45,706,-1,-1
"{'cat': 'II', 'resp': 'button'}",31,258,Right,70.73008648660124,51.84426081352012,3.536504324330062,0.81436774451274,Right,Correct,0.0,0.0,-45,45,1868,-1,-1
"{'cat': 'II', 'resp': 'button'}",31,259,Right,43.302152171702836,23.246209193870357,2.1651076085851417,0.36515060013637307,Left,Incorrect,0.0,0.0,-45,45,1130,-1,-1
"{'cat': 'II', 'resp': 'button'}",31,260,Left,43.12647102124886,65.13680601488161,2.156323551062443,1.0231665562732777,Left,Correct,0.0,0.0,-45,45,1511,-1,-1
"{'cat': 'II', 'resp': 'button'}",31,261,Right,78.10514444078595,54.63078675781906,3.9052572220392974,0.8581383916909745,Right,Correct,0.0,0.0,-45,45,943,-1,-1
"{'cat': 'II', 'resp': 'button'}",31,262,Left,39.10149906445512,49.954126879993034,1.9550749532227558,0.7846775901133926,Left,Correct,0.0,0.0,-45,45,1205,-1,-1
"{'cat': 'II', 'resp': 'button'}",31,263,Left,25.136267211053415,45.26806324862145,1.2568133605526708,0.7110690747205363,Left,Correct,0.0,0.0,-45,45,1019,-1,-1
"{'cat': 'II', 'resp': 'button'}",31,264,Left,57.8068972614149,67.40462548887668,2.8903448630707453,1.0587893812691316,Left,Correct,0.0,0.0,-45,45,6243,-1,-1
"{'cat': 'II', 'resp': 'button'}",31,265,Right,58.474377939848885,50.96448249811695,2.9237188969924444,0.800548219050449,Left,Incorrect,0.0,0.0,-45,45,913,-1,-1
"{'cat': 'II', 'resp': 'button'}",31,266,Left,18.487513332272453,47.21385623685859,0.9243756666136227,0.7416335195067979,Left,Correct,0.0,0.0,-45,45,6983,-1,-1
"{'cat': 'II', 'resp': 'button'}",31,267,Left,53.543293591382486,79.17640974005946,2.6771646795691244,1.2437001358849307,Left,Correct,0.0,0.0,-45,45,1458,-1,-1
"{'cat': 'II', 'resp': 'button'}",31,268,Right,57.70012978149596,39.7445107803737,2.8850064890747977,0.6243053154407119,Right,Correct,0.0,0.0,-45,45,916,-1,-1
"{'cat': 'II', 'resp': 'button'}",31,269,Left,27.81731605994053,59.608246407031125,1.3908658029970267,0.9363241450284958,Left,Correct,0.0,0.0,-45,45,1649,-1,-1
"{'cat': 'II', 'resp': 'button'}",31,270,Right,35.557100832804295,22.843350112601104,1.7778550416402146,0.35882250448563596,Right,Correct,0.0,0.0,-45,45,2232,-1,-1
"{'cat': 'II', 'resp': 'button'}",31,271,Right,62.33918776534762,29.930695273366716,3.116959388267381,0.4701502619382181,Right,Correct,0.0,0.0,-45,45,767,-1,-1
"{'cat': 'II', 'resp': 'button'}",31,272,Right,38.359926503363425,25.438011821988884,1.9179963251681713,0.3995793553094528,Right,Correct,0.0,0.0,-45,45,2145,-1,-1
"{'cat': 'II', 'resp': 'button'}",31,273,Right,49.446330590839466,35.24973497352964,2.472316529541973,0.5537015421691396,Right,Correct,0.0,0.0,-45,45,753,-1,-1
"{'cat': 'II', 'resp': 'button'}",31,274,Left,39.96535824271263,62.67599041067985,1.9982679121356315,0.9845121551532807,Right,Incorrect,0.0,0.0,-45,45,3068,-1,-1
"{'cat': 'II', 'resp': 'button'}",31,275,Right,41.90470627173295,21.0881758047796,2.0952353135866475,0.33125229092952807,Right,Correct,0.0,0.0,-45,45,4627,-1,-1
"{'cat': 'II', 'resp': 'button'}",31,276,Left,39.26929473400134,56.08204834293619,1.963464736700067,0.8809347553621797,Left,Correct,0.0,0.0,-45,45,1178,-1,-1
"{'cat': 'II', 'resp': 'button'}",31,277,Right,35.98726054481963,19.68100494758974,1.7993630272409815,0.3091485027930615,Right,Correct,0.0,0.0,-45,45,1007,-1,-1
"{'cat': 'II', 'resp': 'button'}",31,278,Left,59.43177384907534,70.24447579993557,2.971588692453767,1.103397645641718,Right,Incorrect,0.0,0.0,-45,45,868,-1,-1
"{'cat': 'II', 'resp': 'button'}",31,279,Left,38.47837877840562,68.12482075199037,1.9239189389202809,1.0701021820078722,Left,Correct,0.0,0.0,-45,45,1661,-1,-1
"{'cat': 'II', 'resp': 'button'}",31,280,Left,26.97671406092968,41.86654435214244,1.348835703046484,0.6576381408394097,Left,Correct,0.0,0.0,-45,45,1803,-1,-1
"{'cat': 'II', 'resp': 'button'}",31,281,Right,54.319244963088714,31.76338725227196,2.715962248154436,0.4989381202243265,Right,Correct,0.0,0.0,-45,45,1344,-1,-1
"{'cat': 'II', 'resp': 'button'}",31,282,Left,68.27039787189378,82.77232601226635,3.4135198935946893,1.3001846566033766,Left,Correct,0.0,0.0,-45,45,1148,-1,-1
"{'cat': 'II', 'resp': 'button'}",31,283,Left,30.595338335074196,53.2219015708848,1.5297669167537098,0.8360076749258539,Left,Correct,0.0,0.0,-45,45,3601,-1,-1
"{'cat': 'II', 'resp': 'button'}",31,284,Left,48.3061546572265,61.13617711337015,2.415307732861325,0.9603248244396406,Right,Incorrect,0.0,0.0,-45,45,1861,-1,-1
"{'cat': 'II', 'resp': 'button'}",31,285,Left,47.784012862345264,72.54877603083719,2.389200643117263,1.1395935090270468,Left,Correct,0.0,0.0,-45,45,2385,-1,-1
"{'cat': 'II', 'resp': 'button'}",31,286,Left,56.142135833703975,64.94538837039109,2.8071067916851984,1.020159774944783,Right,Incorrect,0.0,0.0,-45,45,6280,-1,-1
"{'cat': 'II', 'resp': 'button'}",31,287,Left,20.85466469312969,48.87343626117537,1.0427332346564844,0.7677021415689878,Left,Correct,0.0,0.0,-45,45,919,-1,-1
"{'cat': 'II', 'resp': 'button'}",31,288,Right,59.24188336527582,42.44191905062334,2.962094168263791,0.6666761054684548,Right,Correct,0.0,0.0,-45,45,818,-1,-1
"{'cat': 'II', 'resp': 'button'}",31,289,Right,30.61425467337133,14.426664813649513,1.5307127336685664,0.2266135209718184,Right,Correct,0.0,0.0,-45,45,2636,-1,-1
"{'cat': 'II', 'resp': 'button'}",31,290,Left,42.28734925030671,69.92222882054102,2.1143674625153355,1.0983358019261809,Left,Correct,0.0,0.0,-45,45,926,-1,-1
"{'cat': 'II', 'resp': 'button'}",31,291,Right,40.19479617263849,13.1084098092911,2.0097398086319247,0.2059064197855665,Right,Correct,0.0,0.0,-45,45,1043,-1,-1
"{'cat': 'II', 'resp': 'button'}",31,292,Right,77.77376389964454,58.50428798584657,3.888688194982227,0.918983206699186,Right,Correct,0.0,0.0,-45,45,1672,-1,-1
"{'cat': 'II', 'resp': 'button'}",31,293,Right,84.27794906848258,64.54210710718256,4.21389745342413,1.0138250476756516,Right,Correct,0.0,0.0,-45,45,764,-1,-1
"{'cat': 'II', 'resp': 'button'}",31,294,Left,54.56522286676942,82.07980193826003,2.728261143338471,1.2893065138867148,Left,Correct,0.0,0.0,-45,45,1395,-1,-1
"{'cat': 'II', 'resp': 'button'}",31,295,Left,40.84613797043056,59.84390752911559,2.0423068985215282,0.9400259012778821,Right,Incorrect,0.0,0.0,-45,45,3231,-1,-1
"{'cat': 'II', 'resp': 'button'}",31,296,Right,65.88598057080277,41.3005285971251,3.2942990285401383,0.6487471861505169,Right,Correct,0.0,0.0,-45,45,780,-1,-1
"{'cat': 'II', 'resp': 'button'}",31,297,Right,88.73450704683235,65.3613635297489,4.436725352341617,1.0266938974683548,Right,Correct,0.0,0.0,-45,45,1135,-1,-1
"{'cat': 'II', 'resp': 'button'}",31,298,Left,49.583954446684885,70.91276401333445,2.479197722334244,1.113895092350191,Left,Correct,0.0,0.0,-45,45,2721,-1,-1
"{'cat': 'II', 'resp': 'button'}",31,299,Left,34.328292359010916,49.02996359937542,1.7164146179505457,0.770160867247864,Left,Correct,0.0,0.0,-45,45,2616,-1,-1
"{'cat': 'II', 'resp': 'button'}",31,300,Left,62.00919920431122,81.7349049587982,3.100459960215561,1.283888884802102,Left,Correct,0.0,0.0,-45,45,1097,-1,-1
"{'cat': 'II', 'resp': 'button'}",31,301,Left,38.05762710402746,52.097857670330654,1.902881355201373,0.8183512346243872,Left,Correct,0.0,0.0,-45,45,1236,-1,-1
"{'cat': 'II', 'resp': 'button'}",31,302,Left,23.962756297574444,54.69156577474967,1.1981378148787223,0.8590931062563826,Left,Correct,0.0,0.0,-45,45,13579,-1,-1
"{'cat': 'II', 'resp': 'button'}",31,303,Left,24.189920466451127,36.280670824984696,1.2094960233225565,0.5698954446554073,Left,Correct,0.0,0.0,-45,45,1704,-1,-1
"{'cat': 'II', 'resp': 'button'}",31,304,Right,34.88765520103273,23.18058140813406,1.7443827600516364,0.36411972128867054,Left,Incorrect,0.0,0.0,-45,45,982,-1,-1
"{'cat': 'II', 'resp': 'button'}",31,305,Right,53.290765541735055,41.050306774374555,2.6645382770867525,0.6448167109499121,Right,Correct,0.0,0.0,-45,45,1030,-1,-1
"{'cat': 'II', 'resp': 'button'}",31,306,Left,33.19756757450616,54.01717362439959,1.659878378725308,0.8484997791304906,Left,Correct,0.0,0.0,-45,45,944,-1,-1
"{'cat': 'II', 'resp': 'button'}",31,307,Right,73.13615885793442,43.086072176481146,3.6568079428967213,0.6767944391083638,Right,Correct,0.0,0.0,-45,45,1164,-1,-1
"{'cat': 'II', 'resp': 'button'}",31,308,Right,64.9789233888162,51.12893445183601,3.24894616944081,0.8031314242988106,Right,Correct,0.0,0.0,-45,45,822,-1,-1
"{'cat': 'II', 'resp': 'button'}",31,309,Right,82.82324829773415,65.24319608226659,4.141162414886708,1.0248377275438356,Right,Correct,0.0,0.0,-45,45,693,-1,-1
"{'cat': 'II', 'resp': 'button'}",31,310,Right,32.89920123834338,13.584758431496848,1.644960061917169,0.21338888644591247,Left,Incorrect,0.0,0.0,-45,45,837,-1,-1
"{'cat': 'II', 'resp': 'button'}",31,311,Right,85.05065854007039,57.00414716574167,4.25253292700352,0.8954190498002271,Right,Correct,0.0,0.0,-45,45,1312,-1,-1
"{'cat': 'II', 'resp': 'button'}",31,312,Left,36.59968667390032,59.387455726987035,1.8299843336950161,0.9328559731364576,Left,Correct,0.0,0.0,-45,45,1871,-1,-1
"{'cat': 'II', 'resp': 'button'}",31,313,Right,50.60298656212496,27.170408172472627,2.530149328106248,0.4267917735483804,Right,Correct,0.0,0.0,-45,45,3289,-1,-1
"{'cat': 'II', 'resp': 'button'}",31,314,Left,50.819811249552885,80.12442370428536,2.5409905624776443,1.258591504412494,Left,Correct,0.0,0.0,-45,45,1038,-1,-1
"{'cat': 'II', 'resp': 'button'}",31,315,Right,83.33309740457685,57.0819185224437,4.166654870228842,0.8966406794146013,Right,Correct,0.0,0.0,-45,45,895,-1,-1
"{'cat': 'II', 'resp': 'button'}",31,316,Right,63.92239764033835,35.90870953373182,3.1961198820169177,0.5640526903553084,Right,Correct,0.0,0.0,-45,45,896,-1,-1
"{'cat': 'II', 'resp': 'button'}",31,317,Right,73.10436431268505,50.053174332419914,3.6552182156342523,0.786233423857898,Right,Correct,0.0,0.0,-45,45,1129,-1,-1
"{'cat': 'II', 'resp': 'button'}",31,318,Left,49.801714709013865,62.147694346251484,2.4900857354506933,0.9762136999786378,Right,Incorrect,0.0,0.0,-45,45,1498,-1,-1
"{'cat': 'II', 'resp': 'button'}",31,319,Right,85.29639383858137,62.00012656753496,4.264819691929068,0.9738957107310259,Right,Correct,0.0,0.0,-45,45,823,-1,-1
"{'cat': 'II', 'resp': 'button'}",31,320,Right,78.59436570794276,48.70904679180772,3.9297182853971377,0.765119917822523,Right,Correct,0.0,0.0,-45,45,698,-1,-1
"{'cat': 'II', 'resp': 'button'}",31,321,Left,55.03228019229796,68.0355251605019,2.7516140096148978,1.0686995301367817,Left,Correct,0.0,0.0,-45,45,804,-1,-1
"{'cat': 'II', 'resp': 'button'}",31,322,Left,26.519092616687715,57.75625729073168,1.3259546308343857,0.9072331680170229,Left,Correct,0.0,0.0,-45,45,773,-1,-1
"{'cat': 'II', 'resp': 'button'}",31,323,Right,64.73912064830525,39.64564917312082,3.236956032415262,0.6227524009453732,Right,Correct,0.0,0.0,-45,45,1162,-1,-1
"{'cat': 'II', 'resp': 'button'}",31,324,Left,43.60725709536339,57.53310979123367,2.1803628547681693,0.9037279752915733,Left,Correct,0.0,0.0,-45,45,1275,-1,-1
"{'cat': 'II', 'resp': 'button'}",31,325,Left,43.30505942941391,68.79993299534166,2.1652529714706956,1.0807068203281769,Left,Correct,0.0,0.0,-45,45,981,-1,-1
"{'cat': 'II', 'resp': 'button'}",31,326,Left,46.5624903510288,59.894371701851384,2.32812451755144,0.9408185906495635,Left,Correct,0.0,0.0,-45,45,665,-1,-1
"{'cat': 'II', 'resp': 'button'}",31,327,Right,64.0616595877884,38.50788652675728,3.20308297938942,0.6048804670886503,Right,Correct,0.0,0.0,-45,45,831,-1,-1
"{'cat': 'II', 'resp': 'button'}",31,328,Right,60.04889046136469,49.53326296097166,3.0024445230682346,0.7780666751325999,Right,Correct,0.0,0.0,-45,45,745,-1,-1
"{'cat': 'II', 'resp': 'button'}",31,329,Right,62.34418509879063,37.65411217056427,3.117209254939531,0.5914694108624536,Right,Correct,0.0,0.0,-45,45,623,-1,-1
"{'cat': 'II', 'resp': 'button'}",31,330,Right,79.13882029757328,61.44418762737651,3.9569410148786637,0.9651630422797944,Right,Correct,0.0,0.0,-45,45,858,-1,-1
"{'cat': 'II', 'resp': 'button'}",31,331,Right,39.637903231127915,26.655067526204064,1.9818951615563958,0.4186968216063128,Left,Incorrect,0.0,0.0,-45,45,2239,-1,-1
"{'cat': 'II', 'resp': 'button'}",31,332,Left,60.85840604080007,77.00739200046488,3.0429203020400037,1.2096292849038492,Left,Correct,0.0,0.0,-45,45,1094,-1,-1
"{'cat': 'II', 'resp': 'button'}",31,333,Left,27.959406088156594,49.302833307701306,1.3979703044078298,0.774447094603183,Left,Correct,0.0,0.0,-45,45,1852,-1,-1
"{'cat': 'II', 'resp': 'button'}",31,334,Right,73.51435581491718,54.671671874704586,3.6757177907458587,0.8587806136052182,Right,Correct,0.0,0.0,-45,45,1199,-1,-1
"{'cat': 'II', 'resp': 'button'}",31,335,Right,73.27664756790188,49.33052380486164,3.6638323783950937,0.7748820559154488,Right,Correct,0.0,0.0,-45,45,594,-1,-1
"{'cat': 'II', 'resp': 'button'}",31,336,Left,25.147788056074738,51.068221273273885,1.257389402803737,0.8021777439200762,Left,Correct,0.0,0.0,-45,45,827,-1,-1
"{'cat': 'II', 'resp': 'button'}",31,337,Right,69.91900011073967,53.90265578209439,3.4959500055369834,0.8467009370700356,Right,Correct,0.0,0.0,-45,45,731,-1,-1
"{'cat': 'II', 'resp': 'button'}",31,338,Left,53.5701974609254,78.56596769402633,2.67850987304627,1.2341113346486305,Left,Correct,0.0,0.0,-45,45,1103,-1,-1
"{'cat': 'II', 'resp': 'button'}",31,339,Left,38.11584703650769,53.50575668805024,1.9057923518253843,0.840466460679708,Left,Correct,0.0,0.0,-45,45,1735,-1,-1
"{'cat': 'II', 'resp': 'button'}",31,340,Right,87.90951204104543,62.58118868388583,4.395475602052271,0.9830230131110622,Right,Correct,0.0,0.0,-45,45,787,-1,-1
"{'cat': 'II', 'resp': 'button'}",31,341,Left,36.25495443435776,53.84881369987464,1.8127477217178878,0.8458551876202579,Left,Correct,0.0,0.0,-45,45,993,-1,-1
"{'cat': 'II', 'resp': 'button'}",31,342,Right,55.45372512825665,28.17974181993511,2.772686256412833,0.44264634940782605,Right,Correct,0.0,0.0,-45,45,5520,-1,-1
"{'cat': 'II', 'resp': 'button'}",31,343,Right,79.01890901403242,51.32490479435859,3.950945450701621,0.8062097192407625,Right,Correct,0.0,0.0,-45,45,968,-1,-1
"{'cat': 'II', 'resp': 'button'}",31,344,Left,34.158733926257646,54.353986866147864,1.7079366963128821,0.8537904291600313,Left,Correct,0.0,0.0,-45,45,781,-1,-1
"{'cat': 'II', 'resp': 'button'}",31,345,Right,57.354447615296486,49.58057579645422,2.867722380764824,0.7788098634144623,Right,Correct,0.0,0.0,-45,45,626,-1,-1
"{'cat': 'II', 'resp': 'button'}",31,346,Left,21.120327126142076,39.52598583281582,1.0560163563071037,0.6208727335913422,Left,Correct,0.0,0.0,-45,45,698,-1,-1
"{'cat': 'II', 'resp': 'button'}",31,347,Right,75.22793624286412,51.122898422584164,3.761396812143206,0.8030366105730383,Right,Correct,0.0,0.0,-45,45,699,-1,-1
"{'cat': 'II', 'resp': 'button'}",31,348,Right,41.50006533515125,23.78768970049016,2.0750032667575624,0.37365615604466734,Left,Incorrect,0.0,0.0,-45,45,882,-1,-1
"{'cat': 'II', 'resp': 'button'}",31,349,Left,60.674932631485404,77.56635525158686,3.03374663157427,1.2184094591206067,Left,Correct,0.0,0.0,-45,45,1026,-1,-1
"{'cat': 'II', 'resp': 'button'}",31,350,Left,16.039412534509516,40.46872567067791,0.8019706267254759,0.6356812563357119,Left,Correct,0.0,0.0,-45,45,696,-1,-1
"{'cat': 'II', 'resp': 'button'}",31,351,Right,60.56553406220741,51.84979098488088,3.028276703110371,0.8144546122413404,Right,Correct,0.0,0.0,-45,45,631,-1,-1
"{'cat': 'II', 'resp': 'button'}",31,352,Left,25.213398716145697,52.341362657459186,1.2606699358072848,0.8221762020177645,Left,Correct,0.0,0.0,-45,45,660,-1,-1
"{'cat': 'II', 'resp': 'button'}",31,353,Left,42.81761700082183,72.52400164113148,2.1408808500410914,1.1392043538235639,Left,Correct,0.0,0.0,-45,45,1838,-1,-1
"{'cat': 'II', 'resp': 'button'}",31,354,Left,58.89385179911576,74.8724637536553,2.944692589955788,1.1760939104232577,Right,Incorrect,0.0,0.0,-45,45,608,-1,-1
"{'cat': 'II', 'resp': 'button'}",31,355,Left,30.73437007937593,47.57091079809099,1.5367185039687965,0.7472421194392902,Left,Correct,0.0,0.0,-45,45,865,-1,-1
"{'cat': 'II', 'resp': 'button'}",31,356,Left,48.099875501022815,62.796044657440014,2.4049937750511408,0.9863979628515507,Left,Correct,0.0,0.0,-45,45,1081,-1,-1
"{'cat': 'II', 'resp': 'button'}",31,357,Right,83.76175542912705,56.22543783711615,4.1880877714563525,0.8831871122697683,Right,Correct,0.0,0.0,-45,45,739,-1,-1
"{'cat': 'II', 'resp': 'button'}",31,358,Left,52.913544710823174,73.45717490736703,2.645677235541159,1.1538626052122238,Left,Correct,0.0,0.0,-45,45,1020,-1,-1
"{'cat': 'II', 'resp': 'button'}",31,359,Left,25.350304745970938,37.51904916945362,1.2675152372985468,0.5893478462021486,Left,Correct,0.0,0.0,-45,45,899,-1,-1
"{'cat': 'II', 'resp': 'button'}",31,360,Left,58.61402681671605,74.07704940204921,2.9307013408358022,1.1635995710054299,Left,Correct,0.0,0.0,-45,45,996,-1,-1
"{'cat': 'II', 'resp': 'button'}",31,361,Left,28.093257427448847,61.04701822667296,1.4046628713724425,0.9589243199223899,Left,Correct,0.0,0.0,-45,45,781,-1,-1
"{'cat': 'II', 'resp': 'button'}",31,362,Left,40.30905937966896,66.85442568987145,2.015452968983448,1.0501468630363244,Left,Correct,0.0,0.0,-45,45,720,-1,-1
"{'cat': 'II', 'resp': 'button'}",31,363,Right,80.79533806410674,50.255895194841266,4.039766903205337,0.7894177557184594,Right,Correct,0.0,0.0,-45,45,610,-1,-1
"{'cat': 'II', 'resp': 'button'}",31,364,Left,42.95619569541924,50.47375693534806,2.147809784770962,0.7928399199358316,Left,Correct,0.0,0.0,-45,45,819,-1,-1
"{'cat': 'II', 'resp': 'button'}",31,365,Right,30.838317589591398,10.768546899927294,1.5419158794795698,0.16915193915324367,Left,Incorrect,0.0,0.0,-45,45,721,-1,-1
"{'cat': 'II', 'resp': 'button'}",31,366,Left,53.1452197174719,61.82757243956399,2.657260985873595,0.9711852368271251,Left,Correct,0.0,0.0,-45,45,1108,-1,-1
"{'cat': 'II', 'resp': 'button'}",31,367,Right,59.32040933479239,29.463770994337615,2.9660204667396193,0.4628158325143154,Right,Correct,0.0,0.0,-45,45,981,-1,-1
"{'cat': 'II', 'resp': 'button'}",31,368,Left,59.92011620290614,69.57870960917307,2.996005810145307,1.0929398147721785,Right,Incorrect,0.0,0.0,-45,45,598,-1,-1
"{'cat': 'II', 'resp': 'button'}",31,369,Right,42.0382082075717,31.97098959221644,2.101910410378585,0.5021991301545146,Left,Incorrect,0.0,0.0,-45,45,928,-1,-1
"{'cat': 'II', 'resp': 'button'}",31,370,Left,19.559231589669746,43.80735096075354,0.9779615794834874,0.6881242597576654,Left,Correct,0.0,0.0,-45,45,706,-1,-1
"{'cat': 'II', 'resp': 'button'}",31,371,Left,41.13239115248121,66.96295921036766,2.0566195576240607,1.05185170358962,Left,Correct,0.0,0.0,-45,45,1114,-1,-1
"{'cat': 'II', 'resp': 'button'}",31,372,Left,24.568365951643777,37.31675041483305,1.228418297582189,0.5861701447954168,Left,Correct,0.0,0.0,-45,45,729,-1,-1
"{'cat': 'II', 'resp': 'button'}",31,373,Right,60.59677523102635,44.42778834086898,3.0298387615513174,0.6978700673345812,Right,Correct,0.0,0.0,-45,45,762,-1,-1
"{'cat': 'II', 'resp': 'button'}",31,374,Right,69.20149796795879,55.9604743278873,3.4600748983979397,0.8790250751994547,Right,Correct,0.0,0.0,-45,45,678,-1,-1
"{'cat': 'II', 'resp': 'button'}",31,375,Left,58.08223852829417,71.49544616804864,2.9041119264147084,1.1230478422333308,Left,Correct,0.0,0.0,-45,45,977,-1,-1
"{'cat': 'II', 'resp': 'button'}",31,376,Left,46.51950824164419,77.43233255668747,2.3259754120822094,1.2163042355520557,Left,Correct,0.0,0.0,-45,45,1131,-1,-1
"{'cat': 'II', 'resp': 'button'}",31,377,Left,45.872206814365796,55.38817381250944,2.2936103407182897,0.8700353997256711,Left,Correct,0.0,0.0,-45,45,728,-1,-1
"{'cat': 'II', 'resp': 'button'}",31,378,Left,47.60339673021919,74.95268825649453,2.380169836510959,1.177354073967046,Left,Correct,0.0,0.0,-45,45,777,-1,-1
"{'cat': 'II', 'resp': 'button'}",31,379,Right,60.48236269942584,52.15733696998996,3.0241181349712924,0.819285533278639,Right,Correct,0.0,0.0,-45,45,790,-1,-1
"{'cat': 'II', 'resp': 'button'}",31,380,Left,43.828485486580085,57.11055159555629,2.1914242743290044,0.8970904466753024,Left,Correct,0.0,0.0,-45,45,725,-1,-1
"{'cat': 'II', 'resp': 'button'}",31,381,Left,27.934506024413075,55.57219753034684,1.3967253012206537,0.8729260375258925,Left,Correct,0.0,0.0,-45,45,717,-1,-1
"{'cat': 'II', 'resp': 'button'}",31,382,Right,55.39838176981282,35.473034771961174,2.769919088490641,0.5572091272006425,Right,Correct,0.0,0.0,-45,45,738,-1,-1
"{'cat': 'II', 'resp': 'button'}",31,383,Left,18.84502835353389,35.590861101755614,0.9422514176766945,0.5590599388610508,Left,Correct,0.0,0.0,-45,45,599,-1,-1
"{'cat': 'II', 'resp': 'button'}",31,384,Right,38.85695242808877,14.996360918712384,1.9428476214044383,0.2355622864640395,Right,Correct,0.0,0.0,-45,45,680,-1,-1
"{'cat': 'II', 'resp': 'button'}",31,385,Right,85.73649443172917,59.38316579889828,4.286824721586458,0.9327885871036175,Right,Correct,0.0,0.0,-45,45,1180,-1,-1
"{'cat': 'II', 'resp': 'button'}",31,386,Left,41.627102412772594,58.63272466058614,2.0813551206386296,0.9210006852682527,Left,Correct,0.0,0.0,-45,45,1845,-1,-1
"{'cat': 'II', 'resp': 'button'}",31,387,Right,52.24947317731512,32.4455949784067,2.612473658865756,0.509654214127562,Right,Correct,0.0,0.0,-45,45,626,-1,-1
"{'cat': 'II', 'resp': 'button'}",31,388,Right,79.78011265389065,50.82488161477981,3.989005632694533,0.7983553735028159,Right,Correct,0.0,0.0,-45,45,583,-1,-1
"{'cat': 'II', 'resp': 'button'}",31,389,Right,59.930477793269375,46.76701702969541,2.9965238896634685,0.7346145856539991,Left,Incorrect,0.0,0.0,-45,45,1078,-1,-1
"{'cat': 'II', 'resp': 'button'}",31,390,Left,15.76651001700657,34.51063052029927,0.7883255008503285,0.5420917165666195,Left,Correct,0.0,0.0,-45,45,584,-1,-1
"{'cat': 'II', 'resp': 'button'}",31,391,Left,37.39268326780222,51.039315162923714,1.869634163390111,0.8017236878004764,Left,Correct,0.0,0.0,-45,45,890,-1,-1
"{'cat': 'II', 'resp': 'button'}",31,392,Left,60.80182643312945,87.69816525023693,3.0400913216564724,1.3775595584172402,Right,Incorrect,0.0,0.0,-45,45,660,-1,-1
"{'cat': 'II', 'resp': 'button'}",31,393,Left,23.7016566306953,51.714298340937646,1.185082831534765,0.8123262987672027,Left,Correct,0.0,0.0,-45,45,1432,-1,-1
"{'cat': 'II', 'resp': 'button'}",31,394,Right,58.85188436285659,28.8494650814685,2.9425942181428293,0.45316633779968357,Right,Correct,0.0,0.0,-45,45,698,-1,-1
"{'cat': 'II', 'resp': 'button'}",31,395,Right,47.54442005541486,35.355141711113,2.377221002770743,0.5553572673312933,Right,Correct,0.0,0.0,-45,45,1010,-1,-1
"{'cat': 'II', 'resp': 'button'}",31,396,Left,44.62528393591719,68.40173701267672,2.2312641967958595,1.0744519724590311,Left,Correct,0.0,0.0,-45,45,987,-1,-1
"{'cat': 'II', 'resp': 'button'}",31,397,Right,55.351171191206305,32.377393581071836,2.767558559560315,0.508582909083403,Right,Correct,0.0,0.0,-45,45,820,-1,-1
"{'cat': 'II', 'resp': 'button'}",31,398,Left,19.7242016073581,38.21684125251119,0.986210080367905,0.6003087386114825,Left,Correct,0.0,0.0,-45,45,664,-1,-1
"{'cat': 'II', 'resp': 'button'}",31,399,Right,62.58728562187968,35.35091826779387,3.129364281093984,0.5552909256387722,Right,Correct,0.0,0.0,-45,45,644,-1,-1
