condition,subject,trial,cat,x,y,xt,yt,resp,fb,rotation,su,target_angle_left,target_angle_right,rt,mt,ep
"{'cat': 'RB', 'resp': 'reach'}",58,0,Left,35.90073884678018,37.551883929154165,1.795036942339009,0.5898636134014368,Right,Incorrect,0.0,0.0,-45,45,2004,1017,-0.85
"{'cat': 'RB', 'resp': 'reach'}",58,1,Right,62.09946333582401,53.07688383775288,3.1049731667912006,0.8337297417006163,Left,Incorrect,0.0,0.0,-45,45,2004,533,-2.24
"{'cat': 'RB', 'resp': 'reach'}",58,2,Right,54.65583289301869,68.15283770522937,2.7327916446509346,1.0705422712802304,Right,Correct,0.0,0.0,-45,45,2008,1146,-0.87
"{'cat': 'RB', 'resp': 'reach'}",58,3,Right,56.671635033081515,23.99443085938487,2.833581751654076,0.3769036385745587,Right,Correct,0.0,0.0,-45,45,2012,1038,-0.92
"{'cat': 'RB', 'resp': 'reach'}",58,4,Right,68.45602665938105,48.08812637574356,3.4228013329690525,0.7553665227346676,Left,Incorrect,0.0,0.0,-45,45,2004,1458,-2.44
"{'cat': 'RB', 'resp': 'reach'}",58,5,Right,59.76414411320389,13.047641596813925,2.9882072056601947,0.20495187493611614,Right,Correct,0.0,0.0,-45,45,2008,534,-0.93
"{'cat': 'RB', 'resp': 'reach'}",58,6,Left,46.93946445362779,39.519608405987775,2.34697322268139,0.620772557204983,Right,Incorrect,0.0,0.0,-45,45,2012,588,-0.67
"{'cat': 'RB', 'resp': 'reach'}",58,7,Right,63.60955564062698,46.710812775383566,3.180477782031349,0.7337317312917662,Right,Correct,0.0,0.0,-45,45,2008,521,-1.02
"{'cat': 'RB', 'resp': 'reach'}",58,8,Left,42.78073995701513,33.31257743716277,2.1390369978507566,0.5232727427436583,Left,Correct,0.0,0.0,-45,45,2004,1037,-2.71
"{'cat': 'RB', 'resp': 'reach'}",58,9,Right,61.25520055528434,19.853928393307825,3.062760027764217,0.31186477792656836,Left,Incorrect,0.0,0.0,-45,45,2004,796,-2.32
"{'cat': 'RB', 'resp': 'reach'}",58,10,Left,46.578939577597346,54.527012456378955,2.328946978879867,0.8565083087757963,Left,Correct,0.0,0.0,-45,45,2013,516,-2.53
"{'cat': 'RB', 'resp': 'reach'}",58,11,Right,51.35215884118926,36.208388078865454,2.567607942059463,0.5687600299344596,Right,Correct,0.0,0.0,-45,45,2004,517,-0.95
"{'cat': 'RB', 'resp': 'reach'}",58,12,Left,37.54100554589218,79.8614602150304,1.8770502772946092,1.254460883582465,Left,Correct,0.0,0.0,-45,45,2008,534,-2.57
"{'cat': 'RB', 'resp': 'reach'}",58,13,Left,37.42987544257971,20.179688150673158,1.8714937721289855,0.31698180022943895,Right,Incorrect,0.0,0.0,-45,45,2004,954,-0.97
"{'cat': 'RB', 'resp': 'reach'}",58,14,Left,40.659521960231565,80.65533739043104,2.032976098011578,1.2669310770929216,Right,Incorrect,0.0,0.0,-45,45,2004,521,-0.9
"{'cat': 'RB', 'resp': 'reach'}",58,15,Right,66.01632506544027,45.66589542353431,3.3008162532720133,0.7173182079108757,Left,Incorrect,0.0,0.0,-45,45,2008,433,-2.61
"{'cat': 'RB', 'resp': 'reach'}",58,16,Right,68.04134589712649,67.82123973925887,3.4020672948563244,1.065333542611039,Right,Correct,0.0,0.0,-45,45,2004,1679,-1.13
"{'cat': 'RB', 'resp': 'reach'}",58,17,Right,60.007539798948876,32.217303227361754,3.000376989947444,0.506068215687772,Right,Correct,0.0,0.0,-45,45,2005,1371,-0.93
"{'cat': 'RB', 'resp': 'reach'}",58,18,Right,63.942742178072415,69.153818634165,3.1971371089036205,1.0862656429438686,Right,Correct,0.0,0.0,-45,45,2004,817,-0.93
"{'cat': 'RB', 'resp': 'reach'}",58,19,Right,66.1643966241926,68.87932012700492,3.3082198312096303,1.0819538304762912,Right,Correct,0.0,0.0,-45,45,2012,2613,-0.98
"{'cat': 'RB', 'resp': 'reach'}",58,20,Left,44.863090716017595,59.17239891209809,2.2431545358008798,0.9294778685876601,Left,Correct,0.0,0.0,-45,45,2012,1192,-2.54
"{'cat': 'RB', 'resp': 'reach'}",58,21,Right,58.05764023901266,87.92204470246706,2.9028820119506333,1.3810762486293198,Right,Correct,0.0,0.0,-45,45,2004,1442,-0.98
"{'cat': 'RB', 'resp': 'reach'}",58,22,Left,46.08661087369748,74.53583221604843,2.304330543684874,1.1708061145956958,Left,Correct,0.0,0.0,-45,45,2005,725,-2.71
"{'cat': 'RB', 'resp': 'reach'}",58,23,Left,39.211433463229255,86.74380407728788,1.9605716731614626,1.3625684881681996,Left,Correct,0.0,0.0,-45,45,2008,775,-2.78
"{'cat': 'RB', 'resp': 'reach'}",58,24,Left,36.63751712687827,46.380501532547015,1.8318758563439135,0.7285432144222992,Left,Correct,0.0,0.0,-45,45,2013,583,-2.44
"{'cat': 'RB', 'resp': 'reach'}",58,25,Left,41.19277685637385,81.3955812863657,2.0596388428186923,1.2785588010195865,Right,Incorrect,0.0,0.0,-45,45,2004,662,-0.85
"{'cat': 'RB', 'resp': 'reach'}",58,26,Right,56.3645560992543,65.81455845246948,2.818227804962715,1.0338126666676706,Right,Correct,0.0,0.0,-45,45,2004,879,-0.88
"{'cat': 'RB', 'resp': 'reach'}",58,27,Left,36.51012613461924,27.390308952483267,1.825506306730962,0.4302459669233808,Left,Correct,0.0,0.0,-45,45,2004,783,-2.47
"{'cat': 'RB', 'resp': 'reach'}",58,28,Left,41.474767249938715,77.81936185595814,2.0737383624969357,1.2223836775686192,Left,Correct,0.0,0.0,-45,45,2012,830,-2.57
"{'cat': 'RB', 'resp': 'reach'}",58,29,Right,56.66065615910675,36.22534770948315,2.8330328079553375,0.5690264311892406,Right,Correct,0.0,0.0,-45,45,2004,5604,-0.86
"{'cat': 'RB', 'resp': 'reach'}",58,30,Left,41.489317335505234,68.38165403765517,2.074465866775262,1.0741365098250812,Left,Correct,0.0,0.0,-45,45,2004,8200,-2.71
"{'cat': 'RB', 'resp': 'reach'}",58,31,Left,32.2465866972877,36.22056067979084,1.6123293348643848,0.5689512367026712,Left,Correct,0.0,0.0,-45,45,2004,17516,-2.53
"{'cat': 'RB', 'resp': 'reach'}",58,32,Right,62.16570141373973,82.40164848130252,3.108285070686987,1.2943620675627425,Right,Correct,0.0,0.0,-45,45,2008,1038,-0.78
"{'cat': 'RB', 'resp': 'reach'}",58,33,Left,31.818763811772342,30.704696339067212,1.590938190588617,0.4823082422475948,Left,Correct,0.0,0.0,-45,45,2012,659,-2.38
"{'cat': 'RB', 'resp': 'reach'}",58,34,Left,47.44832959170012,66.10507174010925,2.3724164795850062,1.0383760387187673,Left,Correct,0.0,0.0,-45,45,2013,1212,-2.57
"{'cat': 'RB', 'resp': 'reach'}",58,35,Left,48.352032358209065,52.59453854976708,2.4176016179104534,0.8261530796344673,Left,Correct,0.0,0.0,-45,45,2012,1838,-2.55
"{'cat': 'RB', 'resp': 'reach'}",58,36,Left,40.38542349601118,35.82367434311326,2.019271174800559,0.5627169607045889,Left,Correct,0.0,0.0,-45,45,2008,825,-2.38
"{'cat': 'RB', 'resp': 'reach'}",58,37,Left,39.243725811918644,60.05804169160881,1.9621862905959322,0.9433895128367387,Left,Correct,0.0,0.0,-45,45,2012,658,-2.49
"{'cat': 'RB', 'resp': 'reach'}",58,38,Right,56.593448680141286,51.27553962607907,2.829672434007064,0.8054342929907116,Right,Correct,0.0,0.0,-45,45,2009,895,-0.8
"{'cat': 'RB', 'resp': 'reach'}",58,39,Left,37.49434245303923,87.7157411253427,1.8747171226519614,1.3778356396178038,Left,Correct,0.0,0.0,-45,45,2004,783,-2.54
"{'cat': 'RB', 'resp': 'reach'}",58,40,Right,64.18834646442274,55.46370817639329,3.209417323221137,0.8712218907390264,Right,Correct,0.0,0.0,-45,45,2013,1037,-0.87
"{'cat': 'RB', 'resp': 'reach'}",58,41,Right,64.5748934989497,37.70927463056346,3.228744674947485,0.5923359007578907,Right,Correct,0.0,0.0,-45,45,2004,2184,-0.85
"{'cat': 'RB', 'resp': 'reach'}",58,42,Left,37.081138588879995,13.28807370730049,1.8540569294439997,0.20872857369607456,Right,Incorrect,0.0,0.0,-45,45,2004,900,-0.81
"{'cat': 'RB', 'resp': 'reach'}",58,43,Left,37.14782558247055,66.58396079175066,1.8573912791235276,1.0458984103513733,Left,Correct,0.0,0.0,-45,45,2004,646,-2.47
"{'cat': 'RB', 'resp': 'reach'}",58,44,Right,61.09765746368393,48.8222792573067,3.0548828731841966,0.7668985692313202,Right,Correct,0.0,0.0,-45,45,2008,663,-0.82
"{'cat': 'RB', 'resp': 'reach'}",58,45,Right,61.9386736737154,74.11795531388003,3.09693368368577,1.1642421195659105,Right,Correct,0.0,0.0,-45,45,2004,745,-0.83
"{'cat': 'RB', 'resp': 'reach'}",58,46,Right,67.63583503577237,40.29957338988628,3.381791751788619,0.6330242185223471,Right,Correct,0.0,0.0,-45,45,2004,1991,-0.88
"{'cat': 'RB', 'resp': 'reach'}",58,47,Right,64.4401289345206,39.39984840099264,3.22200644672603,0.6188913714455502,Right,Correct,0.0,0.0,-45,45,2008,4904,-0.85
"{'cat': 'RB', 'resp': 'reach'}",58,48,Left,37.10201461603408,18.869221837426736,1.855100730801704,0.29639704351707963,Left,Correct,0.0,0.0,-45,45,2004,3504,-2.57
"{'cat': 'RB', 'resp': 'reach'}",58,49,Right,62.509389094501635,41.634102263428474,3.125469454725082,0.6539869490479654,Right,Correct,0.0,0.0,-45,45,2005,766,-0.84
"{'cat': 'RB', 'resp': 'reach'}",58,50,Left,40.09001270963934,27.298171991428298,2.0045006354819668,0.42879868292350903,Left,Correct,0.0,0.0,-45,45,2017,5691,-2.51
"{'cat': 'RB', 'resp': 'reach'}",58,51,Left,36.78235358180932,40.277977434551715,1.839117679090466,0.6326849900492157,Left,Correct,0.0,0.0,-45,45,2009,1054,-2.4
"{'cat': 'RB', 'resp': 'reach'}",58,52,Right,55.486059190237384,62.736400281187514,2.774302959511869,0.9854610711802367,Right,Correct,0.0,0.0,-45,45,2005,1329,-0.93
"{'cat': 'RB', 'resp': 'reach'}",58,53,Left,42.12109408330791,43.33662123892897,2.1060547041653956,0.6807300545781133,Left,Correct,0.0,0.0,-45,45,2004,1108,-2.27
"{'cat': 'RB', 'resp': 'reach'}",58,54,Left,38.329203815819554,49.61232170068901,1.9164601907909775,0.7793085269120904,Left,Correct,0.0,0.0,-45,45,2004,883,-2.44
"{'cat': 'RB', 'resp': 'reach'}",58,55,Left,34.68771376782742,46.75103508714623,1.7343856883913709,0.7343635418874863,Left,Correct,0.0,0.0,-45,45,2005,1299,-2.48
"{'cat': 'RB', 'resp': 'reach'}",58,56,Left,36.751916764512856,45.158043453455264,1.8375958382256428,0.7093408878193186,Left,Correct,0.0,0.0,-45,45,2012,675,-2.43
"{'cat': 'RB', 'resp': 'reach'}",58,57,Right,66.80393148746636,56.41433067412768,3.3401965743733175,0.8861542340151243,Right,Correct,0.0,0.0,-45,45,2008,762,-0.76
"{'cat': 'RB', 'resp': 'reach'}",58,58,Left,38.27470621992865,82.85202997314357,1.9137353109964326,1.301436643493146,Left,Correct,0.0,0.0,-45,45,2004,725,-2.49
"{'cat': 'RB', 'resp': 'reach'}",58,59,Right,64.56324626962709,48.53513861827839,3.2281623134813544,0.7623881746207283,Right,Correct,0.0,0.0,-45,45,2004,555,-0.77
"{'cat': 'RB', 'resp': 'reach'}",58,60,Right,63.31106842774073,50.38267064380421,3.1655534213870364,0.7914091398140473,Right,Correct,0.0,0.0,-45,45,2004,780,-0.79
"{'cat': 'RB', 'resp': 'reach'}",58,61,Right,59.51718331721714,58.34748371449753,2.9758591658608573,0.9165201309645777,Right,Correct,0.0,0.0,-45,45,2004,1167,-0.93
"{'cat': 'RB', 'resp': 'reach'}",58,62,Right,68.2327434060998,30.257939674459323,3.4116371703049904,0.47529060497022274,Right,Correct,0.0,0.0,-45,45,2004,904,-0.85
"{'cat': 'RB', 'resp': 'reach'}",58,63,Right,62.67990198522847,71.44343698444068,3.1339950992614236,1.122230883887621,Right,Correct,0.0,0.0,-45,45,2013,808,-0.91
"{'cat': 'RB', 'resp': 'reach'}",58,64,Left,48.87007513738681,57.43612975942629,2.4435037568693407,0.9022046165142186,Left,Correct,0.0,0.0,-45,45,2004,1334,-2.51
"{'cat': 'RB', 'resp': 'reach'}",58,65,Left,46.776375798941544,31.147040630388993,2.3388187899470774,0.48925657012746426,Left,Correct,0.0,0.0,-45,45,2004,1833,-2.51
"{'cat': 'RB', 'resp': 'reach'}",58,66,Left,43.68688624971292,43.31015297216152,2.184344312485646,0.6803142920159639,Right,Incorrect,0.0,0.0,-45,45,2008,696,-0.91
"{'cat': 'RB', 'resp': 'reach'}",58,67,Left,47.46870437937371,34.40958480712104,2.3734352189686856,0.5405044942156322,Left,Correct,0.0,0.0,-45,45,2008,846,-2.48
"{'cat': 'RB', 'resp': 'reach'}",58,68,Right,51.99508530696714,59.47064145331906,2.5997542653483574,0.9341626514700989,Right,Correct,0.0,0.0,-45,45,2004,1025,-0.87
"{'cat': 'RB', 'resp': 'reach'}",58,69,Right,54.433382690621826,46.733721879269936,2.7216691345310915,0.7340915866541151,Right,Correct,0.0,0.0,-45,45,2013,1875,-0.8
"{'cat': 'RB', 'resp': 'reach'}",58,70,Left,32.772142262208234,41.52331447999825,1.6386071131104116,0.6522466986153058,Left,Correct,0.0,0.0,-45,45,2004,683,-2.56
"{'cat': 'RB', 'resp': 'reach'}",58,71,Left,39.54035944398687,90.22529669280027,1.9770179721993435,1.417255646290304,Left,Correct,0.0,0.0,-45,45,2013,846,-2.47
"{'cat': 'RB', 'resp': 'reach'}",58,72,Right,60.81299512754462,38.469743699507205,3.040649756377231,0.6042813209592702,Right,Correct,0.0,0.0,-45,45,2004,1192,-0.85
"{'cat': 'RB', 'resp': 'reach'}",58,73,Left,33.71865639868814,65.25529196540872,1.685932819934407,1.0250277292319254,Left,Correct,0.0,0.0,-45,45,2017,858,-2.37
"{'cat': 'RB', 'resp': 'reach'}",58,74,Right,57.3318293504143,53.97819684216795,2.866591467520715,0.847887533266893,Right,Correct,0.0,0.0,-45,45,2012,900,-0.91
"{'cat': 'RB', 'resp': 'reach'}",58,75,Left,32.81218308151499,32.32575505317871,1.6406091540757495,0.507771772984047,Left,Correct,0.0,0.0,-45,45,2012,759,-2.44
"{'cat': 'RB', 'resp': 'reach'}",58,76,Left,32.14242786817939,33.42135785346444,1.6071213934089696,0.5249814615271972,Left,Correct,0.0,0.0,-45,45,2008,746,-2.39
"{'cat': 'RB', 'resp': 'reach'}",58,77,Right,54.8495431640038,41.621372470841415,2.74247715820019,0.6537869899335992,Right,Correct,0.0,0.0,-45,45,2005,745,-0.9
"{'cat': 'RB', 'resp': 'reach'}",58,78,Right,64.7663370141622,44.618796028988655,3.2383168507081104,0.700870409083461,Right,Correct,0.0,0.0,-45,45,2008,621,-0.88
"{'cat': 'RB', 'resp': 'reach'}",58,79,Left,34.73917442389271,61.54298937866107,1.7369587211946356,0.9667150165597814,Left,Correct,0.0,0.0,-45,45,2005,695,-2.46
"{'cat': 'RB', 'resp': 'reach'}",58,80,Left,43.34255542782462,24.680971259059785,2.1671277713912307,0.38768778995461517,Right,Incorrect,0.0,0.0,-45,45,2004,1712,-0.94
"{'cat': 'RB', 'resp': 'reach'}",58,81,Right,61.706294808249616,64.90660883392319,3.085314740412481,1.0195506274103974,Right,Correct,0.0,0.0,-45,45,2008,813,-0.88
"{'cat': 'RB', 'resp': 'reach'}",58,82,Right,54.41637079170073,54.00909240213859,2.7208185395850366,0.8483728395880545,Right,Correct,0.0,0.0,-45,45,2004,2025,-0.83
"{'cat': 'RB', 'resp': 'reach'}",58,83,Right,66.55252585720865,38.97429652820041,3.3276262928604323,0.6122068182591229,Right,Correct,0.0,0.0,-45,45,2004,850,-0.78
"{'cat': 'RB', 'resp': 'reach'}",58,84,Right,52.16378138383403,68.58412410574779,2.6081890691917016,1.0773169022175395,Right,Correct,0.0,0.0,-45,45,2017,1016,-0.88
"{'cat': 'RB', 'resp': 'reach'}",58,85,Right,66.84384193588971,65.87577537450944,3.3421920967944856,1.0347742598304512,Right,Correct,0.0,0.0,-45,45,2008,654,-0.84
"{'cat': 'RB', 'resp': 'reach'}",58,86,Right,53.56527581427405,75.0149227326395,2.6782637907137024,1.1783316508323312,Right,Correct,0.0,0.0,-45,45,2013,887,-0.87
"{'cat': 'RB', 'resp': 'reach'}",58,87,Left,36.104340348566744,54.28124663145672,1.8052170174283373,0.8526478282254005,Left,Correct,0.0,0.0,-45,45,2017,775,-2.52
"{'cat': 'RB', 'resp': 'reach'}",58,88,Right,68.58533764868551,35.51502707592759,3.429266882434275,0.5578687407688836,Right,Correct,0.0,0.0,-45,45,2004,696,-0.84
"{'cat': 'RB', 'resp': 'reach'}",58,89,Left,41.80964191509212,12.022382134831524,2.090482095754606,0.18884713696717945,Left,Correct,0.0,0.0,-45,45,2012,796,-2.5
"{'cat': 'RB', 'resp': 'reach'}",58,90,Right,52.03279571097824,37.58549936916699,2.601639785548912,0.590391643498394,Left,Incorrect,0.0,0.0,-45,45,2005,1583,-2.42
"{'cat': 'RB', 'resp': 'reach'}",58,91,Left,39.86055511485722,66.89838412867161,1.993027755742861,1.0508373605783137,Left,Correct,0.0,0.0,-45,45,2008,954,-2.44
"{'cat': 'RB', 'resp': 'reach'}",58,92,Right,51.22550560032264,45.93938651087117,2.561275280016132,0.7216141958648745,Right,Correct,0.0,0.0,-45,45,2008,675,-0.84
"{'cat': 'RB', 'resp': 'reach'}",58,93,Left,41.54640292564238,55.55078668126029,2.077320146282119,0.8725897166949054,Left,Correct,0.0,0.0,-45,45,2008,846,-2.44
"{'cat': 'RB', 'resp': 'reach'}",58,94,Right,55.36287568862732,44.85865416792074,2.768143784431366,0.7046380919193248,Right,Correct,0.0,0.0,-45,45,2004,713,-0.91
"{'cat': 'RB', 'resp': 'reach'}",58,95,Right,53.45952295041838,73.66799366909964,2.6729761475209193,1.1571741385777143,Right,Correct,0.0,0.0,-45,45,2013,1542,-0.88
"{'cat': 'RB', 'resp': 'reach'}",58,96,Right,53.106612666004274,56.71347006162348,2.655330633300214,0.890853104525905,Right,Correct,0.0,0.0,-45,45,2009,775,-0.95
"{'cat': 'RB', 'resp': 'reach'}",58,97,Left,33.59108334793663,39.259775787112176,1.6795541673968315,0.6166911159718702,Left,Correct,0.0,0.0,-45,45,2004,696,-2.4
"{'cat': 'RB', 'resp': 'reach'}",58,98,Right,62.91308517561013,22.23332302405784,3.1456542587805063,0.34924022138634453,Right,Correct,0.0,0.0,-45,45,2013,658,-0.9
"{'cat': 'RB', 'resp': 'reach'}",58,99,Right,58.33572768901228,64.24755460858186,2.9167863844506137,1.0091982278471492,Right,Correct,0.0,0.0,-45,45,2008,725,-0.87
"{'cat': 'RB', 'resp': 'reach'}",58,100,Left,42.60996663360022,48.83440563779391,2.130498331680011,0.7670890499705866,Left,Correct,0.0,0.0,-45,45,2004,1109,-2.28
"{'cat': 'RB', 'resp': 'reach'}",58,101,Right,59.006290752490436,51.18154478539895,2.950314537624522,0.8039578254859318,Right,Correct,0.0,0.0,-45,45,2004,520,-0.72
"{'cat': 'RB', 'resp': 'reach'}",58,102,Left,33.10683399963484,28.198323595192573,1.6553416999817419,0.4429382312510235,Left,Correct,0.0,0.0,-45,45,2012,1121,-2.37
"{'cat': 'RB', 'resp': 'reach'}",58,103,Left,41.059682923453906,83.24669702265982,2.0529841461726956,1.3076360590100171,Left,Correct,0.0,0.0,-45,45,2004,1891,-2.54
"{'cat': 'RB', 'resp': 'reach'}",58,104,Left,37.754073314606714,67.96502160052175,1.8877036657303359,1.0675920628063538,Left,Correct,0.0,0.0,-45,45,2004,846,-2.45
"{'cat': 'RB', 'resp': 'reach'}",58,105,Right,61.16076120240907,53.39535973702076,3.0580380601204538,0.8387323494280433,Right,Correct,0.0,0.0,-45,45,2004,817,-0.87
"{'cat': 'RB', 'resp': 'reach'}",58,106,Left,38.72488479469145,89.18668070302935,1.9362442397345723,1.4009411044734779,Left,Correct,0.0,0.0,-45,45,2004,796,-2.45
"{'cat': 'RB', 'resp': 'reach'}",58,107,Left,34.17617930877149,43.41922496822937,1.7088089654385743,0.6820275909237595,Left,Correct,0.0,0.0,-45,45,2009,775,-2.44
"{'cat': 'RB', 'resp': 'reach'}",58,108,Left,45.87044691047221,56.943288104530964,2.2935223455236105,0.8944630779022077,Left,Correct,0.0,0.0,-45,45,2008,792,-2.49
"{'cat': 'RB', 'resp': 'reach'}",58,109,Left,39.270994279729294,11.784179099546108,1.9635497139864646,0.18510545243860219,Left,Correct,0.0,0.0,-45,45,2004,1417,-2.36
"{'cat': 'RB', 'resp': 'reach'}",58,110,Right,58.84537997898355,60.80896945913461,2.942268998949178,0.955185058625917,Right,Correct,0.0,0.0,-45,45,2004,733,-0.83
"{'cat': 'RB', 'resp': 'reach'}",58,111,Right,65.1125350446454,29.553843783779897,3.2556267522322697,0.46423069258231653,Right,Correct,0.0,0.0,-45,45,2008,1813,-0.82
"{'cat': 'RB', 'resp': 'reach'}",58,112,Right,58.85537254824713,64.92375473792586,2.942768627412357,1.0198199546406672,Right,Correct,0.0,0.0,-45,45,2004,5117,-0.82
"{'cat': 'RB', 'resp': 'reach'}",58,113,Left,40.51680718303265,51.6497240006816,2.0258403591516325,0.8113119674024087,Left,Correct,0.0,0.0,-45,45,2004,1329,-2.5
"{'cat': 'RB', 'resp': 'reach'}",58,114,Left,45.11573913286409,46.05310709169712,2.2557869566432047,0.7234005145712985,Right,Incorrect,0.0,0.0,-45,45,2016,1338,-0.84
"{'cat': 'RB', 'resp': 'reach'}",58,115,Left,38.884563250219784,41.53426588498717,1.9442281625109894,0.6524187228826043,Left,Correct,0.0,0.0,-45,45,2004,746,-2.42
"{'cat': 'RB', 'resp': 'reach'}",58,116,Right,62.284883933724295,18.67858667119544,3.1142441966862147,0.2934025533283391,Right,Correct,0.0,0.0,-45,45,2008,813,-0.85
"{'cat': 'RB', 'resp': 'reach'}",58,117,Left,39.940790121420655,46.31049135197698,1.9970395060710329,0.7274434970775225,Left,Correct,0.0,0.0,-45,45,2004,950,-2.44
"{'cat': 'RB', 'resp': 'reach'}",58,118,Left,41.546364047485355,32.12692746709092,2.0773182023742676,0.5046485965651248,Left,Correct,0.0,0.0,-45,45,2009,862,-2.49
"{'cat': 'RB', 'resp': 'reach'}",58,119,Right,54.517435059304916,23.91837316305184,2.725871752965246,0.3757089270743146,Right,Correct,0.0,0.0,-45,45,2004,896,-0.88
"{'cat': 'RB', 'resp': 'reach'}",58,120,Right,53.082459768651724,31.74970785096818,2.654122988432586,0.49872324469111906,Right,Correct,0.0,0.0,-45,45,2009,1187,-0.77
"{'cat': 'RB', 'resp': 'reach'}",58,121,Right,58.0396721221502,15.755554748231376,2.9019836061075104,0.24748767525137738,Right,Correct,0.0,0.0,-45,45,2004,1137,-0.84
"{'cat': 'RB', 'resp': 'reach'}",58,122,Left,41.634512892771134,77.67453229122613,2.081725644638557,1.2201087000856956,Left,Correct,0.0,0.0,-45,45,2004,959,-2.46
"{'cat': 'RB', 'resp': 'reach'}",58,123,Left,33.830213002151964,76.10987225735431,1.6915106501075983,1.1955310777468096,Left,Correct,0.0,0.0,-45,45,2012,759,-2.44
"{'cat': 'RB', 'resp': 'reach'}",58,124,Left,46.2387647408628,33.6981089145861,2.31193823704314,0.5293286570296621,Right,Incorrect,0.0,0.0,-45,45,2008,1296,-0.89
"{'cat': 'RB', 'resp': 'reach'}",58,125,Right,56.606442569504445,64.27066678578245,2.8303221284752222,1.0095612730776584,Right,Correct,0.0,0.0,-45,45,2012,979,-0.88
"{'cat': 'RB', 'resp': 'reach'}",58,126,Right,66.96762502294011,61.465128856602234,3.3483812511470057,0.965491986339258,Right,Correct,0.0,0.0,-45,45,2012,708,-0.89
"{'cat': 'RB', 'resp': 'reach'}",58,127,Left,43.21820253584876,52.748898910281746,2.160910126792438,0.8285777665074588,Left,Correct,0.0,0.0,-45,45,2012,859,-2.49
"{'cat': 'RB', 'resp': 'reach'}",58,128,Right,54.842112322305034,42.41892193721403,2.7421056161152517,0.6663148676557525,Right,Correct,0.0,0.0,-45,45,2004,745,-0.89
"{'cat': 'RB', 'resp': 'reach'}",58,129,Left,31.769096966673683,61.12048854992259,1.588454848333684,0.9600783890612793,Left,Correct,0.0,0.0,-45,45,2004,867,-2.41
"{'cat': 'RB', 'resp': 'reach'}",58,130,Right,58.73064019215263,23.367185954019398,2.9365320096076313,0.36705089864106966,Right,Correct,0.0,0.0,-45,45,2009,691,-0.9
"{'cat': 'RB', 'resp': 'reach'}",58,131,Left,41.94531951209156,51.381631278178176,2.0972659756045777,0.8071007767649204,Left,Correct,0.0,0.0,-45,45,2004,713,-2.51
"{'cat': 'RB', 'resp': 'reach'}",58,132,Right,57.400449070592224,61.48178563763895,2.870022453529611,0.9657536304439449,Right,Correct,0.0,0.0,-45,45,2004,3187,-0.89
"{'cat': 'RB', 'resp': 'reach'}",58,133,Left,34.99684062331748,64.75741245907612,1.7498420311658742,1.0172070562345885,Left,Correct,0.0,0.0,-45,45,2004,687,-2.51
"{'cat': 'RB', 'resp': 'reach'}",58,134,Right,56.06868047567207,34.54559578773533,2.8034340237836033,0.5426409497031591,Right,Correct,0.0,0.0,-45,45,2004,1350,-0.86
"{'cat': 'RB', 'resp': 'reach'}",58,135,Right,56.452498266393356,86.42487180633023,2.8226249133196677,1.3575587117710333,Right,Correct,0.0,0.0,-45,45,2004,1067,-0.88
"{'cat': 'RB', 'resp': 'reach'}",58,136,Left,45.05906250889184,71.1291434058329,2.252953125444592,1.1172939718994976,Right,Incorrect,0.0,0.0,-45,45,2004,1191,-0.91
"{'cat': 'RB', 'resp': 'reach'}",58,137,Left,38.75033991868202,88.47986037657216,1.937516995934101,1.389838396748449,Left,Correct,0.0,0.0,-45,45,2009,762,-2.5
"{'cat': 'RB', 'resp': 'reach'}",58,138,Right,60.854517629744144,16.471492067157413,3.042725881487207,0.25873359235922144,Right,Correct,0.0,0.0,-45,45,2017,845,-0.86
"{'cat': 'RB', 'resp': 'reach'}",58,139,Left,39.306690041995886,36.8519472026688,1.9653345020997943,0.5788690330119161,Left,Correct,0.0,0.0,-45,45,2004,1008,-2.4
"{'cat': 'RB', 'resp': 'reach'}",58,140,Right,55.269409493976816,68.0376211483255,2.763470474698841,1.0687324538365246,Right,Correct,0.0,0.0,-45,45,2008,905,-0.77
"{'cat': 'RB', 'resp': 'reach'}",58,141,Right,61.53974301958456,50.26090584310409,3.0769871509792277,0.7894964627973207,Right,Correct,0.0,0.0,-45,45,2012,829,-0.81
"{'cat': 'RB', 'resp': 'reach'}",58,142,Left,33.379362984544365,60.646556359069756,1.6689681492272184,0.9526338796158645,Left,Correct,0.0,0.0,-45,45,2004,938,-2.44
"{'cat': 'RB', 'resp': 'reach'}",58,143,Left,38.69852656640391,46.51511537192087,1.9349263283201958,0.7306577236665414,Left,Correct,0.0,0.0,-45,45,2008,1088,-2.52
"{'cat': 'RB', 'resp': 'reach'}",58,144,Right,54.45607410088564,61.24542673460166,2.7228037050442815,0.9620409134769825,Right,Correct,0.0,0.0,-45,45,2004,704,-0.8
"{'cat': 'RB', 'resp': 'reach'}",58,145,Right,61.85529541348131,45.746607657769154,3.0927647706740653,0.7185860327215107,Right,Correct,0.0,0.0,-45,45,2008,754,-0.78
"{'cat': 'RB', 'resp': 'reach'}",58,146,Right,56.590396489235104,45.363280698407046,2.829519824461755,0.7125647469242362,Right,Correct,0.0,0.0,-45,45,2004,796,-0.78
"{'cat': 'RB', 'resp': 'reach'}",58,147,Left,44.7881467150856,29.773449730247357,2.23940733575428,0.46768025472285046,Right,Incorrect,0.0,0.0,-45,45,2004,2117,-0.84
"{'cat': 'RB', 'resp': 'reach'}",58,148,Left,37.18348134872376,87.03417593302663,1.859174067436188,1.3671296386121903,Right,Incorrect,0.0,0.0,-45,45,2013,1021,2.9
"{'cat': 'RB', 'resp': 'reach'}",58,149,Left,34.880230538924735,35.88021931567701,1.7440115269462368,0.5636051670566075,Left,Correct,0.0,0.0,-45,45,2012,767,-2.44
"{'cat': 'RB', 'resp': 'reach'}",58,150,Left,42.35408935257847,68.9007982352737,2.1177044676289234,1.0822912078120424,Left,Correct,0.0,0.0,-45,45,2004,937,-2.42
"{'cat': 'RB', 'resp': 'reach'}",58,151,Right,62.67480190879853,13.537525194157034,3.1337400954399266,0.21264694848875237,Right,Correct,0.0,0.0,-45,45,2009,846,-0.9
"{'cat': 'RB', 'resp': 'reach'}",58,152,Left,31.88636305293526,53.11728384965191,1.594318152646763,0.8343643436035509,Left,Correct,0.0,0.0,-45,45,2004,950,-2.44
"{'cat': 'RB', 'resp': 'reach'}",58,153,Left,42.12350104059897,31.455729942613832,2.1061750520299483,0.4941054505051005,Left,Correct,0.0,0.0,-45,45,2004,1025,-2.55
"{'cat': 'RB', 'resp': 'reach'}",58,154,Right,65.6117272631444,57.26249778455394,3.2805863631572203,0.8994772118307823,Right,Correct,0.0,0.0,-45,45,2004,796,-0.89
"{'cat': 'RB', 'resp': 'reach'}",58,155,Left,45.117600917837834,15.473940268027029,2.2558800458918915,0.24306408534060495,Right,Incorrect,0.0,0.0,-45,45,2004,1492,-0.87
"{'cat': 'RB', 'resp': 'reach'}",58,156,Left,45.53982595934801,39.27015214802742,2.2769912979674003,0.6168541074679819,Left,Correct,0.0,0.0,-45,45,2013,846,-2.53
"{'cat': 'RB', 'resp': 'reach'}",58,157,Right,56.497959964920284,83.56829069488617,2.824897998246014,1.3126876406005532,Right,Correct,0.0,0.0,-45,45,2008,834,-0.87
"{'cat': 'RB', 'resp': 'reach'}",58,158,Left,38.80629298641771,52.08321399964494,1.9403146493208854,0.8181212123831479,Left,Correct,0.0,0.0,-45,45,2013,745,-2.52
"{'cat': 'RB', 'resp': 'reach'}",58,159,Left,41.72524822776933,71.17066894118074,2.0862624113884665,1.117946253483423,Left,Correct,0.0,0.0,-45,45,2016,692,-2.63
"{'cat': 'RB', 'resp': 'reach'}",58,160,Left,41.61662431603238,29.339567612499938,2.080831215801619,0.4608648503546542,Right,Incorrect,0.0,0.0,-45,45,2008,1109,-0.85
"{'cat': 'RB', 'resp': 'reach'}",58,161,Left,41.802523088059885,65.30893840047301,2.0901261544029945,1.0258704054633716,Left,Correct,0.0,0.0,-45,45,2013,675,-2.58
"{'cat': 'RB', 'resp': 'reach'}",58,162,Right,62.83675673942669,82.64926504038615,3.1418378369713342,1.2982516193773643,Right,Correct,0.0,0.0,-45,45,2012,575,-0.91
"{'cat': 'RB', 'resp': 'reach'}",58,163,Right,55.24440105449408,66.22818441875819,2.762220052724704,1.0403098881528037,Right,Correct,0.0,0.0,-45,45,2004,696,-0.86
"{'cat': 'RB', 'resp': 'reach'}",58,164,Right,61.83282447823877,83.74756290340716,3.091641223911939,1.315503641866965,Right,Correct,0.0,0.0,-45,45,2008,675,-0.84
"{'cat': 'RB', 'resp': 'reach'}",58,165,Right,66.34108492005574,79.94114972082795,3.3170542460027868,1.255712643412374,Right,Correct,0.0,0.0,-45,45,2017,554,-0.87
"{'cat': 'RB', 'resp': 'reach'}",58,166,Right,54.00364785170028,55.31641421180657,2.700182392585014,0.8689082025537077,Right,Correct,0.0,0.0,-45,45,2004,675,-0.85
"{'cat': 'RB', 'resp': 'reach'}",58,167,Right,67.13163510014043,26.32811282446716,3.3565817550070216,0.41356102916114623,Right,Correct,0.0,0.0,-45,45,2009,624,-0.91
"{'cat': 'RB', 'resp': 'reach'}",58,168,Right,65.06511605512912,22.50514706449412,3.253255802756456,0.3535100234288632,Right,Correct,0.0,0.0,-45,45,2008,604,-0.87
"{'cat': 'RB', 'resp': 'reach'}",58,169,Right,56.48289909735423,29.07614866079684,2.8241449548677116,0.4567270751372203,Right,Correct,0.0,0.0,-45,45,2005,662,-0.95
"{'cat': 'RB', 'resp': 'reach'}",58,170,Right,65.48836985728592,51.242436193911395,3.274418492864296,0.8049143054941786,Right,Correct,0.0,0.0,-45,45,2013,533,-0.9
"{'cat': 'RB', 'resp': 'reach'}",58,171,Left,44.05070386626152,34.056666413530955,2.2025351933130763,0.5349608650525355,Left,Correct,0.0,0.0,-45,45,2004,733,-2.6
"{'cat': 'RB', 'resp': 'reach'}",58,172,Left,31.50985708468827,34.05658472104088,1.5754928542344135,0.5349595818299021,Left,Correct,0.0,0.0,-45,45,2005,575,-2.44
"{'cat': 'RB', 'resp': 'reach'}",58,173,Left,40.682033201360106,22.929365245384368,2.0341016600680053,0.3601736270318832,Left,Correct,0.0,0.0,-45,45,2004,779,-2.57
"{'cat': 'RB', 'resp': 'reach'}",58,174,Left,33.75866895461099,61.88836249781994,1.6879334477305494,0.972140124829266,Left,Correct,0.0,0.0,-45,45,2017,604,-2.47
"{'cat': 'RB', 'resp': 'reach'}",58,175,Right,57.806882270121,24.066202042651167,2.89034411350605,0.3780310176850028,Left,Incorrect,0.0,0.0,-45,45,2004,1229,-2.61
"{'cat': 'RB', 'resp': 'reach'}",58,176,Left,46.14599176426595,71.53460813102467,2.3072995882132976,1.1236629969092589,Left,Correct,0.0,0.0,-45,45,2004,955,-2.53
"{'cat': 'RB', 'resp': 'reach'}",58,177,Right,53.422731959790326,54.65051262199007,2.6711365979895163,0.8584482448408014,Right,Correct,0.0,0.0,-45,45,2012,675,-0.91
"{'cat': 'RB', 'resp': 'reach'}",58,178,Right,52.63539471228472,67.15800328700692,2.631769735614236,1.0549154487811006,Left,Incorrect,0.0,0.0,-45,45,2004,1387,-2.37
"{'cat': 'RB', 'resp': 'reach'}",58,179,Right,52.907180179136205,59.87763185886455,2.6453590089568104,0.940555641810815,Right,Correct,0.0,0.0,-45,45,2004,696,-0.89
"{'cat': 'RB', 'resp': 'reach'}",58,180,Left,38.842517357955956,90.63600351070457,1.9421258678977977,1.4237070138998411,Left,Correct,0.0,0.0,-45,45,2004,746,-2.63
"{'cat': 'RB', 'resp': 'reach'}",58,181,Left,37.990752076924146,49.638476175701804,1.8995376038462073,0.7797193604448838,Left,Correct,0.0,0.0,-45,45,2004,725,-2.54
"{'cat': 'RB', 'resp': 'reach'}",58,182,Right,51.60485399289933,67.14342051004134,2.580242699644966,1.0546863830561803,Right,Correct,0.0,0.0,-45,45,2013,658,-0.85
"{'cat': 'RB', 'resp': 'reach'}",58,183,Left,41.792043080395125,59.90797643557376,2.0896021540197562,0.9410322933071449,Left,Correct,0.0,0.0,-45,45,2004,709,-2.51
"{'cat': 'RB', 'resp': 'reach'}",58,184,Left,46.121262926263086,69.73571862354908,2.3060631463131545,1.0954061066027336,Left,Correct,0.0,0.0,-45,45,2008,812,-2.45
"{'cat': 'RB', 'resp': 'reach'}",58,185,Right,54.64791862702143,46.165757029510594,2.7323959313510717,0.7251700156566091,Right,Correct,0.0,0.0,-45,45,2004,845,-0.87
"{'cat': 'RB', 'resp': 'reach'}",58,186,Right,64.69113948034064,71.26629405136727,3.2345569740170323,1.119448329201727,Right,Correct,0.0,0.0,-45,45,2004,604,-0.95
"{'cat': 'RB', 'resp': 'reach'}",58,187,Left,44.29639930466774,40.241943111794285,2.214819965233387,0.6321189642309566,Left,Correct,0.0,0.0,-45,45,2013,829,-2.42
"{'cat': 'RB', 'resp': 'reach'}",58,188,Right,57.31588129714386,28.58362427800517,2.8657940648571927,0.44899052022375957,Right,Correct,0.0,0.0,-45,45,2008,592,-0.99
"{'cat': 'RB', 'resp': 'reach'}",58,189,Left,46.680270032409275,21.04061800221027,2.334013501620464,0.3305052547136646,Left,Correct,0.0,0.0,-45,45,2008,1246,-2.43
"{'cat': 'RB', 'resp': 'reach'}",58,190,Right,66.6911221930262,34.82639914510525,3.3345561096513103,0.5470517985262424,Right,Correct,0.0,0.0,-45,45,2005,625,-0.87
"{'cat': 'RB', 'resp': 'reach'}",58,191,Left,41.765387999315834,69.00059152957918,2.0882693999657915,1.0838587572133804,Left,Correct,0.0,0.0,-45,45,2004,729,-2.51
"{'cat': 'RB', 'resp': 'reach'}",58,192,Left,40.70864675771452,47.352876899190946,2.0354323378857258,0.7438172509642006,Left,Correct,0.0,0.0,-45,45,2004,845,-2.44
"{'cat': 'RB', 'resp': 'reach'}",58,193,Left,40.41029100656351,15.741073229267293,2.0205145503281754,0.24726020008342542,Left,Correct,0.0,0.0,-45,45,2004,834,-2.45
"{'cat': 'RB', 'resp': 'reach'}",58,194,Left,43.77960435555267,64.11188460171243,2.1889802177776336,1.007067128362682,Left,Correct,0.0,0.0,-45,45,2004,675,-2.38
"{'cat': 'RB', 'resp': 'reach'}",58,195,Left,31.6497721298335,51.361026981080634,1.5824886064916752,0.8067771252229504,Left,Correct,0.0,0.0,-45,45,2004,654,-2.5
"{'cat': 'RB', 'resp': 'reach'}",58,196,Right,52.019703209096214,43.58208734042573,2.6009851604548104,0.684585827083951,Right,Correct,0.0,0.0,-45,45,2004,696,-0.87
"{'cat': 'RB', 'resp': 'reach'}",58,197,Right,56.510451487578365,40.19528297481415,2.8255225743789185,0.631386028513195,Right,Correct,0.0,0.0,-45,45,2009,724,-0.98
"{'cat': 'RB', 'resp': 'reach'}",58,198,Left,43.24384071324301,12.367200401801313,2.1621920356621502,0.19426352963885868,Left,Correct,0.0,0.0,-45,45,2008,1209,-2.49
"{'cat': 'RB', 'resp': 'reach'}",58,199,Left,40.05929079781135,41.40933708576506,2.0029645398905673,0.6504563458933142,Left,Correct,0.0,0.0,-45,45,2012,709,-2.42
"{'cat': 'RB', 'resp': 'reach'}",58,200,Right,54.259057678308864,79.28320955207832,2.712952883915443,1.2453777434091466,Right,Correct,0.0,0.0,-45,45,2008,1246,-0.84
"{'cat': 'RB', 'resp': 'reach'}",58,201,Right,55.419228506555044,85.34248733943718,2.7709614253277524,1.3405566563232787,Right,Correct,0.0,0.0,-45,45,2012,675,-0.99
"{'cat': 'RB', 'resp': 'reach'}",58,202,Right,59.342512166290554,86.58785686403968,2.967125608314528,1.3601188750707582,Right,Correct,0.0,0.0,-45,45,2004,688,-0.98
"{'cat': 'RB', 'resp': 'reach'}",58,203,Left,36.69360388132157,33.36356433795521,1.8346801940660784,0.5240736431084525,Left,Correct,0.0,0.0,-45,45,2012,708,-2.52
"{'cat': 'RB', 'resp': 'reach'}",58,204,Right,61.53125871061956,39.9240051554908,3.076562935530978,0.6271248064918546,Right,Correct,0.0,0.0,-45,45,2004,663,-0.92
"{'cat': 'RB', 'resp': 'reach'}",58,205,Right,57.26961396855283,46.466040069951895,2.863480698427642,0.7298868506258491,Right,Correct,0.0,0.0,-45,45,2013,796,-0.89
"{'cat': 'RB', 'resp': 'reach'}",58,206,Right,66.12131986580349,36.635421702053236,3.306065993290174,0.5754678584016726,Right,Correct,0.0,0.0,-45,45,2016,584,-0.88
"{'cat': 'RB', 'resp': 'reach'}",58,207,Left,42.025969487935875,72.44371869226444,2.1012984743967937,1.1379432722117178,Left,Correct,0.0,0.0,-45,45,2008,705,-2.57
"{'cat': 'RB', 'resp': 'reach'}",58,208,Right,59.841193743292365,44.10256309420174,2.9920596871646183,0.6927614411061226,Right,Correct,0.0,0.0,-45,45,2004,638,-0.89
"{'cat': 'RB', 'resp': 'reach'}",58,209,Left,33.484631975685645,35.87672312519847,1.6742315987842824,0.5635502490249926,Left,Correct,0.0,0.0,-45,45,2012,758,-2.41
"{'cat': 'RB', 'resp': 'reach'}",58,210,Left,44.476838571094355,59.048988248591826,2.2238419285547177,0.9275393384184304,Left,Correct,0.0,0.0,-45,45,2004,925,-2.58
"{'cat': 'RB', 'resp': 'reach'}",58,211,Right,61.56951081429058,52.53184379144401,3.0784755407145292,0.8251682726736355,Right,Correct,0.0,0.0,-45,45,2004,554,-0.79
"{'cat': 'RB', 'resp': 'reach'}",58,212,Left,34.681385395055656,63.60639443919783,1.7340692697527829,0.9991269074575928,Left,Correct,0.0,0.0,-45,45,2004,575,-2.55
"{'cat': 'RB', 'resp': 'reach'}",58,213,Left,47.67488530934231,53.77881379465886,2.3837442654671155,0.8447556316803686,Right,Incorrect,0.0,0.0,-45,45,2008,938,-0.78
"{'cat': 'RB', 'resp': 'reach'}",58,214,Left,46.794015346339634,48.194699903372076,2.3397007673169816,0.757040575791992,Left,Correct,0.0,0.0,-45,45,2004,795,-2.6
"{'cat': 'RB', 'resp': 'reach'}",58,215,Right,55.9464657700796,81.17990433612759,2.7973232885039803,1.2751709554075032,Right,Correct,0.0,0.0,-45,45,2004,725,-0.9
"{'cat': 'RB', 'resp': 'reach'}",58,216,Right,58.97888867768926,85.78914848091839,2.948944433884463,1.3475727931268857,Right,Correct,0.0,0.0,-45,45,2004,846,-0.89
"{'cat': 'RB', 'resp': 'reach'}",58,217,Left,33.4714818698431,79.28956192509709,1.6735740934921552,1.24547752625119,Left,Correct,0.0,0.0,-45,45,2008,692,-2.56
"{'cat': 'RB', 'resp': 'reach'}",58,218,Left,41.715313863560475,20.42597763792178,2.0857656931780237,0.3208505064484223,Right,Incorrect,0.0,0.0,-45,45,2004,916,-0.86
"{'cat': 'RB', 'resp': 'reach'}",58,219,Right,58.98603859377351,46.07021483875653,2.949301929688675,0.723669242433705,Right,Correct,0.0,0.0,-45,45,2004,504,-0.85
"{'cat': 'RB', 'resp': 'reach'}",58,220,Right,64.0622941897312,50.880175106961715,3.2031147094865604,0.7992239216469659,Right,Correct,0.0,0.0,-45,45,2004,604,-0.84
"{'cat': 'RB', 'resp': 'reach'}",58,221,Left,33.3761089487884,48.41575483463943,1.6688054474394198,0.7605128985325387,Left,Correct,0.0,0.0,-45,45,2013,616,-2.73
"{'cat': 'RB', 'resp': 'reach'}",58,222,Left,35.187718617717465,27.69420941618266,1.759385930885873,0.4350196242442836,Left,Correct,0.0,0.0,-45,45,2005,608,-2.52
"{'cat': 'RB', 'resp': 'reach'}",58,223,Left,49.22808113837349,56.4972157534175,2.4614040569186746,0.8874561897960697,Right,Incorrect,0.0,0.0,-45,45,2008,704,-0.84
"{'cat': 'RB', 'resp': 'reach'}",58,224,Right,55.73993109668033,46.18657852715829,2.7869965548340168,0.7254970789768428,Right,Correct,0.0,0.0,-45,45,2005,383,-0.85
"{'cat': 'RB', 'resp': 'reach'}",58,225,Right,67.10927533320755,77.12801322164206,3.3554637666603777,1.2115239986154356,Right,Correct,0.0,0.0,-45,45,2004,642,-0.72
"{'cat': 'RB', 'resp': 'reach'}",58,226,Left,47.140930005571946,71.861919706044,2.357046500278597,1.1288043951068372,Left,Correct,0.0,0.0,-45,45,2012,676,-2.66
"{'cat': 'RB', 'resp': 'reach'}",58,227,Left,42.924621936644634,64.41050710658442,2.146231096832232,1.0117578797001938,Left,Correct,0.0,0.0,-45,45,2009,654,-2.65
"{'cat': 'RB', 'resp': 'reach'}",58,228,Right,57.318637314984976,38.613307953818904,2.8659318657492485,0.6065364229925889,Right,Correct,0.0,0.0,-45,45,2012,821,-0.84
"{'cat': 'RB', 'resp': 'reach'}",58,229,Left,45.87568633849977,73.48071959694497,2.2937843169249885,1.1542324443312693,Left,Correct,0.0,0.0,-45,45,2009,762,-2.6
"{'cat': 'RB', 'resp': 'reach'}",58,230,Right,61.94756396515465,44.40259585071031,3.097378198257733,0.6974743446245407,Right,Correct,0.0,0.0,-45,45,2004,554,-0.79
"{'cat': 'RB', 'resp': 'reach'}",58,231,Right,58.005548748277995,14.09706546253588,2.9002774374138998,0.2214361864713856,Right,Correct,0.0,0.0,-45,45,2005,741,-0.83
"{'cat': 'RB', 'resp': 'reach'}",58,232,Left,42.66959051989449,82.78907387170004,2.1334795259947246,1.3004477313641776,Left,Correct,0.0,0.0,-45,45,2012,709,-2.64
"{'cat': 'RB', 'resp': 'reach'}",58,233,Right,54.88195778840917,57.959149690870234,2.7440978894204586,0.9104201943857453,Right,Correct,0.0,0.0,-45,45,2013,779,-0.83
"{'cat': 'RB', 'resp': 'reach'}",58,234,Right,61.00888414864332,71.84195581979215,3.0504442074321663,1.1284908031149075,Right,Correct,0.0,0.0,-45,45,2004,608,-0.88
"{'cat': 'RB', 'resp': 'reach'}",58,235,Left,37.73637932658049,70.1587625957169,1.8868189663290247,1.1020512657782728,Left,Correct,0.0,0.0,-45,45,2008,675,-2.62
"{'cat': 'RB', 'resp': 'reach'}",58,236,Left,42.575423576617126,74.99489760306018,2.1287711788308563,1.1780170968324633,Left,Correct,0.0,0.0,-45,45,2004,617,-2.68
"{'cat': 'RB', 'resp': 'reach'}",58,237,Right,61.01865125387011,89.26561076354199,3.0509325626935055,1.4021809349647474,Right,Correct,0.0,0.0,-45,45,2004,1050,-0.77
"{'cat': 'RB', 'resp': 'reach'}",58,238,Right,64.11693398628883,86.85751216059117,3.205846699314441,1.3643546105639968,Right,Correct,0.0,0.0,-45,45,2017,520,-0.88
"{'cat': 'RB', 'resp': 'reach'}",58,239,Right,54.24489095468927,72.65647394346712,2.712244547734463,1.1412852238826725,Right,Correct,0.0,0.0,-45,45,2004,567,-0.88
"{'cat': 'RB', 'resp': 'reach'}",58,240,Right,55.29757440064075,84.47494040318668,2.7648787200320375,1.3269292609154346,Right,Correct,0.0,0.0,-45,45,2013,554,-0.86
"{'cat': 'RB', 'resp': 'reach'}",58,241,Right,60.012707470659976,16.73037639491489,3.0006353735329987,0.26280013787028356,Right,Correct,0.0,0.0,-45,45,2004,538,-0.86
"{'cat': 'RB', 'resp': 'reach'}",58,242,Right,59.28380783768658,60.89399292884764,2.9641903918843293,0.9565206041650828,Right,Correct,0.0,0.0,-45,45,2016,1004,-0.89
"{'cat': 'RB', 'resp': 'reach'}",58,243,Left,45.44686147023366,25.160949114552587,2.272343073511683,0.39522726447812506,Left,Correct,0.0,0.0,-45,45,2004,766,-2.55
"{'cat': 'RB', 'resp': 'reach'}",58,244,Right,57.01308017213331,33.41109467825093,2.8506540086066656,0.5248202479479308,Right,Correct,0.0,0.0,-45,45,2004,696,-0.75
"{'cat': 'RB', 'resp': 'reach'}",58,245,Left,36.10273707671052,26.741503132792847,1.805136853835526,0.4200545489396523,Left,Correct,0.0,0.0,-45,45,2005,795,-2.54
"{'cat': 'RB', 'resp': 'reach'}",58,246,Right,52.22698257957243,52.53964728668179,2.6113491289786213,0.8252908496901921,Left,Incorrect,0.0,0.0,-45,45,2004,1321,-2.55
"{'cat': 'RB', 'resp': 'reach'}",58,247,Right,61.8760931859651,70.26081233176865,3.093804659298255,1.1036542592836776,Right,Correct,0.0,0.0,-45,45,2017,604,-0.82
"{'cat': 'RB', 'resp': 'reach'}",58,248,Left,36.51750891060568,71.32608820114504,1.8258754455302837,1.1203875735100746,Left,Correct,0.0,0.0,-45,45,2017,725,-2.33
"{'cat': 'RB', 'resp': 'reach'}",58,249,Right,57.6765051522197,13.796459721237909,2.883825257610985,0.21671428252894248,Right,Correct,0.0,0.0,-45,45,2008,563,-0.81
"{'cat': 'RB', 'resp': 'reach'}",58,250,Left,39.69005832968118,44.65620336144355,1.9845029164840589,0.7014580020876144,Left,Correct,0.0,0.0,-45,45,2004,762,-2.63
"{'cat': 'RB', 'resp': 'reach'}",58,251,Left,43.11613110819711,38.14400895142182,2.1558065554098556,0.5991646915012504,Right,Incorrect,0.0,0.0,-45,45,2017,1317,-0.88
"{'cat': 'RB', 'resp': 'reach'}",58,252,Left,31.127328170656497,54.85400337435455,1.5563664085328248,0.8616446701043099,Left,Correct,0.0,0.0,-45,45,2012,709,-2.7
"{'cat': 'RB', 'resp': 'reach'}",58,253,Left,45.76670175346498,46.85203114487804,2.288335087673249,0.7359499842525452,Left,Correct,0.0,0.0,-45,45,2012,1334,-2.56
"{'cat': 'RB', 'resp': 'reach'}",58,254,Right,51.163801319414915,55.93300507553296,2.558190065970746,0.8785935891924747,Right,Correct,0.0,0.0,-45,45,2004,916,-0.61
"{'cat': 'RB', 'resp': 'reach'}",58,255,Left,36.64587487605527,87.1310352521445,1.8322937438027633,1.3686511012390523,Left,Correct,0.0,0.0,-45,45,2013,729,-2.64
"{'cat': 'RB', 'resp': 'reach'}",58,256,Left,37.95035119199588,38.61090360573872,1.897517559599794,0.606498655581262,Right,Incorrect,0.0,0.0,-45,45,2004,817,-0.84
"{'cat': 'RB', 'resp': 'reach'}",58,257,Right,52.67044054529648,44.108058684301355,2.633522027264824,0.6928477656335431,Right,Correct,0.0,0.0,-45,45,2004,816,-0.79
"{'cat': 'RB', 'resp': 'reach'}",58,258,Right,60.297321540260995,28.097525825393866,3.0148660770130498,0.4413549035855343,Right,Correct,0.0,0.0,-45,45,2016,429,-0.85
"{'cat': 'RB', 'resp': 'reach'}",58,259,Left,41.89777565279721,18.933451608736245,2.0948887826398606,0.2974059624055182,Left,Correct,0.0,0.0,-45,45,2008,812,-2.54
"{'cat': 'RB', 'resp': 'reach'}",58,260,Left,32.13446902237862,28.083070628786768,1.606723451118931,0.441127841888199,Left,Correct,0.0,0.0,-45,45,2004,591,-2.57
"{'cat': 'RB', 'resp': 'reach'}",58,261,Right,54.82052348643,61.54999177839849,2.7410261743215,0.9668250099976444,Right,Correct,0.0,0.0,-45,45,2004,867,-0.62
"{'cat': 'RB', 'resp': 'reach'}",58,262,Right,54.51835855158512,56.44888109697702,2.7259179275792564,0.8866969507881336,Right,Correct,0.0,0.0,-45,45,2004,692,-0.88
"{'cat': 'RB', 'resp': 'reach'}",58,263,Right,55.68560426823596,57.61987318141475,2.7842802134117983,0.9050908514375404,Right,Correct,0.0,0.0,-45,45,2008,676,-0.86
"{'cat': 'RB', 'resp': 'reach'}",58,264,Left,37.106729345138795,37.33550662306877,1.85533646725694,0.5864647666254296,Left,Correct,0.0,0.0,-45,45,2004,729,-2.54
"{'cat': 'RB', 'resp': 'reach'}",58,265,Right,54.38903234099266,38.98714530433991,2.719451617049633,0.6124086463627604,Left,Incorrect,0.0,0.0,-45,45,2005,291,-2.55
"{'cat': 'RB', 'resp': 'reach'}",58,266,Left,33.99611283652225,60.69574924997975,1.6998056418261127,0.953406599739323,Right,Incorrect,0.0,0.0,-45,45,2008,292,-0.87
"{'cat': 'RB', 'resp': 'reach'}",58,267,Left,33.45279814435287,24.385239409713993,1.6726399072176434,0.38304244492792894,Right,Incorrect,0.0,0.0,-45,45,2013,254,-0.93
"{'cat': 'RB', 'resp': 'reach'}",58,268,Right,53.84706719731139,60.807725271280944,2.6923533598655696,0.9551655149688131,Right,Correct,0.0,0.0,-45,45,2004,604,-0.88
"{'cat': 'RB', 'resp': 'reach'}",58,269,Right,57.59389769360954,40.36167344177469,2.879694884680477,0.6339996838563481,Right,Correct,0.0,0.0,-45,45,2008,675,-0.87
"{'cat': 'RB', 'resp': 'reach'}",58,270,Left,48.080559045030284,54.04700990438847,2.404027952251514,0.848968446320608,Left,Correct,0.0,0.0,-45,45,2004,746,-2.64
"{'cat': 'RB', 'resp': 'reach'}",58,271,Right,52.43623121578635,73.84613869699017,2.6218115607893173,1.1599724341321862,Right,Correct,0.0,0.0,-45,45,2013,312,-0.89
"{'cat': 'RB', 'resp': 'reach'}",58,272,Left,38.31426413927281,29.306718636290807,1.9157132069636404,0.46034885984297136,Right,Incorrect,0.0,0.0,-45,45,2004,300,-0.92
"{'cat': 'RB', 'resp': 'reach'}",58,273,Left,31.929548663282834,42.19081697281125,1.5964774331641416,0.6627318032536768,Right,Incorrect,0.0,0.0,-45,45,2013,175,-0.91
"{'cat': 'RB', 'resp': 'reach'}",58,274,Left,38.60542594020281,81.29428246251288,1.93027129701014,1.27696760281542,Left,Correct,0.0,0.0,-45,45,2004,625,-2.68
"{'cat': 'RB', 'resp': 'reach'}",58,275,Left,39.84100316095636,65.74416543888239,1.992050158047818,1.0327069357959247,Left,Correct,0.0,0.0,-45,45,2009,541,-2.68
"{'cat': 'RB', 'resp': 'reach'}",58,276,Right,67.44801882910275,53.496196804377306,3.3724009414551377,0.8403162943781276,Right,Correct,0.0,0.0,-45,45,2004,592,-0.84
"{'cat': 'RB', 'resp': 'reach'}",58,277,Right,63.4766474225746,12.935409429612008,3.1738323711287304,0.2031889361762261,Right,Correct,0.0,0.0,-45,45,2016,413,-0.87
"{'cat': 'RB', 'resp': 'reach'}",58,278,Left,36.53343110444062,76.19243820903506,1.8266715552220314,1.196828020682994,Left,Correct,0.0,0.0,-45,45,2008,213,-2.47
"{'cat': 'RB', 'resp': 'reach'}",58,279,Right,60.16275168222145,60.36547571160327,3.0081375841110725,0.9482186751301296,Left,Incorrect,0.0,0.0,-45,45,2004,192,-2.57
"{'cat': 'RB', 'resp': 'reach'}",58,280,Right,58.587745772955344,16.712424309491695,2.9293872886477677,0.2625181471718729,Right,Correct,0.0,0.0,-45,45,2008,463,-0.87
"{'cat': 'RB', 'resp': 'reach'}",58,281,Left,35.36905736085763,73.73943907203547,1.7684528680428815,1.1582964003426937,Left,Correct,0.0,0.0,-45,45,2013,445,-2.51
"{'cat': 'RB', 'resp': 'reach'}",58,282,Left,34.60295899604759,78.61619467603626,1.7301479498023795,1.2349002982371027,Right,Incorrect,0.0,0.0,-45,45,2004,383,-0.8
"{'cat': 'RB', 'resp': 'reach'}",58,283,Left,34.113202159760895,78.52063416166109,1.705660107988045,1.233399237187431,Left,Correct,0.0,0.0,-45,45,2008,542,-2.62
"{'cat': 'RB', 'resp': 'reach'}",58,284,Left,47.27174979656995,42.85432237925802,2.3635874898284976,0.6731541218062282,Left,Correct,0.0,0.0,-45,45,2004,604,-2.58
"{'cat': 'RB', 'resp': 'reach'}",58,285,Right,58.13162889495011,77.17538544628908,2.9065814447475056,1.212268119780112,Right,Correct,0.0,0.0,-45,45,2008,896,-0.78
"{'cat': 'RB', 'resp': 'reach'}",58,286,Right,65.27992923848487,48.668390931676946,3.263996461924244,0.764481297064962,Right,Correct,0.0,0.0,-45,45,2004,533,-0.86
"{'cat': 'RB', 'resp': 'reach'}",58,287,Left,35.219271855593504,24.76460489928134,1.7609635927796752,0.38900150410318035,Left,Correct,0.0,0.0,-45,45,2008,592,-2.54
"{'cat': 'RB', 'resp': 'reach'}",58,288,Right,59.021689076296276,90.60089866568677,2.9510844538148135,1.4231555882837743,Right,Correct,0.0,0.0,-45,45,2004,488,-0.85
"{'cat': 'RB', 'resp': 'reach'}",58,289,Left,42.60740666380738,55.85909167685511,2.130370333190369,0.8774325602410339,Right,Incorrect,0.0,0.0,-45,45,2013,425,-0.8
"{'cat': 'RB', 'resp': 'reach'}",58,290,Right,64.03725964225373,58.65508192184855,3.2018629821126865,0.9213518723069345,Right,Correct,0.0,0.0,-45,45,2004,284,-0.81
"{'cat': 'RB', 'resp': 'reach'}",58,291,Right,66.75886342893294,29.192241685642777,3.337943171446647,0.4585506601071654,Right,Correct,0.0,0.0,-45,45,2004,900,-0.75
"{'cat': 'RB', 'resp': 'reach'}",58,292,Left,39.06650713051046,68.39382884055192,1.9533253565255229,1.0743277511817781,Left,Correct,0.0,0.0,-45,45,2013,675,-2.61
"{'cat': 'RB', 'resp': 'reach'}",58,293,Left,44.597684431188284,49.57568751433355,2.229884221559414,0.7787330784584676,Left,Correct,0.0,0.0,-45,45,2005,1125,-2.62
"{'cat': 'RB', 'resp': 'reach'}",58,294,Left,46.35939930580758,38.345661496923796,2.317969965290379,0.6023322422788839,Right,Incorrect,0.0,0.0,-45,45,2012,587,-0.97
"{'cat': 'RB', 'resp': 'reach'}",58,295,Right,54.024588892716146,33.51393978330786,2.7012294446358074,0.5264357350804534,Right,Correct,0.0,0.0,-45,45,2004,867,-0.87
"{'cat': 'RB', 'resp': 'reach'}",58,296,Right,58.14568085955674,73.89520574787018,2.907284042977837,1.1607431775650758,Right,Correct,0.0,0.0,-45,45,2005,695,-0.79
"{'cat': 'RB', 'resp': 'reach'}",58,297,Right,66.98377932095846,54.112472699220504,3.349188966047923,0.8499967334972469,Right,Correct,0.0,0.0,-45,45,2013,745,-0.75
"{'cat': 'RB', 'resp': 'reach'}",58,298,Right,61.5000333664099,58.71049152268463,3.075001668320495,0.9222222442815593,Right,Correct,0.0,0.0,-45,45,2004,646,-0.84
"{'cat': 'RB', 'resp': 'reach'}",58,299,Left,33.52868756842526,47.64206696285507,1.676434378421263,0.7483598378616925,Left,Correct,0.0,0.0,-45,45,2012,709,-2.6
"{'cat': 'RB', 'resp': 'reach'}",58,300,Right,67.8512009282325,47.347373218175534,3.3925600464116252,0.7437307993449718,Right,Correct,0.0,0.0,-45,45,2004,521,-0.88
"{'cat': 'RB', 'resp': 'reach'}",58,301,Left,42.585510746156416,76.46966884321796,2.1292755373078207,1.201182749301489,Left,Correct,0.0,0.0,-45,45,2004,667,-2.59
"{'cat': 'RB', 'resp': 'reach'}",58,302,Right,60.1520373499816,30.89659280425556,3.00760186749908,0.4853225448740227,Right,Correct,0.0,0.0,-45,45,2017,462,-0.84
"{'cat': 'RB', 'resp': 'reach'}",58,303,Right,52.02428488379773,45.41374488412144,2.6012142441898867,0.7133574364997849,Right,Correct,0.0,0.0,-45,45,2008,1054,-0.79
"{'cat': 'RB', 'resp': 'reach'}",58,304,Right,60.78369354534681,70.83515783994423,3.0391846772673405,1.1126760574292112,Right,Correct,0.0,0.0,-45,45,2004,796,-0.63
"{'cat': 'RB', 'resp': 'reach'}",58,305,Left,44.353294807384074,62.2763480987776,2.217664740369204,0.978234588397602,Left,Correct,0.0,0.0,-45,45,2004,646,-2.63
"{'cat': 'RB', 'resp': 'reach'}",58,306,Right,68.38912878418172,46.1725957043965,3.419456439209086,0.7252774373105184,Right,Correct,0.0,0.0,-45,45,2004,538,-0.85
"{'cat': 'RB', 'resp': 'reach'}",58,307,Right,61.30537217397756,71.5282237294102,3.065268608698878,1.123562710963211,Right,Correct,0.0,0.0,-45,45,2008,775,-0.88
"{'cat': 'RB', 'resp': 'reach'}",58,308,Left,34.36420529737034,39.42212052368667,1.7182102648685171,0.6192412211307273,Left,Correct,0.0,0.0,-45,45,2004,675,-2.63
"{'cat': 'RB', 'resp': 'reach'}",58,309,Left,46.87792735087773,44.45014289812618,2.343896367543886,0.6982212118988487,Left,Correct,0.0,0.0,-45,45,2008,1008,-2.57
"{'cat': 'RB', 'resp': 'reach'}",58,310,Left,35.02054839664462,27.979080564576073,1.7510274198322309,0.43949436977934575,Left,Correct,0.0,0.0,-45,45,2013,687,-2.44
"{'cat': 'RB', 'resp': 'reach'}",58,311,Right,60.30387674728665,84.63828607633707,3.0151938373643326,1.3294950887492587,Right,Correct,0.0,0.0,-45,45,2008,642,-0.81
"{'cat': 'RB', 'resp': 'reach'}",58,312,Right,56.077781244877286,21.132856273862433,2.8038890622438646,0.33195413009667596,Right,Correct,0.0,0.0,-45,45,2004,917,-0.74
"{'cat': 'RB', 'resp': 'reach'}",58,313,Right,68.0186846668016,66.45054095672864,3.4009342333400805,1.0438026564836318,Right,Correct,0.0,0.0,-45,45,2004,675,-0.72
"{'cat': 'RB', 'resp': 'reach'}",58,314,Right,64.5040108845649,47.982531064243354,3.225200544228245,0.7537078354603548,Right,Correct,0.0,0.0,-45,45,2013,808,-0.69
"{'cat': 'RB', 'resp': 'reach'}",58,315,Right,51.93554986329136,43.71283644264723,2.596777493164568,0.6866396291789637,Right,Correct,0.0,0.0,-45,45,2009,833,-0.68
"{'cat': 'RB', 'resp': 'reach'}",58,316,Left,48.98217116381923,36.85766310888678,2.4491085581909617,0.5789588182568313,Right,Incorrect,0.0,0.0,-45,45,2004,904,-0.78
"{'cat': 'RB', 'resp': 'reach'}",58,317,Right,66.33374250566183,40.21944802996116,3.3166871252830914,0.6317656123118122,Right,Correct,0.0,0.0,-45,45,2012,746,-0.71
"{'cat': 'RB', 'resp': 'reach'}",58,318,Right,54.93612289600481,47.27499849973665,2.7468061448002405,0.7425939399262058,Right,Correct,0.0,0.0,-45,45,2008,1075,-0.74
"{'cat': 'RB', 'resp': 'reach'}",58,319,Left,42.30184412707128,38.06431630904058,2.1150922063535638,0.5979128824020001,Left,Correct,0.0,0.0,-45,45,2009,754,-2.46
"{'cat': 'RB', 'resp': 'reach'}",58,320,Right,57.06596928617402,29.715756579166168,2.853298464308701,0.46677401282485503,Right,Correct,0.0,0.0,-45,45,2004,746,-0.66
"{'cat': 'RB', 'resp': 'reach'}",58,321,Left,34.25351075191626,74.2496785646296,1.712675537595813,1.1663112235502193,Left,Correct,0.0,0.0,-45,45,2004,1892,-2.84
"{'cat': 'RB', 'resp': 'reach'}",58,322,Left,43.48623422106646,47.20233529075603,2.174311711053323,0.7414525489086069,Left,Correct,0.0,0.0,-45,45,2009,774,-2.41
"{'cat': 'RB', 'resp': 'reach'}",58,323,Left,36.73343903751829,34.963128104841786,1.8366719518759143,0.549199532003449,Left,Correct,0.0,0.0,-45,45,2004,746,-2.56
"{'cat': 'RB', 'resp': 'reach'}",58,324,Right,57.792740598255456,61.91300086048917,2.8896370299127727,0.9725271433250566,Right,Correct,0.0,0.0,-45,45,2012,576,-0.61
"{'cat': 'RB', 'resp': 'reach'}",58,325,Left,32.07497296929648,69.77028547287857,1.603748648464824,1.0959490814022899,Left,Correct,0.0,0.0,-45,45,2009,604,-2.66
"{'cat': 'RB', 'resp': 'reach'}",58,326,Right,52.769096660298736,58.88578651758023,2.638454833014937,0.9249757716224347,Right,Correct,0.0,0.0,-45,45,2013,658,-0.65
"{'cat': 'RB', 'resp': 'reach'}",58,327,Right,58.8220657236627,72.57988450927819,2.9411032861831354,1.1400821598637199,Right,Correct,0.0,0.0,-45,45,2005,504,-0.66
"{'cat': 'RB', 'resp': 'reach'}",58,328,Right,57.58289286815229,32.301739928501185,2.879144643407615,0.507394544287737,Right,Correct,0.0,0.0,-45,45,2004,575,-0.7
"{'cat': 'RB', 'resp': 'reach'}",58,329,Left,40.82986413275667,38.140327982801104,2.041493206637833,0.5991068709813658,Left,Correct,0.0,0.0,-45,45,2013,737,-2.72
"{'cat': 'RB', 'resp': 'reach'}",58,330,Right,54.29929642320664,80.48309933353805,2.7149648211603323,1.2642255680219034,Right,Correct,0.0,0.0,-45,45,2013,516,-0.68
"{'cat': 'RB', 'resp': 'reach'}",58,331,Right,57.73237722528147,42.01274566985721,2.8866188612640737,0.6599346657677989,Right,Correct,0.0,0.0,-45,45,2004,758,-0.73
"{'cat': 'RB', 'resp': 'reach'}",58,332,Left,45.31525987219092,18.51736982098497,2.2657629936095462,0.29087016496705864,Right,Incorrect,0.0,0.0,-45,45,2004,921,-0.66
"{'cat': 'RB', 'resp': 'reach'}",58,333,Left,33.048669753966664,69.66091046628782,1.652433487698333,1.0942310228163306,Left,Correct,0.0,0.0,-45,45,2004,713,-2.53
"{'cat': 'RB', 'resp': 'reach'}",58,334,Right,63.05731592293429,61.010978190578136,3.152865796146715,0.9583582043592368,Right,Correct,0.0,0.0,-45,45,2004,1321,-0.66
"{'cat': 'RB', 'resp': 'reach'}",58,335,Left,41.42731492060906,56.824694073619625,2.071365746030453,0.8926002072208544,Right,Incorrect,0.0,0.0,-45,45,2004,954,-0.49
"{'cat': 'RB', 'resp': 'reach'}",58,336,Left,30.97982395849309,40.626374970324136,1.5489911979246545,0.6381576057437728,Left,Correct,0.0,0.0,-45,45,2004,746,-2.75
"{'cat': 'RB', 'resp': 'reach'}",58,337,Left,48.80861270651178,38.03386194415826,2.440430635325589,0.5974345063570801,Right,Incorrect,0.0,0.0,-45,45,2004,604,-0.87
"{'cat': 'RB', 'resp': 'reach'}",58,338,Right,60.90496529717597,35.02210387112412,3.0452482648587984,0.550125921173911,Right,Correct,0.0,0.0,-45,45,2012,808,-0.87
"{'cat': 'RB', 'resp': 'reach'}",58,339,Right,60.42932857970801,34.5399263243159,3.0214664289854003,0.5425518939800177,Right,Correct,0.0,0.0,-45,45,2004,696,-0.73
"{'cat': 'RB', 'resp': 'reach'}",58,340,Right,59.02792385486054,55.97233012969486,2.951396192743027,0.8792113056987599,Right,Correct,0.0,0.0,-45,45,2012,879,-0.85
"{'cat': 'RB', 'resp': 'reach'}",58,341,Right,66.03161583463292,74.97036185703557,3.301580791731646,1.1776316902351571,Right,Correct,0.0,0.0,-45,45,2004,679,-0.89
"{'cat': 'RB', 'resp': 'reach'}",58,342,Right,54.79640957092058,80.80831703661289,2.739820478546029,1.2693340757558897,Left,Incorrect,0.0,0.0,-45,45,2017,2992,-2.57
"{'cat': 'RB', 'resp': 'reach'}",58,343,Left,35.11539805480294,30.656954179929635,1.755769902740147,0.48155831016552914,Left,Correct,0.0,0.0,-45,45,2004,875,-2.57
"{'cat': 'RB', 'resp': 'reach'}",58,344,Left,32.54131585168793,56.42452888792395,1.6270657925843965,0.8863144271828347,Left,Correct,0.0,0.0,-45,45,2016,704,-2.54
"{'cat': 'RB', 'resp': 'reach'}",58,345,Left,48.5704573446758,60.68960439619307,2.4285228672337897,0.9533100766017546,Right,Incorrect,0.0,0.0,-45,45,2017,825,-0.83
"{'cat': 'RB', 'resp': 'reach'}",58,346,Right,64.69776239198296,63.80359325395168,3.234888119599148,1.0022244991962295,Right,Correct,0.0,0.0,-45,45,2004,709,-0.85
"{'cat': 'RB', 'resp': 'reach'}",58,347,Left,32.57690785685158,58.688035627170706,1.6288453928425788,0.9218695078996777,Left,Correct,0.0,0.0,-45,45,2004,817,-2.46
"{'cat': 'RB', 'resp': 'reach'}",58,348,Right,59.4087570228966,60.00568519534545,2.97043785114483,0.9425670989165953,Right,Correct,0.0,0.0,-45,45,2004,796,-0.81
"{'cat': 'RB', 'resp': 'reach'}",58,349,Left,43.052448492907644,82.10320107045271,2.152622424645382,1.2896740665956992,Left,Correct,0.0,0.0,-45,45,2004,1179,-2.45
"{'cat': 'RB', 'resp': 'reach'}",58,350,Left,36.3057985571229,86.14701189847919,1.815289927856145,1.3531940985448736,Left,Correct,0.0,0.0,-45,45,2012,867,-2.54
"{'cat': 'RB', 'resp': 'reach'}",58,351,Right,68.19372372835285,31.19635566191787,3.4096861864176424,0.4900312088312776,Right,Correct,0.0,0.0,-45,45,2016,775,-0.77
"{'cat': 'RB', 'resp': 'reach'}",58,352,Right,51.9288934728136,60.57634616047022,2.5964446736406797,0.9515310203952277,Right,Correct,0.0,0.0,-45,45,2004,975,-0.79
"{'cat': 'RB', 'resp': 'reach'}",58,353,Left,47.228718762759165,46.95941644916983,2.361435938137958,0.737636788667878,Right,Incorrect,0.0,0.0,-45,45,2005,745,-0.78
"{'cat': 'RB', 'resp': 'reach'}",58,354,Left,37.02086993393816,82.09696008114915,1.851043496696908,1.2895760333649633,Left,Correct,0.0,0.0,-45,45,2016,813,-2.44
"{'cat': 'RB', 'resp': 'reach'}",58,355,Left,43.021747028410964,48.1672482839904,2.151087351420548,0.7566093667630991,Left,Correct,0.0,0.0,-45,45,2004,817,-2.46
"{'cat': 'RB', 'resp': 'reach'}",58,356,Left,33.19755147298117,30.745061992135366,1.6598775736490583,0.4829423044432761,Left,Correct,0.0,0.0,-45,45,2012,780,-2.41
"{'cat': 'RB', 'resp': 'reach'}",58,357,Right,55.73570181344206,42.97998546650674,2.7867850906721032,0.6751280329648682,Right,Correct,0.0,0.0,-45,45,2008,775,-0.76
"{'cat': 'RB', 'resp': 'reach'}",58,358,Left,39.20160603430862,75.79499794597669,1.960080301715431,1.1905850436296692,Left,Correct,0.0,0.0,-45,45,2008,625,-2.57
"{'cat': 'RB', 'resp': 'reach'}",58,359,Left,46.152595753872795,75.11632339636557,2.3076297876936396,1.179924448733486,Left,Correct,0.0,0.0,-45,45,2004,1229,-2.55
"{'cat': 'RB', 'resp': 'reach'}",58,360,Right,65.61571661727993,61.80838293996838,3.2807858308639966,0.9708838088723469,Right,Correct,0.0,0.0,-45,45,2008,533,-0.87
"{'cat': 'RB', 'resp': 'reach'}",58,361,Left,35.41922421707007,37.83335680052319,1.770961210853503,0.5942849789258255,Left,Correct,0.0,0.0,-45,45,2013,674,-2.51
"{'cat': 'RB', 'resp': 'reach'}",58,362,Left,39.73428858729065,80.1229807417428,1.9867144293645325,1.258568838409878,Left,Correct,0.0,0.0,-45,45,2004,846,-2.35
"{'cat': 'RB', 'resp': 'reach'}",58,363,Right,55.835091992005324,86.57127881531176,2.791754599600266,1.3598584676902856,Right,Correct,0.0,0.0,-45,45,2004,817,-0.85
"{'cat': 'RB', 'resp': 'reach'}",58,364,Left,36.648204218410726,16.63476917524215,1.8324102109205365,0.26129834317551337,Left,Correct,0.0,0.0,-45,45,2004,725,-2.42
"{'cat': 'RB', 'resp': 'reach'}",58,365,Right,65.37465660482592,39.42661785458321,3.268732830241296,0.6193118650392541,Right,Correct,0.0,0.0,-45,45,2004,783,-0.88
"{'cat': 'RB', 'resp': 'reach'}",58,366,Right,61.96837494758715,86.19494388259497,3.0984187473793576,1.3539470123907242,Right,Correct,0.0,0.0,-45,45,2004,904,-0.74
"{'cat': 'RB', 'resp': 'reach'}",58,367,Right,63.72796463209837,58.38416423940379,3.1863982316049184,0.9170963073024543,Right,Correct,0.0,0.0,-45,45,2009,570,-0.86
"{'cat': 'RB', 'resp': 'reach'}",58,368,Left,36.57839762019122,14.154653687655887,1.828919881009561,0.22234078019623707,Left,Correct,0.0,0.0,-45,45,2004,675,-2.77
"{'cat': 'RB', 'resp': 'reach'}",58,369,Right,63.46819729994049,46.699677543847365,3.1734098649970246,0.7335568194838156,Right,Correct,0.0,0.0,-45,45,2004,766,-0.82
"{'cat': 'RB', 'resp': 'reach'}",58,370,Left,32.1222897100816,62.4486607999156,1.60611448550408,0.9809412699776789,Left,Correct,0.0,0.0,-45,45,2004,575,-2.5
"{'cat': 'RB', 'resp': 'reach'}",58,371,Right,69.07096906855125,41.841408778068676,3.4535484534275622,0.6572433121651402,Right,Correct,0.0,0.0,-45,45,2004,609,-0.78
"{'cat': 'RB', 'resp': 'reach'}",58,372,Right,55.619734431434345,79.18722766228599,2.7809867215717174,1.2438700634099005,Right,Correct,0.0,0.0,-45,45,2012,696,-0.84
"{'cat': 'RB', 'resp': 'reach'}",58,373,Left,34.31752203550842,21.381645059265253,1.715876101775421,0.3358620951992611,Left,Correct,0.0,0.0,-45,45,2008,742,-2.47
"{'cat': 'RB', 'resp': 'reach'}",58,374,Left,33.09833124223345,63.71077001286329,1.6549165621116726,1.0007664351348011,Left,Correct,0.0,0.0,-45,45,2012,829,-2.52
"{'cat': 'RB', 'resp': 'reach'}",58,375,Right,59.385895021030976,70.43633226242268,2.969294751051549,1.106411319907184,Right,Correct,0.0,0.0,-45,45,2004,738,-0.82
"{'cat': 'RB', 'resp': 'reach'}",58,376,Right,59.17877135120896,48.69765974683536,2.958938567560448,0.7649410505383669,Right,Correct,0.0,0.0,-45,45,2004,675,-0.9
"{'cat': 'RB', 'resp': 'reach'}",58,377,Right,61.67633850005556,39.32343280287851,3.0838169250027776,0.617691038037275,Right,Correct,0.0,0.0,-45,45,2009,783,-0.83
"{'cat': 'RB', 'resp': 'reach'}",58,378,Left,33.68248409091003,42.814817379788586,1.6841242045455016,0.6725335787256621,Left,Correct,0.0,0.0,-45,45,2004,712,-2.58
"{'cat': 'RB', 'resp': 'reach'}",58,379,Right,53.20981449453557,27.311005070680817,2.6604907247267784,0.4290002644610222,Right,Correct,0.0,0.0,-45,45,2008,1279,-0.84
"{'cat': 'RB', 'resp': 'reach'}",58,380,Right,56.73562979197881,26.538775175968226,2.8367814895989403,0.4168701056404647,Right,Correct,0.0,0.0,-45,45,2012,929,-0.79
"{'cat': 'RB', 'resp': 'reach'}",58,381,Left,46.415119595488676,65.4303241531808,2.3207559797744337,1.027777128408158,Left,Correct,0.0,0.0,-45,45,2008,633,-2.7
"{'cat': 'RB', 'resp': 'reach'}",58,382,Left,35.310596999688265,67.17733475791383,1.7655298499844134,1.0552191068160217,Left,Correct,0.0,0.0,-45,45,2013,879,-2.71
"{'cat': 'RB', 'resp': 'reach'}",58,383,Right,61.00248445145448,89.03250771218146,3.050124222572724,1.3985193607963295,Right,Correct,0.0,0.0,-45,45,2008,762,-0.87
"{'cat': 'RB', 'resp': 'reach'}",58,384,Left,43.21336742784183,49.194930595541116,2.1606683713920916,0.7727521627640586,Left,Correct,0.0,0.0,-45,45,2008,1067,-2.74
"{'cat': 'RB', 'resp': 'reach'}",58,385,Left,42.12185088277876,32.886291193531164,2.1060925441389378,0.5165766540870611,Left,Correct,0.0,0.0,-45,45,2012,979,-2.6
"{'cat': 'RB', 'resp': 'reach'}",58,386,Right,65.74445186027397,33.86271013072588,3.2872225930136985,0.5319142068866454,Right,Correct,0.0,0.0,-45,45,2004,1179,-0.82
"{'cat': 'RB', 'resp': 'reach'}",58,387,Left,45.8129154624185,47.5182514145774,2.290645773120925,0.7464149477773457,Left,Correct,0.0,0.0,-45,45,2004,2417,-2.73
"{'cat': 'RB', 'resp': 'reach'}",58,388,Right,67.62307195147241,37.650728436457314,3.3811535975736207,0.5914162592913931,Right,Correct,0.0,0.0,-45,45,2004,713,-0.84
"{'cat': 'RB', 'resp': 'reach'}",58,389,Left,39.91002414911536,87.87849183211569,1.995501207455768,1.3803921217416262,Left,Correct,0.0,0.0,-45,45,2009,887,-2.55
"{'cat': 'RB', 'resp': 'reach'}",58,390,Left,41.24139054606918,38.27757683088835,2.062069527303459,0.6012627708456886,Left,Correct,0.0,0.0,-45,45,2004,904,-2.58
"{'cat': 'RB', 'resp': 'reach'}",58,391,Right,54.17210747805391,69.917944577944,2.7086053739026954,1.0982685052008359,Right,Correct,0.0,0.0,-45,45,2004,1212,-0.74
"{'cat': 'RB', 'resp': 'reach'}",58,392,Left,43.139250077301085,15.2789616405965,2.156962503865054,0.24000136822289106,Left,Correct,0.0,0.0,-45,45,2009,774,-2.66
"{'cat': 'RB', 'resp': 'reach'}",58,393,Right,59.7822098125213,51.26125881440726,2.989110490626065,0.8052099705255344,Right,Correct,0.0,0.0,-45,45,2008,813,-0.81
"{'cat': 'RB', 'resp': 'reach'}",58,394,Left,34.82251804855068,49.757698742105234,1.7411259024275338,0.7815921041386595,Left,Correct,0.0,0.0,-45,45,2004,938,-2.55
"{'cat': 'RB', 'resp': 'reach'}",58,395,Left,34.72794997644151,18.665063831063684,1.7363974988220752,0.29319013705227115,Left,Correct,0.0,0.0,-45,45,2008,1187,-2.46
"{'cat': 'RB', 'resp': 'reach'}",58,396,Left,33.684407566263,57.38832470282312,1.6842203783131497,0.9014536964410738,Left,Correct,0.0,0.0,-45,45,2004,1608,-2.7
"{'cat': 'RB', 'resp': 'reach'}",58,397,Right,56.62453646879174,16.075118744212283,2.8312268234395868,0.25250737476200447,Right,Correct,0.0,0.0,-45,45,2009,725,-0.77
"{'cat': 'RB', 'resp': 'reach'}",58,398,Left,40.40226751545331,79.78215443172903,2.0201133757726653,1.2532151512514313,Left,Correct,0.0,0.0,-45,45,2008,1034,-2.45
"{'cat': 'RB', 'resp': 'reach'}",58,399,Right,62.6119391939861,43.36042095199221,3.1305969596993055,0.6811038995966984,Right,Correct,0.0,0.0,-45,45,2004,1904,-0.88
