condition,subject,trial,cat,x,y,xt,yt,resp,fb,rotation,su,target_angle_left,target_angle_right,rt,mt,ep
"{'cat': 'RB', 'resp': 'button'}",53,0,Left,38.99598453549413,45.02216635951919,1.9497992267747066,0.7072065354188151,Right,Incorrect,0.0,0.0,-45,45,5453,-1,-1
"{'cat': 'RB', 'resp': 'button'}",53,1,Right,59.456851223491185,15.813602116144224,2.9728425611745593,0.24839948117435348,Left,Incorrect,0.0,0.0,-45,45,4633,-1,-1
"{'cat': 'RB', 'resp': 'button'}",53,2,Right,68.59150310037253,58.7434960456915,3.4295751550186266,0.9227406781166274,Left,Incorrect,0.0,0.0,-45,45,2992,-1,-1
"{'cat': 'RB', 'resp': 'button'}",53,3,Right,64.16527711288047,22.377952560435503,3.2082638556440237,0.35151205683122533,Right,Correct,0.0,0.0,-45,45,4088,-1,-1
"{'cat': 'RB', 'resp': 'button'}",53,4,Right,64.11556861854865,24.07563487575809,3.2057784309274324,0.3781791882809592,Left,Incorrect,0.0,0.0,-45,45,2807,-1,-1
"{'cat': 'RB', 'resp': 'button'}",53,5,Right,60.07154942420376,71.82133026035189,3.003577471210188,1.128166817584839,Right,Correct,0.0,0.0,-45,45,4034,-1,-1
"{'cat': 'RB', 'resp': 'button'}",53,6,Left,39.05840925646853,19.398923866671513,1.9529204628234265,0.30471758353541467,Left,Correct,0.0,0.0,-45,45,6572,-1,-1
"{'cat': 'RB', 'resp': 'button'}",53,7,Left,42.23177597598032,66.12526789835977,2.111588798799016,1.03869327923072,Right,Incorrect,0.0,0.0,-45,45,1376,-1,-1
"{'cat': 'RB', 'resp': 'button'}",53,8,Left,45.51669356046221,40.86674005355866,2.2758346780231107,0.6419332516421181,Left,Correct,0.0,0.0,-45,45,1898,-1,-1
"{'cat': 'RB', 'resp': 'button'}",53,9,Right,53.153243925821045,75.20730479724406,2.657662196291052,1.1813535812365519,Left,Incorrect,0.0,0.0,-45,45,2450,-1,-1
"{'cat': 'RB', 'resp': 'button'}",53,10,Right,58.396006153310616,14.00849099540315,2.919800307665531,0.2200448619951865,Right,Correct,0.0,0.0,-45,45,3936,-1,-1
"{'cat': 'RB', 'resp': 'button'}",53,11,Right,65.30514172467849,35.53407848487357,3.2652570862339245,0.5581679996008097,Right,Correct,0.0,0.0,-45,45,4602,-1,-1
"{'cat': 'RB', 'resp': 'button'}",53,12,Left,37.397978180491,28.41664424069049,1.8698989090245501,0.4463676039311398,Left,Correct,0.0,0.0,-45,45,4997,-1,-1
"{'cat': 'RB', 'resp': 'button'}",53,13,Left,36.017968210215415,20.377217176343397,1.8008984105107708,0.3200845789090208,Left,Correct,0.0,0.0,-45,45,4536,-1,-1
"{'cat': 'RB', 'resp': 'button'}",53,14,Left,32.627436756499826,36.99453064480679,1.6313718378249913,0.5811087284836374,Right,Incorrect,0.0,0.0,-45,45,2564,-1,-1
"{'cat': 'RB', 'resp': 'button'}",53,15,Left,35.20498266717423,73.13554583330439,1.7602491333587114,1.1488104675309432,Left,Correct,0.0,0.0,-45,45,3287,-1,-1
"{'cat': 'RB', 'resp': 'button'}",53,16,Left,36.57317649844151,38.0128495262,1.8286588249220757,0.5971044440676209,Left,Correct,0.0,0.0,-45,45,4322,-1,-1
"{'cat': 'RB', 'resp': 'button'}",53,17,Left,45.243197375541534,43.62084151030901,2.262159868777077,0.6851945761609575,Right,Incorrect,0.0,0.0,-45,45,4203,-1,-1
"{'cat': 'RB', 'resp': 'button'}",53,18,Right,60.65049670408885,20.805753621701076,3.0325248352044425,0.32681601365167673,Left,Incorrect,0.0,0.0,-45,45,2329,-1,-1
"{'cat': 'RB', 'resp': 'button'}",53,19,Left,38.288873188100176,41.72923046279563,1.914443659405009,0.6554812193093706,Left,Correct,0.0,0.0,-45,45,3663,-1,-1
"{'cat': 'RB', 'resp': 'button'}",53,20,Right,63.839860087320986,41.54916064058082,3.191993004366049,0.6526526891563545,Right,Correct,0.0,0.0,-45,45,3660,-1,-1
"{'cat': 'RB', 'resp': 'button'}",53,21,Right,54.318545709487566,20.12978451127651,2.7159272854743786,0.31619791569485944,Left,Incorrect,0.0,0.0,-45,45,3811,-1,-1
"{'cat': 'RB', 'resp': 'button'}",53,22,Left,46.381532444298266,70.72258726377228,2.3190766222149133,1.1109078029536503,Right,Incorrect,0.0,0.0,-45,45,2572,-1,-1
"{'cat': 'RB', 'resp': 'button'}",53,23,Left,38.49102920089236,47.109569689007905,1.9245514600446183,0.739995390243818,Left,Correct,0.0,0.0,-45,45,3046,-1,-1
"{'cat': 'RB', 'resp': 'button'}",53,24,Right,53.52859744115448,62.328294878963156,2.676429872057724,0.9790505665126449,Left,Incorrect,0.0,0.0,-45,45,3978,-1,-1
"{'cat': 'RB', 'resp': 'button'}",53,25,Left,42.832516304455865,42.546299154358316,2.141625815222793,0.6683157043038286,Left,Correct,0.0,0.0,-45,45,2610,-1,-1
"{'cat': 'RB', 'resp': 'button'}",53,26,Left,33.85201164692761,66.0940138762111,1.6926005823463806,1.038202342198833,Left,Correct,0.0,0.0,-45,45,846,-1,-1
"{'cat': 'RB', 'resp': 'button'}",53,27,Right,58.707302433616796,78.55974612832973,2.9353651216808396,1.2340136065231997,Right,Correct,0.0,0.0,-45,45,1518,-1,-1
"{'cat': 'RB', 'resp': 'button'}",53,28,Left,46.08532681119799,43.01774265501824,2.3042663405598995,0.6757211214951079,Right,Incorrect,0.0,0.0,-45,45,3142,-1,-1
"{'cat': 'RB', 'resp': 'button'}",53,29,Right,63.80376005716079,74.34224841311656,3.190188002858039,1.167765307329972,Left,Incorrect,0.0,0.0,-45,45,1557,-1,-1
"{'cat': 'RB', 'resp': 'button'}",53,30,Left,41.05469449992576,29.13080885069466,2.052734724996288,0.45758567539235434,Left,Correct,0.0,0.0,-45,45,1607,-1,-1
"{'cat': 'RB', 'resp': 'button'}",53,31,Left,47.084155305148734,30.41686239149365,2.3542077652574367,0.47778695717184055,Right,Incorrect,0.0,0.0,-45,45,1534,-1,-1
"{'cat': 'RB', 'resp': 'button'}",53,32,Right,64.48077445482727,21.421066752737318,3.2240387227413634,0.33648132971228056,Left,Incorrect,0.0,0.0,-45,45,3220,-1,-1
"{'cat': 'RB', 'resp': 'button'}",53,33,Left,32.76321850487918,47.08065087804047,1.6381609252439588,0.739541134623389,Left,Correct,0.0,0.0,-45,45,1363,-1,-1
"{'cat': 'RB', 'resp': 'button'}",53,34,Right,58.41807911170724,34.03001274396328,2.920903955585362,0.5345421901900105,Left,Incorrect,0.0,0.0,-45,45,1691,-1,-1
"{'cat': 'RB', 'resp': 'button'}",53,35,Right,61.39302290915992,28.392382092046727,3.0696511454579958,0.44598649499144194,Left,Incorrect,0.0,0.0,-45,45,2294,-1,-1
"{'cat': 'RB', 'resp': 'button'}",53,36,Left,40.678592502798566,10.558219037877727,2.033929625139928,0.16584811682194278,Right,Incorrect,0.0,0.0,-45,45,3932,-1,-1
"{'cat': 'RB', 'resp': 'button'}",53,37,Left,41.41341645628201,41.44628747961369,2.0706708228141,0.6510367613226249,Left,Correct,0.0,0.0,-45,45,1169,-1,-1
"{'cat': 'RB', 'resp': 'button'}",53,38,Left,32.99434238362122,63.88203180670738,1.6497171191810611,1.0034566091017072,Left,Correct,0.0,0.0,-45,45,2282,-1,-1
"{'cat': 'RB', 'resp': 'button'}",53,39,Right,56.16752856439182,23.04690249031657,2.808376428219591,0.36201989775789417,Left,Incorrect,0.0,0.0,-45,45,2251,-1,-1
"{'cat': 'RB', 'resp': 'button'}",53,40,Right,64.26557088530889,51.17842585350386,3.213278544265444,0.8039088334182884,Left,Incorrect,0.0,0.0,-45,45,3630,-1,-1
"{'cat': 'RB', 'resp': 'button'}",53,41,Right,61.485739277153705,90.06561561042938,3.0742869638576855,1.4147473817138356,Right,Correct,0.0,0.0,-45,45,1010,-1,-1
"{'cat': 'RB', 'resp': 'button'}",53,42,Right,58.706807947270086,24.728495125255527,2.9353403973635044,0.3884342930991688,Right,Correct,0.0,0.0,-45,45,3167,-1,-1
"{'cat': 'RB', 'resp': 'button'}",53,43,Right,53.91984460468768,57.790375941942784,2.695992230234384,0.9077691025369988,Left,Incorrect,0.0,0.0,-45,45,3548,-1,-1
"{'cat': 'RB', 'resp': 'button'}",53,44,Right,55.27142724727909,72.04673221729736,2.763571362363955,1.1317074232450623,Left,Incorrect,0.0,0.0,-45,45,5330,-1,-1
"{'cat': 'RB', 'resp': 'button'}",53,45,Left,33.89968318338382,70.11350009658655,1.694984159169191,1.1013402841045177,Left,Correct,0.0,0.0,-45,45,2509,-1,-1
"{'cat': 'RB', 'resp': 'button'}",53,46,Right,58.07897919763962,28.429294180969425,2.9039489598819808,0.446566308728383,Right,Correct,0.0,0.0,-45,45,1905,-1,-1
"{'cat': 'RB', 'resp': 'button'}",53,47,Left,35.5564651105576,86.50063976370564,1.7778232555278803,1.358748872062374,Left,Correct,0.0,0.0,-45,45,2391,-1,-1
"{'cat': 'RB', 'resp': 'button'}",53,48,Right,66.94492770142878,58.05752206301764,3.3472463850714393,0.9119654239940178,Left,Incorrect,0.0,0.0,-45,45,2252,-1,-1
"{'cat': 'RB', 'resp': 'button'}",53,49,Right,54.723087210749725,49.836422881808566,2.736154360537486,0.7828287000334203,Right,Correct,0.0,0.0,-45,45,1103,-1,-1
"{'cat': 'RB', 'resp': 'button'}",53,50,Right,63.66345710419381,36.2862843709023,3.1831728552096905,0.569983622028484,Left,Incorrect,0.0,0.0,-45,45,1258,-1,-1
"{'cat': 'RB', 'resp': 'button'}",53,51,Left,37.86359229189913,58.098977267360915,1.8931796145949564,0.9126166008211072,Left,Correct,0.0,0.0,-45,45,1003,-1,-1
"{'cat': 'RB', 'resp': 'button'}",53,52,Left,36.630555042577114,18.121130907860785,1.8315277521288555,0.2846460586743719,Right,Incorrect,0.0,0.0,-45,45,854,-1,-1
"{'cat': 'RB', 'resp': 'button'}",53,53,Left,37.23301061654937,15.338237417007086,1.8616505308274685,0.24093246994142775,Left,Correct,0.0,0.0,-45,45,2081,-1,-1
"{'cat': 'RB', 'resp': 'button'}",53,54,Right,58.13421225410856,61.3947057760966,2.906710612705428,0.9643857831774596,Left,Incorrect,0.0,0.0,-45,45,1787,-1,-1
"{'cat': 'RB', 'resp': 'button'}",53,55,Left,39.594207696476644,24.93806974091982,1.9797103848238322,0.3917262834639181,Right,Incorrect,0.0,0.0,-45,45,1236,-1,-1
"{'cat': 'RB', 'resp': 'button'}",53,56,Right,59.28055177988767,59.479743775196596,2.9640275889943837,0.9343056304078042,Right,Correct,0.0,0.0,-45,45,1008,-1,-1
"{'cat': 'RB', 'resp': 'button'}",53,57,Left,35.01634818376884,59.24947814574416,1.750817409188442,0.9306886263584943,Left,Correct,0.0,0.0,-45,45,881,-1,-1
"{'cat': 'RB', 'resp': 'button'}",53,58,Left,40.00801189961963,83.50081675328943,2.0004005949809818,1.311627762404408,Left,Correct,0.0,0.0,-45,45,1621,-1,-1
"{'cat': 'RB', 'resp': 'button'}",53,59,Right,55.441438981963216,28.663296278318516,2.7720719490981605,0.4502420050781656,Left,Incorrect,0.0,0.0,-45,45,1235,-1,-1
"{'cat': 'RB', 'resp': 'button'}",53,60,Left,43.602964460821944,21.292647346549536,2.180148223041097,0.33446412239699114,Right,Incorrect,0.0,0.0,-45,45,796,-1,-1
"{'cat': 'RB', 'resp': 'button'}",53,61,Right,60.81678404866574,80.3590535413576,3.040839202433287,1.2622770612747896,Left,Incorrect,0.0,0.0,-45,45,443,-1,-1
"{'cat': 'RB', 'resp': 'button'}",53,62,Left,41.58765048941778,55.024917136534235,2.0793825244708892,0.8643293772026154,Left,Correct,0.0,0.0,-45,45,1686,-1,-1
"{'cat': 'RB', 'resp': 'button'}",53,63,Left,40.3171567699704,62.14764477345081,2.0158578384985204,0.9762129212909058,Left,Correct,0.0,0.0,-45,45,1308,-1,-1
"{'cat': 'RB', 'resp': 'button'}",53,64,Right,52.594893895368756,46.16407927193072,2.6297446947684375,0.7251436615021719,Left,Incorrect,0.0,0.0,-45,45,3157,-1,-1
"{'cat': 'RB', 'resp': 'button'}",53,65,Right,60.70479260230703,14.608414628128038,3.0352396301153517,0.22946844038160358,Right,Correct,0.0,0.0,-45,45,2041,-1,-1
"{'cat': 'RB', 'resp': 'button'}",53,66,Left,44.615605712191474,54.59016035062731,2.2307802856095735,0.8575002335790978,Left,Correct,0.0,0.0,-45,45,991,-1,-1
"{'cat': 'RB', 'resp': 'button'}",53,67,Right,54.0875850450907,33.57401860226765,2.704379252254535,0.5273794509618555,Left,Incorrect,0.0,0.0,-45,45,1099,-1,-1
"{'cat': 'RB', 'resp': 'button'}",53,68,Left,38.332830050667894,80.08646916487632,1.9166415025333947,1.2579953159016046,Left,Correct,0.0,0.0,-45,45,1063,-1,-1
"{'cat': 'RB', 'resp': 'button'}",53,69,Left,48.87996007706204,35.771896664490036,2.443998003853102,0.5619036388306756,Left,Correct,0.0,0.0,-45,45,4228,-1,-1
"{'cat': 'RB', 'resp': 'button'}",53,70,Left,45.09682447832932,16.907819460802614,2.254841223916466,0.2655874070314001,Left,Correct,0.0,0.0,-45,45,3790,-1,-1
"{'cat': 'RB', 'resp': 'button'}",53,71,Right,66.97811460010425,22.103369156431675,3.3489057300052125,0.3471989108071449,Left,Incorrect,0.0,0.0,-45,45,2617,-1,-1
"{'cat': 'RB', 'resp': 'button'}",53,72,Right,56.2559044522726,81.36750790433624,2.81279522261363,1.2781178253658607,Left,Incorrect,0.0,0.0,-45,45,1434,-1,-1
"{'cat': 'RB', 'resp': 'button'}",53,73,Right,61.37529049256142,15.081500010979248,3.068764524628071,0.23689964819803397,Right,Correct,0.0,0.0,-45,45,1249,-1,-1
"{'cat': 'RB', 'resp': 'button'}",53,74,Right,54.86649387543621,29.36487724318875,2.7433246937718105,0.46126241310383936,Left,Incorrect,0.0,0.0,-45,45,4410,-1,-1
"{'cat': 'RB', 'resp': 'button'}",53,75,Right,64.20335730257236,31.308540712382012,3.2101678651286183,0.49179340748318134,Left,Incorrect,0.0,0.0,-45,45,1003,-1,-1
"{'cat': 'RB', 'resp': 'button'}",53,76,Left,44.61236919338735,39.58833026359048,2.2306184596693672,0.6218520376199117,Right,Incorrect,0.0,0.0,-45,45,1349,-1,-1
"{'cat': 'RB', 'resp': 'button'}",53,77,Right,60.84337417576045,19.651925148137604,3.0421687087880223,0.308691718371428,Left,Incorrect,0.0,0.0,-45,45,748,-1,-1
"{'cat': 'RB', 'resp': 'button'}",53,78,Right,61.19584442007736,70.94776950120851,3.059792221003868,1.1144449572678934,Right,Correct,0.0,0.0,-45,45,1654,-1,-1
"{'cat': 'RB', 'resp': 'button'}",53,79,Right,68.30005152875256,41.9236933147332,3.4150025764376277,0.6585358346445868,Right,Correct,0.0,0.0,-45,45,2678,-1,-1
"{'cat': 'RB', 'resp': 'button'}",53,80,Left,31.93003675722241,69.97226359682358,1.5965018378611204,1.0991217463541474,Right,Incorrect,0.0,0.0,-45,45,2364,-1,-1
"{'cat': 'RB', 'resp': 'button'}",53,81,Left,44.63160967204342,69.52759879245741,2.231580483602171,1.0921369679406139,Left,Correct,0.0,0.0,-45,45,1148,-1,-1
"{'cat': 'RB', 'resp': 'button'}",53,82,Left,37.35286768803927,22.516201657063483,1.8676433844019635,0.3536836685628848,Right,Incorrect,0.0,0.0,-45,45,1484,-1,-1
"{'cat': 'RB', 'resp': 'button'}",53,83,Right,68.02482756293213,66.52053722006153,3.4012413781466067,1.0449021552169584,Left,Incorrect,0.0,0.0,-45,45,1819,-1,-1
"{'cat': 'RB', 'resp': 'button'}",53,84,Left,38.332891487399664,58.64402270024394,1.9166445743699831,0.9211781544601971,Left,Correct,0.0,0.0,-45,45,1138,-1,-1
"{'cat': 'RB', 'resp': 'button'}",53,85,Left,38.542104271311246,68.57303538916494,1.9271052135655622,1.0771427210647675,Left,Correct,0.0,0.0,-45,45,3571,-1,-1
"{'cat': 'RB', 'resp': 'button'}",53,86,Left,39.73524772327192,51.22760685144775,1.986762386163596,0.804681366727472,Right,Incorrect,0.0,0.0,-45,45,4628,-1,-1
"{'cat': 'RB', 'resp': 'button'}",53,87,Left,39.618242571562085,31.05435547666038,1.9809121285781044,0.48780067513721104,Left,Correct,0.0,0.0,-45,45,696,-1,-1
"{'cat': 'RB', 'resp': 'button'}",53,88,Right,51.58470558141563,48.896923878406916,2.5792352790707813,0.7680710841977125,Left,Incorrect,0.0,0.0,-45,45,2829,-1,-1
"{'cat': 'RB', 'resp': 'button'}",53,89,Right,58.12450132330334,79.85995698044582,2.906225066165167,1.2544372708288276,Right,Correct,0.0,0.0,-45,45,721,-1,-1
"{'cat': 'RB', 'resp': 'button'}",53,90,Left,42.38567180985123,75.01140223430825,2.1192835904925618,1.178276350973859,Left,Correct,0.0,0.0,-45,45,1235,-1,-1
"{'cat': 'RB', 'resp': 'button'}",53,91,Right,55.824690424249006,35.63978229789779,2.7912345212124503,0.5598283912130761,Left,Incorrect,0.0,0.0,-45,45,427,-1,-1
"{'cat': 'RB', 'resp': 'button'}",53,92,Right,55.014492327149654,65.26847211292088,2.7507246163574823,1.0252347625049123,Right,Correct,0.0,0.0,-45,45,2059,-1,-1
"{'cat': 'RB', 'resp': 'button'}",53,93,Right,64.59363566315794,66.16190067137663,3.229681783157897,1.039268705483672,Right,Correct,0.0,0.0,-45,45,1005,-1,-1
"{'cat': 'RB', 'resp': 'button'}",53,94,Left,41.072223617945156,75.91710082133433,2.0536111808972577,1.1925030311106979,Left,Correct,0.0,0.0,-45,45,1267,-1,-1
"{'cat': 'RB', 'resp': 'button'}",53,95,Right,59.305775051049004,74.0991443382453,2.96528875255245,1.1639466374516054,Left,Incorrect,0.0,0.0,-45,45,1455,-1,-1
"{'cat': 'RB', 'resp': 'button'}",53,96,Right,56.65745677677894,68.03892911638731,2.832872838838947,1.0687529993507952,Right,Correct,0.0,0.0,-45,45,1387,-1,-1
"{'cat': 'RB', 'resp': 'button'}",53,97,Right,57.30973365696226,64.39739414923297,2.865486682848113,1.0115519018477832,Right,Correct,0.0,0.0,-45,45,2097,-1,-1
"{'cat': 'RB', 'resp': 'button'}",53,98,Left,46.569004927378614,31.47609464228123,2.3284502463689307,0.4944253384594388,Left,Correct,0.0,0.0,-45,45,1269,-1,-1
"{'cat': 'RB', 'resp': 'button'}",53,99,Left,42.10535009765288,71.63533171670208,2.105267504882644,1.125245159293296,Right,Incorrect,0.0,0.0,-45,45,1215,-1,-1
"{'cat': 'RB', 'resp': 'button'}",53,100,Left,38.203056522722996,70.42330412542958,1.9101528261361498,1.1062066744098469,Left,Correct,0.0,0.0,-45,45,1135,-1,-1
"{'cat': 'RB', 'resp': 'button'}",53,101,Right,60.222821498782594,42.20937262299831,3.01114107493913,0.663023274725228,Left,Incorrect,0.0,0.0,-45,45,1052,-1,-1
"{'cat': 'RB', 'resp': 'button'}",53,102,Right,55.809700520130804,33.831981902056604,2.7904850260065404,0.5314315289994194,Right,Correct,0.0,0.0,-45,45,819,-1,-1
"{'cat': 'RB', 'resp': 'button'}",53,103,Left,47.82328550914984,52.73892530065364,2.391164275457492,0.8284211014137719,Left,Correct,0.0,0.0,-45,45,1970,-1,-1
"{'cat': 'RB', 'resp': 'button'}",53,104,Left,34.506681456902,43.56423686384962,1.7253340728451,0.6843054324535781,Left,Correct,0.0,0.0,-45,45,4698,-1,-1
"{'cat': 'RB', 'resp': 'button'}",53,105,Right,67.21416488572243,51.06604885511097,3.3607082442861214,0.8021436196553703,Right,Correct,0.0,0.0,-45,45,1615,-1,-1
"{'cat': 'RB', 'resp': 'button'}",53,106,Left,33.85565944835602,56.875548933808,1.6927829724178012,0.8933990334966899,Left,Correct,0.0,0.0,-45,45,829,-1,-1
"{'cat': 'RB', 'resp': 'button'}",53,107,Left,32.69015025742766,27.330715598163184,1.634507512871383,0.4293098767027072,Right,Incorrect,0.0,0.0,-45,45,1569,-1,-1
"{'cat': 'RB', 'resp': 'button'}",53,108,Left,43.34574650669478,63.380661378944914,2.167287325334739,0.9955811008387784,Left,Correct,0.0,0.0,-45,45,460,-1,-1
"{'cat': 'RB', 'resp': 'button'}",53,109,Left,32.4045943753856,46.58808470518216,1.62022971876928,0.7318039232730964,Left,Correct,0.0,0.0,-45,45,834,-1,-1
"{'cat': 'RB', 'resp': 'button'}",53,110,Right,56.74316615709506,83.58533376071358,2.837158307854753,1.3129553524525435,Right,Correct,0.0,0.0,-45,45,358,-1,-1
"{'cat': 'RB', 'resp': 'button'}",53,111,Left,37.38945143491544,37.959120788734225,1.869472571745772,0.5962604750330752,Right,Incorrect,0.0,0.0,-45,45,1070,-1,-1
"{'cat': 'RB', 'resp': 'button'}",53,112,Left,40.51612903956132,83.32871911819163,2.025806451978066,1.3089244590737907,Left,Correct,0.0,0.0,-45,45,343,-1,-1
"{'cat': 'RB', 'resp': 'button'}",53,113,Right,57.80159955026574,70.53731326410491,2.8900799775132873,1.107997525772369,Left,Incorrect,0.0,0.0,-45,45,1172,-1,-1
"{'cat': 'RB', 'resp': 'button'}",53,114,Left,34.730544853786185,81.16593134938239,1.736527242689309,1.2749514682449659,Left,Correct,0.0,0.0,-45,45,1008,-1,-1
"{'cat': 'RB', 'resp': 'button'}",53,115,Right,53.78703019944248,48.57115996984614,2.6893515099721244,0.7629539966880164,Left,Incorrect,0.0,0.0,-45,45,914,-1,-1
"{'cat': 'RB', 'resp': 'button'}",53,116,Left,31.47096767394691,46.50119559210871,1.5735483836973456,0.7304390722765539,Right,Incorrect,0.0,0.0,-45,45,1187,-1,-1
"{'cat': 'RB', 'resp': 'button'}",53,117,Left,43.725653448937514,59.92460540978449,2.186282672446876,0.9412935006232306,Left,Correct,0.0,0.0,-45,45,1287,-1,-1
"{'cat': 'RB', 'resp': 'button'}",53,118,Left,37.609230248371176,33.28046988066335,1.8804615124185589,0.5227683984255417,Left,Correct,0.0,0.0,-45,45,2184,-1,-1
"{'cat': 'RB', 'resp': 'button'}",53,119,Left,49.037403259177516,45.343348952008824,2.4518701629588757,0.7122516597839468,Left,Correct,0.0,0.0,-45,45,1641,-1,-1
"{'cat': 'RB', 'resp': 'button'}",53,120,Right,56.00393440306021,66.73671159061733,2.8001967201530102,1.048297814289121,Left,Incorrect,0.0,0.0,-45,45,1521,-1,-1
"{'cat': 'RB', 'resp': 'button'}",53,121,Left,40.33163401861665,65.16021188038192,2.0165817009308324,1.023534214748811,Left,Correct,0.0,0.0,-45,45,290,-1,-1
"{'cat': 'RB', 'resp': 'button'}",53,122,Left,33.97497246009653,62.21956104869652,1.6987486230048265,0.9773425795008331,Left,Correct,0.0,0.0,-45,45,249,-1,-1
"{'cat': 'RB', 'resp': 'button'}",53,123,Left,31.808238248323228,58.8756607609949,1.5904119124161613,0.924816716609932,Right,Incorrect,0.0,0.0,-45,45,275,-1,-1
"{'cat': 'RB', 'resp': 'button'}",53,124,Right,62.39281354189654,19.10941163761223,3.119640677094827,0.3001699360757294,Left,Incorrect,0.0,0.0,-45,45,275,-1,-1
"{'cat': 'RB', 'resp': 'button'}",53,125,Left,47.98543503753983,55.174306650555664,2.3992717518769915,0.8666759822014808,Right,Incorrect,0.0,0.0,-45,45,425,-1,-1
"{'cat': 'RB', 'resp': 'button'}",53,126,Left,38.560148450923776,83.52283724458933,1.9280074225461887,1.311973659472889,Left,Correct,0.0,0.0,-45,45,323,-1,-1
"{'cat': 'RB', 'resp': 'button'}",53,127,Right,51.852473161252576,70.0249674143103,2.592623658062629,1.0999496159833093,Left,Incorrect,0.0,0.0,-45,45,3457,-1,-1
"{'cat': 'RB', 'resp': 'button'}",53,128,Left,47.150893362624544,49.17660898298263,2.357544668131227,0.7724643675469802,Right,Incorrect,0.0,0.0,-45,45,4433,-1,-1
"{'cat': 'RB', 'resp': 'button'}",53,129,Right,65.67448705129763,31.27086825721825,3.283724352564882,0.49120164994125565,Left,Incorrect,0.0,0.0,-45,45,1440,-1,-1
"{'cat': 'RB', 'resp': 'button'}",53,130,Left,47.33413660781429,75.35168289996433,2.366706830390714,1.1836214671707779,Right,Incorrect,0.0,0.0,-45,45,495,-1,-1
"{'cat': 'RB', 'resp': 'button'}",53,131,Right,57.69767777273869,39.64473509304531,2.8848838886369346,0.6227380426091231,Left,Incorrect,0.0,0.0,-45,45,235,-1,-1
"{'cat': 'RB', 'resp': 'button'}",53,132,Left,42.45958404592827,25.624210815554875,2.1229792022964133,0.40250416226091656,Left,Correct,0.0,0.0,-45,45,226,-1,-1
"{'cat': 'RB', 'resp': 'button'}",53,133,Left,34.85463045275912,49.89545994416301,1.742731522637956,0.7837560520403315,Right,Incorrect,0.0,0.0,-45,45,200,-1,-1
"{'cat': 'RB', 'resp': 'button'}",53,134,Right,55.9620260729217,79.08645465379895,2.7981013036460856,1.2422871246941856,Left,Incorrect,0.0,0.0,-45,45,1196,-1,-1
"{'cat': 'RB', 'resp': 'button'}",53,135,Right,53.56837318451184,24.48994385842391,2.6784186592255925,0.38468713856225517,Right,Correct,0.0,0.0,-45,45,1532,-1,-1
"{'cat': 'RB', 'resp': 'button'}",53,136,Left,41.10947467140614,21.04405945039029,2.055473733570307,0.33055931285526496,Left,Correct,0.0,0.0,-45,45,1562,-1,-1
"{'cat': 'RB', 'resp': 'button'}",53,137,Left,36.653195893445286,85.07466157914288,1.8326597946722643,1.3363496591183657,Left,Correct,0.0,0.0,-45,45,1570,-1,-1
"{'cat': 'RB', 'resp': 'button'}",53,138,Right,57.52046386110513,14.743949534492394,2.876023193055256,0.2315974177122998,Left,Incorrect,0.0,0.0,-45,45,1120,-1,-1
"{'cat': 'RB', 'resp': 'button'}",53,139,Left,31.601845063991973,47.80938730699165,1.5800922531995985,0.7509880996813703,Right,Incorrect,0.0,0.0,-45,45,1593,-1,-1
"{'cat': 'RB', 'resp': 'button'}",53,140,Left,33.05032431096348,71.63872842361485,1.652516215548174,1.1252985146407135,Left,Correct,0.0,0.0,-45,45,1933,-1,-1
"{'cat': 'RB', 'resp': 'button'}",53,141,Left,47.56886366384383,61.59227906300277,2.3784431831921915,0.9674892571109097,Left,Correct,0.0,0.0,-45,45,2422,-1,-1
"{'cat': 'RB', 'resp': 'button'}",53,142,Right,53.54449371732877,50.84348684811814,2.6772246858664386,0.7986476238246861,Right,Correct,0.0,0.0,-45,45,2741,-1,-1
"{'cat': 'RB', 'resp': 'button'}",53,143,Left,42.6520345231435,17.93003245478883,2.132601726157175,0.28164429119295575,Right,Incorrect,0.0,0.0,-45,45,2100,-1,-1
"{'cat': 'RB', 'resp': 'button'}",53,144,Right,58.9495714108885,32.34550370534804,2.9474785705444253,0.5080819840869141,Left,Incorrect,0.0,0.0,-45,45,2230,-1,-1
"{'cat': 'RB', 'resp': 'button'}",53,145,Right,56.15839469889959,15.16724749178227,2.8079197349449796,0.238246566476807,Right,Correct,0.0,0.0,-45,45,1746,-1,-1
"{'cat': 'RB', 'resp': 'button'}",53,146,Right,58.31237240816357,28.666159468857302,2.9156186204081784,0.4502869799699779,Left,Incorrect,0.0,0.0,-45,45,3576,-1,-1
"{'cat': 'RB', 'resp': 'button'}",53,147,Right,58.9748504450291,65.167877225845,2.9487425222514547,1.0236546217137812,Right,Correct,0.0,0.0,-45,45,1183,-1,-1
"{'cat': 'RB', 'resp': 'button'}",53,148,Right,59.29362061829562,20.11817264100881,2.964681030914781,0.31601551686322227,Left,Incorrect,0.0,0.0,-45,45,4663,-1,-1
"{'cat': 'RB', 'resp': 'button'}",53,149,Right,58.05945762407421,49.435871158013605,2.9029728812037106,0.7765368482691353,Right,Correct,0.0,0.0,-45,45,2156,-1,-1
"{'cat': 'RB', 'resp': 'button'}",53,150,Left,49.46166166244307,48.29265209242792,2.4730830831221535,0.7585792051796966,Left,Correct,0.0,0.0,-45,45,2027,-1,-1
"{'cat': 'RB', 'resp': 'button'}",53,151,Right,58.42185223155607,19.13627663918598,2.9210926115778033,0.30059193053364325,Left,Incorrect,0.0,0.0,-45,45,2299,-1,-1
"{'cat': 'RB', 'resp': 'button'}",53,152,Right,54.70059572520864,17.44844884016773,2.7350297862604322,0.2740795934640414,Right,Correct,0.0,0.0,-45,45,1724,-1,-1
"{'cat': 'RB', 'resp': 'button'}",53,153,Left,38.02081418898887,66.52949111622625,1.9010407094494437,1.045042802689019,Left,Correct,0.0,0.0,-45,45,1749,-1,-1
"{'cat': 'RB', 'resp': 'button'}",53,154,Left,37.53486307856839,61.358174956692395,1.8767431539284194,0.9638119584081102,Left,Correct,0.0,0.0,-45,45,1732,-1,-1
"{'cat': 'RB', 'resp': 'button'}",53,155,Left,39.58688753645309,36.773996612675056,1.9793443768226546,0.5776445880075793,Left,Correct,0.0,0.0,-45,45,1918,-1,-1
"{'cat': 'RB', 'resp': 'button'}",53,156,Right,53.71203160986177,51.48283972120923,2.6856015804930884,0.8086905552704585,Right,Correct,0.0,0.0,-45,45,1349,-1,-1
"{'cat': 'RB', 'resp': 'button'}",53,157,Left,35.22596220529259,42.65669285357709,1.7612981102646297,0.67004976447617,Left,Correct,0.0,0.0,-45,45,2244,-1,-1
"{'cat': 'RB', 'resp': 'button'}",53,158,Right,63.040091689727355,89.14047096613524,3.1520045844863676,1.4002152436237234,Right,Correct,0.0,0.0,-45,45,3208,-1,-1
"{'cat': 'RB', 'resp': 'button'}",53,159,Right,67.32231336266045,34.86944774625776,3.3661156681330224,0.5477280043718827,Right,Correct,0.0,0.0,-45,45,3412,-1,-1
"{'cat': 'RB', 'resp': 'button'}",53,160,Left,41.82471492471015,59.94614300957851,2.0912357462355073,0.941631812449675,Left,Correct,0.0,0.0,-45,45,1299,-1,-1
"{'cat': 'RB', 'resp': 'button'}",53,161,Left,35.746095737765884,52.54190668907258,1.787304786888294,0.8253263402999542,Left,Correct,0.0,0.0,-45,45,1256,-1,-1
"{'cat': 'RB', 'resp': 'button'}",53,162,Right,54.59064661387193,17.261312543594954,2.729532330693597,0.27114006339137625,Right,Correct,0.0,0.0,-45,45,700,-1,-1
"{'cat': 'RB', 'resp': 'button'}",53,163,Right,59.57962364225252,16.94166559335622,2.978981182112626,0.2661190608383143,Left,Incorrect,0.0,0.0,-45,45,824,-1,-1
"{'cat': 'RB', 'resp': 'button'}",53,164,Left,42.57908601386661,72.29102324620007,2.1289543006933305,1.1355447377537553,Right,Incorrect,0.0,0.0,-45,45,2006,-1,-1
"{'cat': 'RB', 'resp': 'button'}",53,165,Right,67.85468480962462,41.610409195924916,3.3927342404812304,0.6536147792139144,Left,Incorrect,0.0,0.0,-45,45,927,-1,-1
"{'cat': 'RB', 'resp': 'button'}",53,166,Left,38.23662357026167,87.05331620998214,1.9118311785130835,1.3674302933795457,Left,Correct,0.0,0.0,-45,45,946,-1,-1
"{'cat': 'RB', 'resp': 'button'}",53,167,Right,58.77999387286226,18.9429031603906,2.9389996936431135,0.29755442703172985,Left,Incorrect,0.0,0.0,-45,45,879,-1,-1
"{'cat': 'RB', 'resp': 'button'}",53,168,Right,53.088769464959334,38.91436856578556,2.6544384732479664,0.6112654720267874,Left,Incorrect,0.0,0.0,-45,45,1478,-1,-1
"{'cat': 'RB', 'resp': 'button'}",53,169,Right,63.408134201285364,76.65361003293455,3.170406710064268,1.2040720907530202,Right,Correct,0.0,0.0,-45,45,2695,-1,-1
"{'cat': 'RB', 'resp': 'button'}",53,170,Left,44.16786403467372,76.86115879501861,2.2083932017336863,1.207332259084145,Left,Correct,0.0,0.0,-45,45,968,-1,-1
"{'cat': 'RB', 'resp': 'button'}",53,171,Left,42.149728448649945,28.853928475718057,2.107486422432497,0.453236448632606,Left,Correct,0.0,0.0,-45,45,1120,-1,-1
"{'cat': 'RB', 'resp': 'button'}",53,172,Left,43.34178967284372,69.45109415341186,2.167089483642186,1.0909352358806585,Right,Incorrect,0.0,0.0,-45,45,920,-1,-1
"{'cat': 'RB', 'resp': 'button'}",53,173,Left,43.4263863547577,76.78680046328759,2.1713193177378853,1.206164241140648,Left,Correct,0.0,0.0,-45,45,318,-1,-1
"{'cat': 'RB', 'resp': 'button'}",53,174,Left,42.34125693414414,54.19465760122263,2.1170628467072072,0.8512876909190763,Left,Correct,0.0,0.0,-45,45,778,-1,-1
"{'cat': 'RB', 'resp': 'button'}",53,175,Right,61.73054907650132,72.44591481904827,3.086527453825066,1.1379777688905697,Right,Correct,0.0,0.0,-45,45,1832,-1,-1
"{'cat': 'RB', 'resp': 'button'}",53,176,Right,60.36937120473533,75.52962161716262,3.0184685602367667,1.1864165220044747,Right,Correct,0.0,0.0,-45,45,800,-1,-1
"{'cat': 'RB', 'resp': 'button'}",53,177,Left,46.002458753722316,73.34207696314883,2.300122937686116,1.1520546509322276,Left,Correct,0.0,0.0,-45,45,1417,-1,-1
"{'cat': 'RB', 'resp': 'button'}",53,178,Left,41.38713195400865,72.61601804525124,2.0693565977004327,1.1406497441195256,Left,Correct,0.0,0.0,-45,45,878,-1,-1
"{'cat': 'RB', 'resp': 'button'}",53,179,Left,40.76669493280679,77.59360485993358,2.0383347466403396,1.2188374949675829,Left,Correct,0.0,0.0,-45,45,893,-1,-1
"{'cat': 'RB', 'resp': 'button'}",53,180,Right,60.39279991784059,15.29013738406772,3.0196399958920295,0.24017691639082905,Right,Correct,0.0,0.0,-45,45,879,-1,-1
"{'cat': 'RB', 'resp': 'button'}",53,181,Right,67.62847922622647,28.360842066237648,3.3814239613113237,0.4454910654245628,Right,Correct,0.0,0.0,-45,45,866,-1,-1
"{'cat': 'RB', 'resp': 'button'}",53,182,Left,42.33572012383381,73.79617596322241,2.1167860061916906,1.159187621345396,Left,Correct,0.0,0.0,-45,45,760,-1,-1
"{'cat': 'RB', 'resp': 'button'}",53,183,Right,51.76246865002903,63.60607931850316,2.5881234325014515,0.999121957553296,Right,Correct,0.0,0.0,-45,45,866,-1,-1
"{'cat': 'RB', 'resp': 'button'}",53,184,Left,31.29428256499225,56.29193432046285,1.5647141282496124,0.8842316365876263,Left,Correct,0.0,0.0,-45,45,862,-1,-1
"{'cat': 'RB', 'resp': 'button'}",53,185,Right,55.314901660803116,30.954230759024004,2.765745083040156,0.4862279197503651,Right,Correct,0.0,0.0,-45,45,1370,-1,-1
"{'cat': 'RB', 'resp': 'button'}",53,186,Left,35.59933393622759,57.58747618300223,1.7799666968113794,0.904581960576485,Left,Correct,0.0,0.0,-45,45,938,-1,-1
"{'cat': 'RB', 'resp': 'button'}",53,187,Right,65.99319144891646,41.50804137934818,3.2996595724458233,0.6520067893113068,Right,Correct,0.0,0.0,-45,45,1724,-1,-1
"{'cat': 'RB', 'resp': 'button'}",53,188,Left,44.7418575054482,27.196195171202504,2.23709287527241,0.42719683477722,Right,Incorrect,0.0,0.0,-45,45,1787,-1,-1
"{'cat': 'RB', 'resp': 'button'}",53,189,Right,67.36240756225716,46.34010321169305,3.3681203781128577,0.7279086390822382,Right,Correct,0.0,0.0,-45,45,801,-1,-1
"{'cat': 'RB', 'resp': 'button'}",53,190,Left,44.34054895240664,26.93203291415428,2.217027447620332,0.423047383746728,Left,Correct,0.0,0.0,-45,45,790,-1,-1
"{'cat': 'RB', 'resp': 'button'}",53,191,Left,48.96012231406972,40.90548625451294,2.4480061157034863,0.6425418755434804,Left,Correct,0.0,0.0,-45,45,678,-1,-1
"{'cat': 'RB', 'resp': 'button'}",53,192,Right,59.63670333044673,13.97992485476371,2.9818351665223366,0.21959614610731512,Right,Correct,0.0,0.0,-45,45,718,-1,-1
"{'cat': 'RB', 'resp': 'button'}",53,193,Left,39.85931816942342,21.449133595162532,1.992965908471171,0.3369222026421432,Left,Correct,0.0,0.0,-45,45,671,-1,-1
"{'cat': 'RB', 'resp': 'button'}",53,194,Right,51.80511901003865,36.3021541227923,2.5902559505019327,0.5702329035082436,Left,Incorrect,0.0,0.0,-45,45,1101,-1,-1
"{'cat': 'RB', 'resp': 'button'}",53,195,Left,37.628706929184986,61.31088583380357,1.8814353464592495,0.963069142602799,Left,Correct,0.0,0.0,-45,45,876,-1,-1
"{'cat': 'RB', 'resp': 'button'}",53,196,Left,45.13996601521449,61.37384556874167,2.2569983007607246,0.9640581118065665,Right,Incorrect,0.0,0.0,-45,45,1067,-1,-1
"{'cat': 'RB', 'resp': 'button'}",53,197,Left,32.0552644765292,52.42214009683755,1.6027632238264602,0.8234450510683989,Left,Correct,0.0,0.0,-45,45,805,-1,-1
"{'cat': 'RB', 'resp': 'button'}",53,198,Left,44.97494216065687,25.565559486871695,2.2487471080328434,0.4015828693443448,Left,Correct,0.0,0.0,-45,45,1365,-1,-1
"{'cat': 'RB', 'resp': 'button'}",53,199,Right,60.96806869300977,37.647679921319394,3.048403434650488,0.5913683733275847,Right,Correct,0.0,0.0,-45,45,669,-1,-1
"{'cat': 'RB', 'resp': 'button'}",53,200,Right,61.489549053264746,53.98907855936887,3.0744774526632375,0.8480584628809773,Right,Correct,0.0,0.0,-45,45,847,-1,-1
"{'cat': 'RB', 'resp': 'button'}",53,201,Right,62.571454005013344,20.828932256998858,3.1285727002506674,0.3271801028035354,Right,Correct,0.0,0.0,-45,45,704,-1,-1
"{'cat': 'RB', 'resp': 'button'}",53,202,Left,43.86957986458019,79.37824154074875,2.1934789932290095,1.246870502396462,Left,Correct,0.0,0.0,-45,45,644,-1,-1
"{'cat': 'RB', 'resp': 'button'}",53,203,Right,64.33502799794064,53.53583562058138,3.2167513998970323,0.8409389394470463,Right,Correct,0.0,0.0,-45,45,714,-1,-1
"{'cat': 'RB', 'resp': 'button'}",53,204,Right,54.790976117111974,21.517681377278354,2.739548805855599,0.3379989486857179,Left,Incorrect,0.0,0.0,-45,45,937,-1,-1
"{'cat': 'RB', 'resp': 'button'}",53,205,Right,58.24164048889223,70.14439953816922,2.9120820244446115,1.1018256513978986,Right,Correct,0.0,0.0,-45,45,852,-1,-1
"{'cat': 'RB', 'resp': 'button'}",53,206,Right,57.16455562721785,78.72847249082284,2.8582277813608927,1.2366639540275757,Right,Correct,0.0,0.0,-45,45,541,-1,-1
"{'cat': 'RB', 'resp': 'button'}",53,207,Left,44.272918290164085,17.61989692747671,2.2136459145082044,0.276772693721851,Right,Incorrect,0.0,0.0,-45,45,828,-1,-1
"{'cat': 'RB', 'resp': 'button'}",53,208,Left,40.82243336838767,62.812366974173194,2.0411216684193834,0.9866543532032434,Left,Correct,0.0,0.0,-45,45,694,-1,-1
"{'cat': 'RB', 'resp': 'button'}",53,209,Left,44.078944517988376,31.213042829337784,2.2039472258994186,0.49029333024415567,Left,Correct,0.0,0.0,-45,45,588,-1,-1
"{'cat': 'RB', 'resp': 'button'}",53,210,Right,63.86165184906815,45.43794220885416,3.1930825924534076,0.713737527187869,Right,Correct,0.0,0.0,-45,45,574,-1,-1
"{'cat': 'RB', 'resp': 'button'}",53,211,Right,63.280608268835884,59.1373312687969,3.1640304134417945,0.9289270273347915,Right,Correct,0.0,0.0,-45,45,488,-1,-1
"{'cat': 'RB', 'resp': 'button'}",53,212,Left,35.970784173391905,19.03899774051103,1.7985392086695953,0.29906387716651056,Left,Correct,0.0,0.0,-45,45,724,-1,-1
"{'cat': 'RB', 'resp': 'button'}",53,213,Left,40.17610336536497,20.670034429645305,2.008805168268249,0.3246841415681089,Left,Correct,0.0,0.0,-45,45,417,-1,-1
"{'cat': 'RB', 'resp': 'button'}",53,214,Left,34.53831929773796,39.488658119719354,1.726915964886898,0.6202863912451463,Left,Correct,0.0,0.0,-45,45,564,-1,-1
"{'cat': 'RB', 'resp': 'button'}",53,215,Right,54.84545854523323,16.621546473480898,2.742272927261661,0.2610906414619446,Left,Incorrect,0.0,0.0,-45,45,619,-1,-1
"{'cat': 'RB', 'resp': 'button'}",53,216,Left,48.07549629514568,50.319902874632355,2.403774814757284,0.7904231860014846,Left,Correct,0.0,0.0,-45,45,523,-1,-1
"{'cat': 'RB', 'resp': 'button'}",53,217,Right,53.9297655938484,54.94649574447065,2.69648827969242,0.8630975368566592,Right,Correct,0.0,0.0,-45,45,427,-1,-1
"{'cat': 'RB', 'resp': 'button'}",53,218,Right,52.13890456699897,42.11268298893833,2.6069452283499484,0.6615044775050225,Right,Correct,0.0,0.0,-45,45,549,-1,-1
"{'cat': 'RB', 'resp': 'button'}",53,219,Right,62.72085385086687,28.150933546647714,3.1360426925433433,0.4421938301092146,Right,Correct,0.0,0.0,-45,45,611,-1,-1
"{'cat': 'RB', 'resp': 'button'}",53,220,Right,54.55936092039482,78.20345744639505,2.7279680460197415,1.2284170369945833,Right,Correct,0.0,0.0,-45,45,810,-1,-1
"{'cat': 'RB', 'resp': 'button'}",53,221,Left,33.578805223394085,26.47211894606841,1.6789402611697042,0.41582307202961843,Left,Correct,0.0,0.0,-45,45,714,-1,-1
"{'cat': 'RB', 'resp': 'button'}",53,222,Right,64.9116744867491,60.34067911059378,3.2455837243374557,0.9478291710323025,Right,Correct,0.0,0.0,-45,45,609,-1,-1
"{'cat': 'RB', 'resp': 'button'}",53,223,Right,52.998814889078346,28.394684406306318,2.649940744453917,0.44602265965926297,Left,Incorrect,0.0,0.0,-45,45,1107,-1,-1
"{'cat': 'RB', 'resp': 'button'}",53,224,Left,45.76166671259001,68.06012390175144,2.2880833356295,1.0690859262607668,Left,Correct,0.0,0.0,-45,45,1074,-1,-1
"{'cat': 'RB', 'resp': 'button'}",53,225,Left,42.14177504168642,57.142206891818844,2.107088752084321,0.8975876869062306,Left,Correct,0.0,0.0,-45,45,603,-1,-1
"{'cat': 'RB', 'resp': 'button'}",53,226,Right,60.201792288036245,84.32869405794457,3.0100896144018123,1.3246320286962996,Right,Correct,0.0,0.0,-45,45,468,-1,-1
"{'cat': 'RB', 'resp': 'button'}",53,227,Right,64.28989855299042,35.521188918666525,3.214494927649521,0.5579655307682896,Right,Correct,0.0,0.0,-45,45,500,-1,-1
"{'cat': 'RB', 'resp': 'button'}",53,228,Left,45.33439993425269,73.00962630301598,2.2667199967126344,1.1468325281744556,Left,Correct,0.0,0.0,-45,45,733,-1,-1
"{'cat': 'RB', 'resp': 'button'}",53,229,Left,36.96856295860266,89.10178555206858,1.848428147930133,1.3996075745605592,Left,Correct,0.0,0.0,-45,45,523,-1,-1
"{'cat': 'RB', 'resp': 'button'}",53,230,Right,65.78425383683494,46.46287205246851,3.2892126918417466,0.7298370875235878,Right,Correct,0.0,0.0,-45,45,519,-1,-1
"{'cat': 'RB', 'resp': 'button'}",53,231,Left,33.8529956946492,81.02438030280575,1.69264978473246,1.2727279896048003,Left,Correct,0.0,0.0,-45,45,746,-1,-1
"{'cat': 'RB', 'resp': 'button'}",53,232,Right,59.92712851165781,41.866272759405426,2.9963564255828907,0.6576338746706728,Right,Correct,0.0,0.0,-45,45,620,-1,-1
"{'cat': 'RB', 'resp': 'button'}",53,233,Right,68.70230000246384,62.785419361811606,3.4351150001231923,0.9862310610981085,Right,Correct,0.0,0.0,-45,45,534,-1,-1
"{'cat': 'RB', 'resp': 'button'}",53,234,Left,40.98488825899332,74.81810635695044,2.0492444129496663,1.1752400664324765,Left,Correct,0.0,0.0,-45,45,620,-1,-1
"{'cat': 'RB', 'resp': 'button'}",53,235,Left,32.83520666263517,26.617216609005922,1.6417603331317587,0.4181022607893061,Left,Correct,0.0,0.0,-45,45,351,-1,-1
"{'cat': 'RB', 'resp': 'button'}",53,236,Left,32.43357749359289,47.44835975174187,1.6216788746796447,0.7453170921047894,Left,Correct,0.0,0.0,-45,45,623,-1,-1
"{'cat': 'RB', 'resp': 'button'}",53,237,Right,64.84406898099427,76.09415234060191,3.2422034490497134,1.1952841498718876,Right,Correct,0.0,0.0,-45,45,598,-1,-1
"{'cat': 'RB', 'resp': 'button'}",53,238,Right,64.24428601518002,23.700622894060828,3.212214300759001,0.37228851384741785,Right,Correct,0.0,0.0,-45,45,581,-1,-1
"{'cat': 'RB', 'resp': 'button'}",53,239,Left,44.07276452537097,50.93916218624136,2.2036382262685486,0.8001504885215744,Left,Correct,0.0,0.0,-45,45,597,-1,-1
"{'cat': 'RB', 'resp': 'button'}",53,240,Left,42.53617496088732,46.13795628607327,2.126808748044366,0.7247333225998741,Left,Correct,0.0,0.0,-45,45,561,-1,-1
"{'cat': 'RB', 'resp': 'button'}",53,241,Left,47.42868480905505,72.6644600939131,2.3714342404527526,1.1414106700405304,Left,Correct,0.0,0.0,-45,45,1085,-1,-1
"{'cat': 'RB', 'resp': 'button'}",53,242,Right,65.94379216869321,78.47548752009855,3.2971896084346604,1.2326900754000956,Right,Correct,0.0,0.0,-45,45,606,-1,-1
"{'cat': 'RB', 'resp': 'button'}",53,243,Left,36.294120886241664,47.08605693614557,1.8147060443120833,0.7396260527855282,Left,Correct,0.0,0.0,-45,45,522,-1,-1
"{'cat': 'RB', 'resp': 'button'}",53,244,Right,59.25867126295268,89.19100672565466,2.962933563147634,1.4010090574779726,Right,Correct,0.0,0.0,-45,45,2457,-1,-1
"{'cat': 'RB', 'resp': 'button'}",53,245,Right,55.522792046590524,59.603921953042956,2.7761396023295264,0.9362562166640958,Right,Correct,0.0,0.0,-45,45,486,-1,-1
"{'cat': 'RB', 'resp': 'button'}",53,246,Right,52.12799529171994,64.10706826227916,2.606399764585997,1.0069914734797778,Right,Correct,0.0,0.0,-45,45,827,-1,-1
"{'cat': 'RB', 'resp': 'button'}",53,247,Left,44.012007407035654,84.85634163819716,2.2006003703517827,1.3329202975053296,Left,Correct,0.0,0.0,-45,45,818,-1,-1
"{'cat': 'RB', 'resp': 'button'}",53,248,Right,66.37240907682222,22.825886891321304,3.3186204538411115,0.35854819284723277,Right,Correct,0.0,0.0,-45,45,596,-1,-1
"{'cat': 'RB', 'resp': 'button'}",53,249,Left,36.307988527513274,15.86329602145286,1.8153994263756636,0.24918007121358252,Left,Correct,0.0,0.0,-45,45,582,-1,-1
"{'cat': 'RB', 'resp': 'button'}",53,250,Right,60.68911860518929,16.064163021350907,3.0344559302594645,0.2523352826697241,Right,Correct,0.0,0.0,-45,45,688,-1,-1
"{'cat': 'RB', 'resp': 'button'}",53,251,Right,54.279692318474495,19.729728203071307,2.713984615923725,0.30991384590046084,Right,Correct,0.0,0.0,-45,45,575,-1,-1
"{'cat': 'RB', 'resp': 'button'}",53,252,Left,47.00018869377105,27.43491823902635,2.3500094346885527,0.430946687957809,Left,Correct,0.0,0.0,-45,45,1086,-1,-1
"{'cat': 'RB', 'resp': 'button'}",53,253,Left,44.264458574510286,53.36013308112288,2.2132229287255143,0.8381790104111467,Left,Correct,0.0,0.0,-45,45,601,-1,-1
"{'cat': 'RB', 'resp': 'button'}",53,254,Right,52.145145295873775,51.284427350087064,2.6072572647936885,0.8055739010329649,Left,Incorrect,0.0,0.0,-45,45,827,-1,-1
"{'cat': 'RB', 'resp': 'button'}",53,255,Left,41.65425127443338,57.56667505858229,2.082712563721669,0.9042552172781645,Left,Correct,0.0,0.0,-45,45,684,-1,-1
"{'cat': 'RB', 'resp': 'button'}",53,256,Right,58.44549461635854,51.96871522565645,2.922274730817927,0.8163226698471118,Right,Correct,0.0,0.0,-45,45,701,-1,-1
"{'cat': 'RB', 'resp': 'button'}",53,257,Right,55.30221316119642,61.05595950643136,2.765110658059821,0.959064769216403,Right,Correct,0.0,0.0,-45,45,454,-1,-1
"{'cat': 'RB', 'resp': 'button'}",53,258,Right,60.29960587091618,74.94659839975336,3.0149802935458094,1.1772584147210483,Right,Correct,0.0,0.0,-45,45,503,-1,-1
"{'cat': 'RB', 'resp': 'button'}",53,259,Right,54.51305577466749,34.173033275325224,2.7256527887333744,0.5367887514432064,Right,Correct,0.0,0.0,-45,45,617,-1,-1
"{'cat': 'RB', 'resp': 'button'}",53,260,Right,62.70296801356646,60.273167565901474,3.1351484006783235,0.9467687021681133,Right,Correct,0.0,0.0,-45,45,596,-1,-1
"{'cat': 'RB', 'resp': 'button'}",53,261,Right,52.5688554865707,68.85428824104766,2.628442774328535,1.081560630531147,Right,Correct,0.0,0.0,-45,45,1273,-1,-1
"{'cat': 'RB', 'resp': 'button'}",53,262,Left,37.245594572056156,83.28746340611366,1.8622797286028077,1.308276415863877,Left,Correct,0.0,0.0,-45,45,598,-1,-1
"{'cat': 'RB', 'resp': 'button'}",53,263,Left,31.24155625277877,56.719415977841884,1.5620778126389385,0.890946502759458,Left,Correct,0.0,0.0,-45,45,653,-1,-1
"{'cat': 'RB', 'resp': 'button'}",53,264,Right,53.10172108129874,25.51509088309556,2.655086054064937,0.40079011037004464,Right,Correct,0.0,0.0,-45,45,1417,-1,-1
"{'cat': 'RB', 'resp': 'button'}",53,265,Right,52.22243254101687,59.348051593345126,2.6111216270508435,0.9322370144526053,Right,Correct,0.0,0.0,-45,45,778,-1,-1
"{'cat': 'RB', 'resp': 'button'}",53,266,Right,54.03906038702593,68.9560821656759,2.701953019351296,1.0831596057601076,Right,Correct,0.0,0.0,-45,45,683,-1,-1
"{'cat': 'RB', 'resp': 'button'}",53,267,Right,67.10057586369369,33.62034397220718,3.3550287931846845,0.5281071281712397,Right,Correct,0.0,0.0,-45,45,544,-1,-1
"{'cat': 'RB', 'resp': 'button'}",53,268,Right,53.22940204178268,47.477946001683755,2.661470102089134,0.7457818318321129,Left,Incorrect,0.0,0.0,-45,45,1040,-1,-1
"{'cat': 'RB', 'resp': 'button'}",53,269,Right,57.38085721796933,62.499365160892324,2.8690428608984666,0.9817377322174259,Right,Correct,0.0,0.0,-45,45,3366,-1,-1
"{'cat': 'RB', 'resp': 'button'}",53,270,Left,36.54973276009034,32.07276072489376,1.8274866380045172,0.5037977473683474,Left,Correct,0.0,0.0,-45,45,709,-1,-1
"{'cat': 'RB', 'resp': 'button'}",53,271,Left,40.53310666473826,31.21237798115323,2.026655333236913,0.4902828868332941,Left,Correct,0.0,0.0,-45,45,772,-1,-1
"{'cat': 'RB', 'resp': 'button'}",53,272,Left,44.62744340370282,48.3630008775207,2.231372170185141,0.7596842413118787,Left,Correct,0.0,0.0,-45,45,752,-1,-1
"{'cat': 'RB', 'resp': 'button'}",53,273,Right,67.8184626976404,73.33830596929397,3.3909231348820197,1.151995416299272,Right,Correct,0.0,0.0,-45,45,524,-1,-1
"{'cat': 'RB', 'resp': 'button'}",53,274,Left,41.418596958008536,23.708755873981605,2.070929847900427,0.3724162663972723,Left,Correct,0.0,0.0,-45,45,604,-1,-1
"{'cat': 'RB', 'resp': 'button'}",53,275,Left,42.30935119802313,11.371934030567907,2.1154675599011568,0.1786299220376995,Left,Correct,0.0,0.0,-45,45,916,-1,-1
"{'cat': 'RB', 'resp': 'button'}",53,276,Left,31.50159487871086,34.60526804467156,1.5750797439355433,0.543578279323229,Left,Correct,0.0,0.0,-45,45,1075,-1,-1
"{'cat': 'RB', 'resp': 'button'}",53,277,Right,63.16616435430357,23.483541172053798,3.1583082177151782,0.36887860213198825,Right,Correct,0.0,0.0,-45,45,631,-1,-1
"{'cat': 'RB', 'resp': 'button'}",53,278,Right,58.62573319652386,27.756053197776144,2.931286659826193,0.4359910640939051,Left,Incorrect,0.0,0.0,-45,45,900,-1,-1
"{'cat': 'RB', 'resp': 'button'}",53,279,Left,41.57821708771603,82.03464136227868,2.0789108543858017,1.2885971332180404,Left,Correct,0.0,0.0,-45,45,501,-1,-1
"{'cat': 'RB', 'resp': 'button'}",53,280,Left,40.34210994428142,27.36388581328941,2.0171054972140707,0.42983091322349987,Left,Correct,0.0,0.0,-45,45,506,-1,-1
"{'cat': 'RB', 'resp': 'button'}",53,281,Right,64.2834797904924,43.475763968026186,3.2141739895246193,0.6829157034557743,Right,Correct,0.0,0.0,-45,45,464,-1,-1
"{'cat': 'RB', 'resp': 'button'}",53,282,Right,67.0260296780774,51.12697323909378,3.35130148390387,0.8031006176410949,Right,Correct,0.0,0.0,-45,45,984,-1,-1
"{'cat': 'RB', 'resp': 'button'}",53,283,Right,53.81052782017345,79.46332027061796,2.6905263910086723,1.2482069159601312,Left,Incorrect,0.0,0.0,-45,45,847,-1,-1
"{'cat': 'RB', 'resp': 'button'}",53,284,Left,32.93613771222258,26.506002294053832,1.646806885611129,0.4163553104151687,Left,Correct,0.0,0.0,-45,45,650,-1,-1
"{'cat': 'RB', 'resp': 'button'}",53,285,Left,46.100473281393576,52.626811524607035,2.305023664069679,0.8266600223378004,Left,Correct,0.0,0.0,-45,45,553,-1,-1
"{'cat': 'RB', 'resp': 'button'}",53,286,Left,48.19085917273865,33.7425247479262,2.409542958636932,0.5300263393082836,Left,Correct,0.0,0.0,-45,45,1577,-1,-1
"{'cat': 'RB', 'resp': 'button'}",53,287,Right,63.98323768001889,81.56544801511217,3.199161884000944,1.2812270613551828,Right,Correct,0.0,0.0,-45,45,1144,-1,-1
"{'cat': 'RB', 'resp': 'button'}",53,288,Right,55.368118391278294,48.79079969402321,2.7684059195639144,0.7664040894075722,Right,Correct,0.0,0.0,-45,45,1688,-1,-1
"{'cat': 'RB', 'resp': 'button'}",53,289,Left,39.17146161096441,25.353361031294984,1.9585730805482202,0.3982496637986303,Left,Correct,0.0,0.0,-45,45,492,-1,-1
"{'cat': 'RB', 'resp': 'button'}",53,290,Left,42.85204957506515,70.99519488110927,2.1426024787532576,1.115189913393343,Left,Correct,0.0,0.0,-45,45,764,-1,-1
"{'cat': 'RB', 'resp': 'button'}",53,291,Left,47.76216278337597,51.30322513314811,2.3881081391687986,0.8058691759188068,Right,Incorrect,0.0,0.0,-45,45,1262,-1,-1
"{'cat': 'RB', 'resp': 'button'}",53,292,Right,54.29757029103253,22.482896593138,2.7148785145516263,0.3531605138421066,Right,Correct,0.0,0.0,-45,45,630,-1,-1
"{'cat': 'RB', 'resp': 'button'}",53,293,Left,42.22579674000417,34.51920430057162,2.1112898370002084,0.542226393192205,Left,Correct,0.0,0.0,-45,45,626,-1,-1
"{'cat': 'RB', 'resp': 'button'}",53,294,Right,58.2795630113346,35.458972982090884,2.9139781505667304,0.5569882451218784,Right,Correct,0.0,0.0,-45,45,679,-1,-1
"{'cat': 'RB', 'resp': 'button'}",53,295,Left,38.40860500090769,78.9757973408442,1.9204302500453847,1.2405489236869622,Left,Correct,0.0,0.0,-45,45,649,-1,-1
"{'cat': 'RB', 'resp': 'button'}",53,296,Left,36.7983218092154,53.15635767993696,1.83991609046077,0.8349781138944067,Left,Correct,0.0,0.0,-45,45,733,-1,-1
"{'cat': 'RB', 'resp': 'button'}",53,297,Left,47.4862657929732,39.41607877020995,2.37431328964866,0.619146317489041,Left,Correct,0.0,0.0,-45,45,793,-1,-1
"{'cat': 'RB', 'resp': 'button'}",53,298,Right,60.60065499126695,89.03313160902849,3.0300327495633472,1.3985291609450856,Right,Correct,0.0,0.0,-45,45,614,-1,-1
"{'cat': 'RB', 'resp': 'button'}",53,299,Right,63.2088043845417,76.22023377440877,3.1604402192270853,1.197264632402896,Right,Correct,0.0,0.0,-45,45,1573,-1,-1
"{'cat': 'RB', 'resp': 'button'}",53,300,Left,41.31603467654073,87.23561301352206,2.0658017338270365,1.3702938048734152,Left,Correct,0.0,0.0,-45,45,475,-1,-1
"{'cat': 'RB', 'resp': 'button'}",53,301,Right,59.747885986768345,25.334305099145862,2.9873942993384173,0.39795033391639534,Right,Correct,0.0,0.0,-45,45,628,-1,-1
"{'cat': 'RB', 'resp': 'button'}",53,302,Right,58.29585428368641,82.72576337582993,2.914792714184321,1.2994532524205744,Right,Correct,0.0,0.0,-45,45,900,-1,-1
"{'cat': 'RB', 'resp': 'button'}",53,303,Right,60.3378134026214,20.41324959396442,3.01689067013107,0.3206505748014672,Right,Correct,0.0,0.0,-45,45,638,-1,-1
"{'cat': 'RB', 'resp': 'button'}",53,304,Left,35.74942634182011,43.63069600236045,1.7874713170910055,0.6853493701601258,Left,Correct,0.0,0.0,-45,45,626,-1,-1
"{'cat': 'RB', 'resp': 'button'}",53,305,Right,63.02274988197681,44.853029877126005,3.15113749409884,0.7045497457661127,Right,Correct,0.0,0.0,-45,45,523,-1,-1
"{'cat': 'RB', 'resp': 'button'}",53,306,Right,58.77698853781792,57.73471650069618,2.938849426890896,0.9068948060783827,Right,Correct,0.0,0.0,-45,45,514,-1,-1
"{'cat': 'RB', 'resp': 'button'}",53,307,Right,65.45150147284406,83.66337449846671,3.272575073642203,1.3141812134945734,Right,Correct,0.0,0.0,-45,45,461,-1,-1
"{'cat': 'RB', 'resp': 'button'}",53,308,Right,62.891607417467014,44.48456098851447,3.1445803708733506,0.6987618499984208,Right,Correct,0.0,0.0,-45,45,545,-1,-1
"{'cat': 'RB', 'resp': 'button'}",53,309,Right,55.66693687470286,45.765894586452504,2.7833468437351434,0.7188889910888204,Right,Correct,0.0,0.0,-45,45,500,-1,-1
"{'cat': 'RB', 'resp': 'button'}",53,310,Right,59.26612730352317,82.37972193704185,2.9633063651761584,1.294017646210903,Right,Correct,0.0,0.0,-45,45,604,-1,-1
"{'cat': 'RB', 'resp': 'button'}",53,311,Left,32.34965662843841,37.273826735161144,1.6174828314219207,0.5854959012118053,Left,Correct,0.0,0.0,-45,45,513,-1,-1
"{'cat': 'RB', 'resp': 'button'}",53,312,Right,59.74407575704013,46.106499039960596,2.9872037878520064,0.7242391933334253,Right,Correct,0.0,0.0,-45,45,535,-1,-1
"{'cat': 'RB', 'resp': 'button'}",53,313,Left,48.96229348538196,52.7070334128964,2.4481146742690982,0.8279201448123354,Left,Correct,0.0,0.0,-45,45,2566,-1,-1
"{'cat': 'RB', 'resp': 'button'}",53,314,Left,38.93764958300509,9.05805054536443,1.9468824791502544,0.14228352524580956,Left,Correct,0.0,0.0,-45,45,654,-1,-1
"{'cat': 'RB', 'resp': 'button'}",53,315,Left,35.29051188888127,75.62679702241577,1.7645255944440634,1.187942949700739,Left,Correct,0.0,0.0,-45,45,565,-1,-1
"{'cat': 'RB', 'resp': 'button'}",53,316,Right,63.025049871939906,68.91822067230352,3.151252493596995,1.0825648788129447,Right,Correct,0.0,0.0,-45,45,560,-1,-1
"{'cat': 'RB', 'resp': 'button'}",53,317,Right,55.59696536707272,47.17074323584272,2.779848268353636,0.7409563020704695,Right,Correct,0.0,0.0,-45,45,476,-1,-1
"{'cat': 'RB', 'resp': 'button'}",53,318,Right,61.82816463874367,10.244575439683821,3.0914082319371836,0.1609214147022856,Right,Correct,0.0,0.0,-45,45,526,-1,-1
"{'cat': 'RB', 'resp': 'button'}",53,319,Left,41.001625500799804,15.864467284738915,2.0500812750399904,0.2491984693742569,Left,Correct,0.0,0.0,-45,45,621,-1,-1
"{'cat': 'RB', 'resp': 'button'}",53,320,Right,63.60457398108859,56.188192573146246,3.18022869905443,0.882602065031424,Right,Correct,0.0,0.0,-45,45,602,-1,-1
"{'cat': 'RB', 'resp': 'button'}",53,321,Left,39.186879732182554,70.46200451688416,1.9593439866091276,1.1068145787372705,Left,Correct,0.0,0.0,-45,45,633,-1,-1
"{'cat': 'RB', 'resp': 'button'}",53,322,Left,43.17910043852202,43.98403045183363,2.158955021926101,0.6908995347137514,Left,Correct,0.0,0.0,-45,45,688,-1,-1
"{'cat': 'RB', 'resp': 'button'}",53,323,Right,54.58945791723979,30.366377007680025,2.72947289586199,0.47699393461732786,Right,Correct,0.0,0.0,-45,45,1400,-1,-1
"{'cat': 'RB', 'resp': 'button'}",53,324,Left,45.69886386599363,60.73798899273221,2.2849431932996818,0.9540701000669262,Left,Correct,0.0,0.0,-45,45,709,-1,-1
"{'cat': 'RB', 'resp': 'button'}",53,325,Right,62.97484844289774,42.294796475972475,3.1487424221448865,0.664365109469953,Right,Correct,0.0,0.0,-45,45,665,-1,-1
"{'cat': 'RB', 'resp': 'button'}",53,326,Left,39.171943070524684,77.75321000925341,1.9585971535262343,1.2213445667904743,Left,Correct,0.0,0.0,-45,45,546,-1,-1
"{'cat': 'RB', 'resp': 'button'}",53,327,Left,42.258580323775455,49.467510823547194,2.112929016188773,0.7770338429731474,Left,Correct,0.0,0.0,-45,45,509,-1,-1
"{'cat': 'RB', 'resp': 'button'}",53,328,Left,44.61332792943457,19.760774162907595,2.2306663964717286,0.31040151469718746,Left,Correct,0.0,0.0,-45,45,1504,-1,-1
"{'cat': 'RB', 'resp': 'button'}",53,329,Right,61.13883165020779,36.18231825128768,3.05694158251039,0.5683505260404663,Right,Correct,0.0,0.0,-45,45,473,-1,-1
"{'cat': 'RB', 'resp': 'button'}",53,330,Right,64.50705529886977,70.27547511186994,3.2253527649434885,1.1038845816949148,Right,Correct,0.0,0.0,-45,45,530,-1,-1
"{'cat': 'RB', 'resp': 'button'}",53,331,Right,54.164037686244654,56.53883465941618,2.708201884312233,0.8881099380427492,Right,Correct,0.0,0.0,-45,45,471,-1,-1
"{'cat': 'RB', 'resp': 'button'}",53,332,Left,32.590882359510154,37.50281873928709,1.6295441179755077,0.5890928992012698,Left,Correct,0.0,0.0,-45,45,498,-1,-1
"{'cat': 'RB', 'resp': 'button'}",53,333,Right,59.79729035567964,58.078994571656416,2.9898645177839818,0.9123027133709862,Right,Correct,0.0,0.0,-45,45,548,-1,-1
"{'cat': 'RB', 'resp': 'button'}",53,334,Left,44.201328624306136,66.39457521868042,2.210066431215307,1.0429235487261068,Left,Correct,0.0,0.0,-45,45,550,-1,-1
"{'cat': 'RB', 'resp': 'button'}",53,335,Right,62.099553962991685,31.666513362556383,3.1049776981495842,0.4974164287230507,Right,Correct,0.0,0.0,-45,45,535,-1,-1
"{'cat': 'RB', 'resp': 'button'}",53,336,Left,43.45522875934642,63.14850951574398,2.172761437967321,0.9919344678990322,Left,Correct,0.0,0.0,-45,45,564,-1,-1
"{'cat': 'RB', 'resp': 'button'}",53,337,Left,38.98266773147953,88.49844331900583,1.9491333865739764,1.390130296925607,Left,Correct,0.0,0.0,-45,45,1131,-1,-1
"{'cat': 'RB', 'resp': 'button'}",53,338,Left,43.07852562265112,47.410875911859385,2.153926281132556,0.7447282973247735,Left,Correct,0.0,0.0,-45,45,622,-1,-1
"{'cat': 'RB', 'resp': 'button'}",53,339,Left,40.03859955771972,81.09078391381716,2.001929977885986,1.2737710550874268,Left,Correct,0.0,0.0,-45,45,650,-1,-1
"{'cat': 'RB', 'resp': 'button'}",53,340,Left,34.34938712369182,22.39571327442303,1.717469356184591,0.351791041474154,Left,Correct,0.0,0.0,-45,45,635,-1,-1
"{'cat': 'RB', 'resp': 'button'}",53,341,Right,52.76092039497628,32.51922421624645,2.638046019748814,0.5108107794909957,Right,Correct,0.0,0.0,-45,45,544,-1,-1
"{'cat': 'RB', 'resp': 'button'}",53,342,Left,42.666409420503584,59.17787200724274,2.133320471025179,0.9295638397651542,Left,Correct,0.0,0.0,-45,45,493,-1,-1
"{'cat': 'RB', 'resp': 'button'}",53,343,Right,54.93339547744279,50.209701829268845,2.7466697738721395,0.7886921520288249,Right,Correct,0.0,0.0,-45,45,666,-1,-1
"{'cat': 'RB', 'resp': 'button'}",53,344,Left,40.712357816613086,35.88242731720728,2.0356178908306544,0.5636398502635404,Left,Correct,0.0,0.0,-45,45,613,-1,-1
"{'cat': 'RB', 'resp': 'button'}",53,345,Right,65.30969766612513,79.26547608123406,3.265484883306257,1.2450991867005117,Right,Correct,0.0,0.0,-45,45,542,-1,-1
"{'cat': 'RB', 'resp': 'button'}",53,346,Right,57.208900948780574,82.33176607598384,2.8604450474390286,1.293264357306921,Right,Correct,0.0,0.0,-45,45,1169,-1,-1
"{'cat': 'RB', 'resp': 'button'}",53,347,Left,44.271177627407276,80.69792476700962,2.2135588813703637,1.2676000380398962,Left,Correct,0.0,0.0,-45,45,639,-1,-1
"{'cat': 'RB', 'resp': 'button'}",53,348,Left,44.67691709173624,52.2363724364201,2.233845854586812,0.8205270194821888,Left,Correct,0.0,0.0,-45,45,770,-1,-1
"{'cat': 'RB', 'resp': 'button'}",53,349,Right,53.570544449146425,32.438421951987905,2.6785272224573213,0.5095415404920555,Right,Correct,0.0,0.0,-45,45,1667,-1,-1
"{'cat': 'RB', 'resp': 'button'}",53,350,Left,39.32586716042105,52.11163951248188,1.9662933580210522,0.8185677192946632,Left,Correct,0.0,0.0,-45,45,617,-1,-1
"{'cat': 'RB', 'resp': 'button'}",53,351,Left,31.91080309224005,63.09241588716907,1.5955401546120027,0.9910533512418114,Left,Correct,0.0,0.0,-45,45,595,-1,-1
"{'cat': 'RB', 'resp': 'button'}",53,352,Right,56.44490464039481,84.54368207613993,2.822245232019741,1.3280090525891615,Right,Correct,0.0,0.0,-45,45,549,-1,-1
"{'cat': 'RB', 'resp': 'button'}",53,353,Left,35.43434581197837,17.28522275053829,1.7717172905989185,0.2715156440437712,Left,Correct,0.0,0.0,-45,45,610,-1,-1
"{'cat': 'RB', 'resp': 'button'}",53,354,Right,60.611186573771775,71.26065131873526,3.0305593286885886,1.1193596933648124,Right,Correct,0.0,0.0,-45,45,616,-1,-1
"{'cat': 'RB', 'resp': 'button'}",53,355,Right,65.54845984216648,16.638655390085717,3.277422992108324,0.26135938769552747,Right,Correct,0.0,0.0,-45,45,686,-1,-1
"{'cat': 'RB', 'resp': 'button'}",53,356,Left,45.86526748229844,23.291371914391803,2.293263374114922,0.3658600144914046,Left,Correct,0.0,0.0,-45,45,526,-1,-1
"{'cat': 'RB', 'resp': 'button'}",53,357,Left,42.6314899632215,62.31564844868796,2.1315744981610747,0.9788519168504114,Left,Correct,0.0,0.0,-45,45,3109,-1,-1
"{'cat': 'RB', 'resp': 'button'}",53,358,Left,31.07949097299033,40.36578033218691,1.5539745486495167,0.6340641947400888,Left,Correct,0.0,0.0,-45,45,537,-1,-1
"{'cat': 'RB', 'resp': 'button'}",53,359,Left,37.330264661760026,27.29372855521582,1.8665132330880012,0.4287288855906999,Left,Correct,0.0,0.0,-45,45,1631,-1,-1
"{'cat': 'RB', 'resp': 'button'}",53,360,Right,67.45102179044814,44.34390641412088,3.372551089522407,0.6965524531103774,Right,Correct,0.0,0.0,-45,45,560,-1,-1
"{'cat': 'RB', 'resp': 'button'}",53,361,Right,60.709849301968084,11.829803146018484,3.0354924650984043,0.1858221132847255,Right,Correct,0.0,0.0,-45,45,483,-1,-1
"{'cat': 'RB', 'resp': 'button'}",53,362,Right,54.49173723291002,82.74407743209827,2.724586861645501,1.2997409289437247,Right,Correct,0.0,0.0,-45,45,1317,-1,-1
"{'cat': 'RB', 'resp': 'button'}",53,363,Left,38.59528359019034,10.940918855478905,1.929764179509517,0.17185955149947288,Left,Correct,0.0,0.0,-45,45,537,-1,-1
"{'cat': 'RB', 'resp': 'button'}",53,364,Left,42.145897664534616,36.6169417754092,2.107294883226731,0.5751775763927538,Left,Correct,0.0,0.0,-45,45,1239,-1,-1
"{'cat': 'RB', 'resp': 'button'}",53,365,Right,60.868579275543304,25.80793256596542,3.043428963777165,0.4053900567678887,Right,Correct,0.0,0.0,-45,45,806,-1,-1
"{'cat': 'RB', 'resp': 'button'}",53,366,Right,54.911813694977674,68.87351553893704,2.745590684748884,1.0818626522201353,Right,Correct,0.0,0.0,-45,45,728,-1,-1
"{'cat': 'RB', 'resp': 'button'}",53,367,Right,56.81735782287155,32.967115717244425,2.840867891143578,0.5178462427366984,Right,Correct,0.0,0.0,-45,45,593,-1,-1
"{'cat': 'RB', 'resp': 'button'}",53,368,Right,60.327895089537286,38.570752396699696,3.0163947544768646,0.6058679618645133,Right,Correct,0.0,0.0,-45,45,529,-1,-1
"{'cat': 'RB', 'resp': 'button'}",53,369,Left,31.151539200047367,56.41068875543022,1.5575769600023681,0.8860970268899997,Left,Correct,0.0,0.0,-45,45,468,-1,-1
"{'cat': 'RB', 'resp': 'button'}",53,370,Left,40.71168323526201,37.123129928712075,2.0355841617631003,0.5831287613115061,Left,Correct,0.0,0.0,-45,45,1511,-1,-1
"{'cat': 'RB', 'resp': 'button'}",53,371,Right,53.27256397195734,40.89359905786907,2.6636281985978667,0.6423551518952397,Right,Correct,0.0,0.0,-45,45,1111,-1,-1
"{'cat': 'RB', 'resp': 'button'}",53,372,Right,58.3234282992594,45.90521236091753,2.91617141496297,0.7210773895726894,Right,Correct,0.0,0.0,-45,45,795,-1,-1
"{'cat': 'RB', 'resp': 'button'}",53,373,Right,61.58953526864136,45.95381613728069,3.079476763432068,0.7218408559064855,Right,Correct,0.0,0.0,-45,45,956,-1,-1
"{'cat': 'RB', 'resp': 'button'}",53,374,Right,67.06519661879173,55.82931372492806,3.3532598309395865,0.876964809265969,Right,Correct,0.0,0.0,-45,45,546,-1,-1
"{'cat': 'RB', 'resp': 'button'}",53,375,Right,54.11967678752675,43.58923420259917,2.7059838393763376,0.6846980897324526,Right,Correct,0.0,0.0,-45,45,483,-1,-1
"{'cat': 'RB', 'resp': 'button'}",53,376,Right,57.97787715264228,56.23893153115185,2.898893857632114,0.88339907072003,Right,Correct,0.0,0.0,-45,45,470,-1,-1
"{'cat': 'RB', 'resp': 'button'}",53,377,Right,65.51483693693196,19.65423480401007,3.2757418468465977,0.3087279983610343,Right,Correct,0.0,0.0,-45,45,643,-1,-1
"{'cat': 'RB', 'resp': 'button'}",53,378,Right,54.58907041617276,77.21731912097479,2.7294535208086383,1.2129268124017654,Right,Correct,0.0,0.0,-45,45,460,-1,-1
"{'cat': 'RB', 'resp': 'button'}",53,379,Right,66.17036309838436,65.12776199263918,3.308518154919218,1.023024493104099,Right,Correct,0.0,0.0,-45,45,577,-1,-1
"{'cat': 'RB', 'resp': 'button'}",53,380,Left,32.267448090225315,61.682452212800655,1.6133724045112658,0.9689056936356901,Left,Correct,0.0,0.0,-45,45,550,-1,-1
"{'cat': 'RB', 'resp': 'button'}",53,381,Right,62.24518398809667,23.218977596885953,3.1122591994048334,0.36472284721121445,Right,Correct,0.0,0.0,-45,45,553,-1,-1
"{'cat': 'RB', 'resp': 'button'}",53,382,Left,38.214075910242315,77.30819889062846,1.9107037955121158,1.214354348485285,Left,Correct,0.0,0.0,-45,45,685,-1,-1
"{'cat': 'RB', 'resp': 'button'}",53,383,Right,65.77102788475214,49.6217740661853,3.288551394237607,0.7794570043221012,Right,Correct,0.0,0.0,-45,45,541,-1,-1
"{'cat': 'RB', 'resp': 'button'}",53,384,Left,34.13900288536735,31.774337698927262,1.7069501442683674,0.49911012943815547,Left,Correct,0.0,0.0,-45,45,3461,-1,-1
"{'cat': 'RB', 'resp': 'button'}",53,385,Left,42.83302701206697,28.075940987740317,2.1416513506033485,0.4410158497485277,Left,Correct,0.0,0.0,-45,45,725,-1,-1
"{'cat': 'RB', 'resp': 'button'}",53,386,Right,51.99648908967335,34.64286303685989,2.599824454483667,0.5441688200795822,Right,Correct,0.0,0.0,-45,45,758,-1,-1
"{'cat': 'RB', 'resp': 'button'}",53,387,Left,37.159685775826055,32.080281939774224,1.857984288791303,0.5039158903354201,Left,Correct,0.0,0.0,-45,45,1027,-1,-1
"{'cat': 'RB', 'resp': 'button'}",53,388,Right,64.67638490550425,51.194306040460845,3.2338192452752126,0.8041582788116968,Right,Correct,0.0,0.0,-45,45,603,-1,-1
"{'cat': 'RB', 'resp': 'button'}",53,389,Right,61.35674878379692,68.89363539867203,3.0678374391898457,1.0821786942378089,Right,Correct,0.0,0.0,-45,45,575,-1,-1
"{'cat': 'RB', 'resp': 'button'}",53,390,Left,39.21130589545244,13.840067451883243,1.960565294772622,0.21739927116011803,Left,Correct,0.0,0.0,-45,45,568,-1,-1
"{'cat': 'RB', 'resp': 'button'}",53,391,Left,40.67605061336631,32.05687058757328,2.033802530668315,0.5035481456749946,Left,Correct,0.0,0.0,-45,45,763,-1,-1
"{'cat': 'RB', 'resp': 'button'}",53,392,Right,63.344535604653366,46.71139332065227,3.1672267802326686,0.7337408504755226,Right,Correct,0.0,0.0,-45,45,600,-1,-1
"{'cat': 'RB', 'resp': 'button'}",53,393,Left,40.56356677776608,47.490274012375934,2.028178338888304,0.7459754797712325,Left,Correct,0.0,0.0,-45,45,685,-1,-1
"{'cat': 'RB', 'resp': 'button'}",53,394,Left,48.126733464921884,44.18405600632506,2.406336673246094,0.6940415287763539,Left,Correct,0.0,0.0,-45,45,689,-1,-1
"{'cat': 'RB', 'resp': 'button'}",53,395,Left,40.28234911807646,87.56500677787926,2.0141174559038233,1.3754679100246296,Left,Correct,0.0,0.0,-45,45,1150,-1,-1
"{'cat': 'RB', 'resp': 'button'}",53,396,Left,44.16391951191696,48.81100939993693,2.208195975595848,0.7667215427257209,Left,Correct,0.0,0.0,-45,45,865,-1,-1
"{'cat': 'RB', 'resp': 'button'}",53,397,Left,33.081309875913185,26.137294272106626,1.6540654937956591,0.4105636583498238,Left,Correct,0.0,0.0,-45,45,747,-1,-1
"{'cat': 'RB', 'resp': 'button'}",53,398,Left,39.54506909927867,35.530784212493096,1.9772534549639333,0.5581162532912626,Left,Correct,0.0,0.0,-45,45,497,-1,-1
"{'cat': 'RB', 'resp': 'button'}",53,399,Right,62.30522685056402,10.483878531889161,3.115261342528201,0.16468037888455364,Right,Correct,0.0,0.0,-45,45,431,-1,-1
