condition,subject,trial,cat,x,y,xt,yt,resp,fb,rotation,su,target_angle_left,target_angle_right,rt,mt,ep
"{'cat': 'RB', 'resp': 'reach'}",70,0,Left,39.00651256079474,15.145559014239765,1.950325628039737,0.23790588466823157,Right,Incorrect,0.0,0.0,-45,45,2012,1576,-0.76
"{'cat': 'RB', 'resp': 'reach'}",70,1,Left,32.70823227563548,73.05496102445703,1.635411613781774,1.1475446443136144,Right,Incorrect,0.0,0.0,-45,45,2009,1965,-0.74
"{'cat': 'RB', 'resp': 'reach'}",70,2,Left,42.52076265834288,22.009291934468564,2.126038132917144,0.34572114926019765,Left,Correct,0.0,0.0,-45,45,2009,1220,-2.51
"{'cat': 'RB', 'resp': 'reach'}",70,3,Right,55.09444228556936,85.16347225365013,2.7547221142784677,1.3377446939313271,Left,Incorrect,0.0,0.0,-45,45,2002,970,-2.53
"{'cat': 'RB', 'resp': 'reach'}",70,4,Left,41.81333464876024,39.24142081330458,2.090666732438012,0.6164027967175163,Left,Correct,0.0,0.0,-45,45,2005,1191,-2.39
"{'cat': 'RB', 'resp': 'reach'}",70,5,Right,59.8914771261393,18.719051578650046,2.994573856306965,0.294038174608277,Right,Correct,0.0,0.0,-45,45,2002,803,-0.77
"{'cat': 'RB', 'resp': 'reach'}",70,6,Right,60.559256371359496,87.56114234965085,3.027962818567975,1.3754072077279662,Right,Correct,0.0,0.0,-45,45,2007,708,-0.74
"{'cat': 'RB', 'resp': 'reach'}",70,7,Left,38.96243742929032,48.42485117823719,1.948121871464516,0.7606557835636449,Left,Correct,0.0,0.0,-45,45,2006,973,-2.47
"{'cat': 'RB', 'resp': 'reach'}",70,8,Right,52.532996715642824,30.46872716569554,2.626649835782141,0.4786016471399043,Left,Incorrect,0.0,0.0,-45,45,2005,636,-2.32
"{'cat': 'RB', 'resp': 'reach'}",70,9,Right,57.46184772113579,10.665891487848064,2.8730923860567894,0.16753943171104696,Right,Correct,0.0,0.0,-45,45,2006,681,-0.6
"{'cat': 'RB', 'resp': 'reach'}",70,10,Left,44.385639901978095,67.6226463913294,2.2192819950989047,1.062214045596504,Right,Incorrect,0.0,0.0,-45,45,2008,1205,-0.82
"{'cat': 'RB', 'resp': 'reach'}",70,11,Left,36.85242868953436,69.00515419134018,1.8426214344767178,1.083930427336726,Left,Correct,0.0,0.0,-45,45,2012,676,-2.41
"{'cat': 'RB', 'resp': 'reach'}",70,12,Left,38.860490329526364,22.31636543613128,1.943024516476318,0.3505446485448761,Right,Incorrect,0.0,0.0,-45,45,2005,1885,-0.62
"{'cat': 'RB', 'resp': 'reach'}",70,13,Left,44.25276554740215,63.56041462346806,2.2126382773701074,0.9984046582010426,Left,Correct,0.0,0.0,-45,45,2002,763,-2.42
"{'cat': 'RB', 'resp': 'reach'}",70,14,Right,58.90335993363302,46.45488641991498,2.945167996681651,0.7297116495007657,Left,Incorrect,0.0,0.0,-45,45,2005,691,-2.52
"{'cat': 'RB', 'resp': 'reach'}",70,15,Left,42.22108687685135,81.80733930907945,2.1110543438425675,1.2850266809156574,Right,Incorrect,0.0,0.0,-45,45,2010,699,-0.59
"{'cat': 'RB', 'resp': 'reach'}",70,16,Left,33.08227607263942,24.467814604106305,1.654113803631971,0.3843395330482871,Right,Incorrect,0.0,0.0,-45,45,2007,793,-0.61
"{'cat': 'RB', 'resp': 'reach'}",70,17,Right,57.15648588100959,15.093649467389497,2.8578242940504794,0.2370904914130517,Left,Incorrect,0.0,0.0,-45,45,2005,1704,-2.44
"{'cat': 'RB', 'resp': 'reach'}",70,18,Left,36.72773677391884,40.81076838020882,1.836386838695942,0.6410540506530933,Left,Correct,0.0,0.0,-45,45,2004,889,-2.46
"{'cat': 'RB', 'resp': 'reach'}",70,19,Right,60.88754165036167,56.88888434050562,3.0443770825180834,0.8936085055752595,Left,Incorrect,0.0,0.0,-45,45,2003,983,-2.47
"{'cat': 'RB', 'resp': 'reach'}",70,20,Right,63.25946321141505,52.86169364559644,3.1629731605707523,0.8303495420666003,Left,Incorrect,0.0,0.0,-45,45,2009,795,-2.49
"{'cat': 'RB', 'resp': 'reach'}",70,21,Right,58.17939749484405,37.19428365868649,2.908969874742203,0.5842464414883217,Right,Correct,0.0,0.0,-45,45,2007,778,-0.63
"{'cat': 'RB', 'resp': 'reach'}",70,22,Left,47.420521285837914,31.372735097582986,2.3710260642918954,0.49280177052792684,Right,Incorrect,0.0,0.0,-45,45,2012,805,-0.67
"{'cat': 'RB', 'resp': 'reach'}",70,23,Left,31.07234632111863,44.89931904862661,1.5536173160559315,0.7052768543717481,Right,Incorrect,0.0,0.0,-45,45,2012,606,-0.81
"{'cat': 'RB', 'resp': 'reach'}",70,24,Left,37.83953429926717,75.70301720409606,1.8919767149633586,1.1891402135148494,Left,Correct,0.0,0.0,-45,45,2009,615,-2.44
"{'cat': 'RB', 'resp': 'reach'}",70,25,Left,42.99915681950838,48.125843933405505,2.149957840975419,0.7559589887449782,Left,Correct,0.0,0.0,-45,45,2013,666,-2.48
"{'cat': 'RB', 'resp': 'reach'}",70,26,Right,56.96329809712742,30.43528390344809,2.8481649048563713,0.478076321604961,Left,Incorrect,0.0,0.0,-45,45,2003,610,-2.44
"{'cat': 'RB', 'resp': 'reach'}",70,27,Right,61.970339751480296,19.76726885465183,3.098516987574015,0.3105035330765426,Right,Correct,0.0,0.0,-45,45,2011,700,-0.66
"{'cat': 'RB', 'resp': 'reach'}",70,28,Right,57.57343782117228,15.632944540188447,2.8786718910586138,0.24556171860716347,Right,Correct,0.0,0.0,-45,45,2007,645,-0.85
"{'cat': 'RB', 'resp': 'reach'}",70,29,Left,37.354764469247705,24.171621538430156,1.8677382234623852,0.3796869432524249,Left,Correct,0.0,0.0,-45,45,2001,657,-2.49
"{'cat': 'RB', 'resp': 'reach'}",70,30,Right,53.32126013299926,78.06559726656255,2.666063006649963,1.2262515343536615,Left,Incorrect,0.0,0.0,-45,45,2009,932,-2.47
"{'cat': 'RB', 'resp': 'reach'}",70,31,Right,57.653875410075784,57.10753257926607,2.8826937705037894,0.8970430240783104,Right,Correct,0.0,0.0,-45,45,2014,2810,-0.78
"{'cat': 'RB', 'resp': 'reach'}",70,32,Left,42.10875188398561,50.937789288518694,2.1054375941992807,0.800128923094576,Right,Incorrect,0.0,0.0,-45,45,2012,714,-0.58
"{'cat': 'RB', 'resp': 'reach'}",70,33,Right,65.42779868521528,56.5914590729811,3.271389934260764,0.8889365603980244,Left,Incorrect,0.0,0.0,-45,45,2007,1913,-2.53
"{'cat': 'RB', 'resp': 'reach'}",70,34,Right,64.19347231347516,70.73452704114382,3.2096736156737573,1.1110953525380298,Left,Incorrect,0.0,0.0,-45,45,2001,1381,-2.49
"{'cat': 'RB', 'resp': 'reach'}",70,35,Left,31.235186879777054,36.14916807190462,1.5617593439888526,0.5678298042403913,Right,Incorrect,0.0,0.0,-45,45,2010,1160,-0.65
"{'cat': 'RB', 'resp': 'reach'}",70,36,Right,68.00632463421874,41.578777176190364,3.400316231710937,0.653117904609833,Left,Incorrect,0.0,0.0,-45,45,2002,1244,-2.5
"{'cat': 'RB', 'resp': 'reach'}",70,37,Left,36.97699252916699,45.81447986676584,1.8488496264583494,0.7196521668873452,Right,Incorrect,0.0,0.0,-45,45,2005,3180,-0.66
"{'cat': 'RB', 'resp': 'reach'}",70,38,Right,62.21666868138775,87.88192491297733,3.1108334340693875,1.3804460484496968,Right,Correct,0.0,0.0,-45,45,2006,761,-0.69
"{'cat': 'RB', 'resp': 'reach'}",70,39,Right,52.687289393156334,24.17767076896553,2.634364469657817,0.379781964343474,Right,Correct,0.0,0.0,-45,45,2012,2363,-0.71
"{'cat': 'RB', 'resp': 'reach'}",70,40,Right,53.807239179368466,47.14535223127371,2.6903619589684236,0.7405574611033633,Right,Correct,0.0,0.0,-45,45,2007,732,-0.75
"{'cat': 'RB', 'resp': 'reach'}",70,41,Right,59.93164761907574,90.24146406908396,2.996582380953787,1.4175096028431073,Right,Correct,0.0,0.0,-45,45,2004,740,-0.77
"{'cat': 'RB', 'resp': 'reach'}",70,42,Right,66.03135631277497,52.90788701203844,3.3015678156387485,0.8310751457698938,Right,Correct,0.0,0.0,-45,45,2011,646,-0.77
"{'cat': 'RB', 'resp': 'reach'}",70,43,Right,57.04666862577326,11.738499581290718,2.852333431288663,0.18438792024374895,Left,Incorrect,0.0,0.0,-45,45,2003,689,-2.58
"{'cat': 'RB', 'resp': 'reach'}",70,44,Left,47.62021961007939,68.06138149359491,2.3810109805039694,1.0691056804672503,Left,Correct,0.0,0.0,-45,45,2013,559,-2.58
"{'cat': 'RB', 'resp': 'reach'}",70,45,Right,52.20284243743696,29.66477340256888,2.610142121871848,0.46597317095958146,Left,Incorrect,0.0,0.0,-45,45,2001,614,-2.56
"{'cat': 'RB', 'resp': 'reach'}",70,46,Right,67.06039803874924,45.895974202365565,3.353019901937462,0.7209322769174916,Right,Correct,0.0,0.0,-45,45,2014,1534,-0.83
"{'cat': 'RB', 'resp': 'reach'}",70,47,Left,47.28333444216334,64.52344564682974,2.3641667221081666,1.0135319141419032,Right,Incorrect,0.0,0.0,-45,45,2003,616,-0.84
"{'cat': 'RB', 'resp': 'reach'}",70,48,Right,60.099349591593075,10.989521124607023,3.004967479579654,0.17262299415767632,Right,Correct,0.0,0.0,-45,45,2001,668,-0.82
"{'cat': 'RB', 'resp': 'reach'}",70,49,Left,38.210789949282265,76.41184384895993,1.9105394974641132,1.2002744364157147,Right,Incorrect,0.0,0.0,-45,45,2009,667,-0.84
"{'cat': 'RB', 'resp': 'reach'}",70,50,Left,37.68950981239741,56.79785402078819,1.8844754906198704,0.8921786046568684,Right,Incorrect,0.0,0.0,-45,45,2007,633,-0.83
"{'cat': 'RB', 'resp': 'reach'}",70,51,Left,39.92296990248949,32.63778143114739,1.9961484951244746,0.51267307186781,Right,Incorrect,0.0,0.0,-45,45,2007,591,-0.85
"{'cat': 'RB', 'resp': 'reach'}",70,52,Right,59.28836182326752,76.59509292489062,2.9644180911633757,1.2031529061693196,Right,Correct,0.0,0.0,-45,45,2007,540,-0.87
"{'cat': 'RB', 'resp': 'reach'}",70,53,Left,44.28111564760565,58.59536603698606,2.2140557823802824,0.9204138573810015,Right,Incorrect,0.0,0.0,-45,45,2003,594,-0.81
"{'cat': 'RB', 'resp': 'reach'}",70,54,Left,44.387694663114665,41.42385843674307,2.2193847331557333,0.6506844467410781,Right,Incorrect,0.0,0.0,-45,45,2011,895,-0.77
"{'cat': 'RB', 'resp': 'reach'}",70,55,Right,55.25715783923972,44.73265357328086,2.762857891961986,0.7026588792069818,Left,Incorrect,0.0,0.0,-45,45,2012,557,-2.5
"{'cat': 'RB', 'resp': 'reach'}",70,56,Right,60.15116444541011,48.26522364671495,3.0075582222705055,0.7581483601619403,Left,Incorrect,0.0,0.0,-45,45,2003,586,-2.47
"{'cat': 'RB', 'resp': 'reach'}",70,57,Right,62.10626051746115,41.65555615767179,3.1053130258730572,0.6543239460306938,Left,Incorrect,0.0,0.0,-45,45,2005,592,-2.45
"{'cat': 'RB', 'resp': 'reach'}",70,58,Right,56.572588190888915,34.99821548042733,2.8286294095444457,0.5497506832103154,Left,Incorrect,0.0,0.0,-45,45,2009,783,-2.49
"{'cat': 'RB', 'resp': 'reach'}",70,59,Right,66.52572423871108,36.557482399079106,3.3262862119355536,0.5742435906934256,Left,Incorrect,0.0,0.0,-45,45,2007,949,-2.43
"{'cat': 'RB', 'resp': 'reach'}",70,60,Right,53.184786804445615,21.448402413527212,2.659239340222281,0.33691071726787336,Left,Incorrect,0.0,0.0,-45,45,2001,668,-2.48
"{'cat': 'RB', 'resp': 'reach'}",70,61,Right,64.45586453418058,55.47952941764713,3.222793226709029,0.8714704102154951,Left,Incorrect,0.0,0.0,-45,45,2006,585,-2.46
"{'cat': 'RB', 'resp': 'reach'}",70,62,Right,66.32057409552638,26.43487165514985,3.316028704776319,0.4152379929520391,Left,Incorrect,0.0,0.0,-45,45,2005,604,-2.47
"{'cat': 'RB', 'resp': 'reach'}",70,63,Left,41.903450347094335,19.128874673393987,2.095172517354717,0.30047566072687204,Right,Incorrect,0.0,0.0,-45,45,2002,543,-0.77
"{'cat': 'RB', 'resp': 'reach'}",70,64,Left,41.738159890571566,79.75867326321246,2.0869079945285787,1.2528463099188845,Left,Correct,0.0,0.0,-45,45,2008,603,-2.46
"{'cat': 'RB', 'resp': 'reach'}",70,65,Right,66.27407130003417,52.10578740397293,3.3137035650017084,0.8184757945891648,Right,Correct,0.0,0.0,-45,45,2012,2017,-0.76
"{'cat': 'RB', 'resp': 'reach'}",70,66,Left,48.94731894366998,57.157848102856434,2.4473659471834988,0.8978333784746754,Right,Incorrect,0.0,0.0,-45,45,2007,488,-0.78
"{'cat': 'RB', 'resp': 'reach'}",70,67,Right,55.46955141099807,31.998383430102013,2.773477570549904,0.5026294315537893,Left,Incorrect,0.0,0.0,-45,45,2007,621,-2.48
"{'cat': 'RB', 'resp': 'reach'}",70,68,Left,47.10026263948668,26.52659057141164,2.355013131974334,0.41667871031965537,Right,Incorrect,0.0,0.0,-45,45,2014,564,-0.81
"{'cat': 'RB', 'resp': 'reach'}",70,69,Right,66.1554665402259,36.75269103571864,3.3077733270112955,0.5773099207873457,Right,Correct,0.0,0.0,-45,45,2008,594,-0.8
"{'cat': 'RB', 'resp': 'reach'}",70,70,Right,62.89196554639096,80.19251788084472,3.144598277319548,1.2596611252366494,Right,Correct,0.0,0.0,-45,45,2007,1107,-0.75
"{'cat': 'RB', 'resp': 'reach'}",70,71,Left,36.585991656589336,21.348704405306687,1.8292995828294667,0.3353446646168577,Right,Incorrect,0.0,0.0,-45,45,2003,686,-0.76
"{'cat': 'RB', 'resp': 'reach'}",70,72,Right,56.97990900903365,82.13492930480382,2.848995450451682,1.2901724525354434,Right,Correct,0.0,0.0,-45,45,2001,2508,-0.79
"{'cat': 'RB', 'resp': 'reach'}",70,73,Right,62.0483061697844,52.89467797213555,3.1024153084892196,0.8308676586562945,Right,Correct,0.0,0.0,-45,45,2008,874,-0.84
"{'cat': 'RB', 'resp': 'reach'}",70,74,Right,61.39122457976063,40.27650510704275,3.069561228988032,0.6326618627827864,Right,Correct,0.0,0.0,-45,45,2001,25143,0.93
"{'cat': 'RB', 'resp': 'reach'}",70,75,Right,60.96203093631138,89.59051972924132,3.048101546815569,1.40728459306338,Right,Correct,0.0,0.0,-45,45,2005,698,-0.79
"{'cat': 'RB', 'resp': 'reach'}",70,76,Right,56.829184452751065,54.61037019443487,2.8414592226375532,0.857817689063278,Right,Correct,0.0,0.0,-45,45,2009,849,-0.8
"{'cat': 'RB', 'resp': 'reach'}",70,77,Left,31.191355283401396,47.08005113534897,1.5595677641700698,0.7395317138872204,Right,Incorrect,0.0,0.0,-45,45,2002,740,-0.87
"{'cat': 'RB', 'resp': 'reach'}",70,78,Right,65.81446200576795,24.34075962146037,3.2907231002883974,0.3823437580478749,Right,Correct,0.0,0.0,-45,45,2007,562,-0.79
"{'cat': 'RB', 'resp': 'reach'}",70,79,Right,59.25841811044946,75.15766020631703,2.962920905522473,1.1805737658258175,Left,Incorrect,0.0,0.0,-45,45,2004,619,-2.54
"{'cat': 'RB', 'resp': 'reach'}",70,80,Right,59.25337382292985,18.442161551925672,2.9626686911464923,0.28968879623922916,Left,Incorrect,0.0,0.0,-45,45,2008,740,-2.46
"{'cat': 'RB', 'resp': 'reach'}",70,81,Left,46.857825788801996,27.62170939457799,2.3428912894400997,0.43388079656799194,Right,Incorrect,0.0,0.0,-45,45,2001,762,-0.81
"{'cat': 'RB', 'resp': 'reach'}",70,82,Left,38.237991565214976,70.88065368602399,1.9118995782607486,1.1133907045082763,Right,Incorrect,0.0,0.0,-45,45,2011,2783,-0.78
"{'cat': 'RB', 'resp': 'reach'}",70,83,Left,37.8191116143808,66.74429820347608,1.8909555807190401,1.0484169845252345,Right,Incorrect,0.0,0.0,-45,45,2004,598,-0.72
"{'cat': 'RB', 'resp': 'reach'}",70,84,Left,45.4331071166389,17.657986924544353,2.271655355831945,0.2773710099966658,Right,Incorrect,0.0,0.0,-45,45,2006,4231,1.21
"{'cat': 'RB', 'resp': 'reach'}",70,85,Right,67.19298671153456,74.01410027638832,3.359649335576728,1.1626107684517992,Right,Correct,0.0,0.0,-45,45,2001,623,-0.8
"{'cat': 'RB', 'resp': 'reach'}",70,86,Left,39.35364616842254,37.75675548665333,1.967682308421127,0.5930817283012811,Right,Incorrect,0.0,0.0,-45,45,2008,1242,-0.81
"{'cat': 'RB', 'resp': 'reach'}",70,87,Right,65.84779115714304,63.660660662468935,3.2923895578571516,0.9999793192994256,Left,Incorrect,0.0,0.0,-45,45,2007,760,-2.51
"{'cat': 'RB', 'resp': 'reach'}",70,88,Right,63.66714792985462,12.961653881496737,3.1833573964927315,0.20360118306241887,Left,Incorrect,0.0,0.0,-45,45,2013,570,-2.41
"{'cat': 'RB', 'resp': 'reach'}",70,89,Left,47.01529049050185,35.59822971007273,2.3507645245250925,0.5591756846898319,Right,Incorrect,0.0,0.0,-45,45,2003,508,-0.82
"{'cat': 'RB', 'resp': 'reach'}",70,90,Right,64.79711062968504,67.33357807539988,3.239855531484252,1.0576733711079551,Left,Incorrect,0.0,0.0,-45,45,2006,690,-2.55
"{'cat': 'RB', 'resp': 'reach'}",70,91,Left,35.303347080627276,76.86080096572294,1.7651673540313637,1.2073266383147123,Right,Incorrect,0.0,0.0,-45,45,2013,645,-0.8
"{'cat': 'RB', 'resp': 'reach'}",70,92,Left,43.7960741774335,56.879715150322966,2.189803708871675,0.8934644762726733,Right,Incorrect,0.0,0.0,-45,45,2007,506,-0.82
"{'cat': 'RB', 'resp': 'reach'}",70,93,Right,58.669369146813644,90.53040259817628,2.933468457340682,1.4220482386447848,Right,Correct,0.0,0.0,-45,45,2005,533,-0.76
"{'cat': 'RB', 'resp': 'reach'}",70,94,Left,38.10799126537666,46.955601356688334,1.905399563268833,0.737576861335315,Right,Incorrect,0.0,0.0,-45,45,2006,779,-0.81
"{'cat': 'RB', 'resp': 'reach'}",70,95,Left,36.348627173998814,86.17334922525188,1.8174313586999407,1.353607804306395,Right,Incorrect,0.0,0.0,-45,45,2009,529,-0.81
"{'cat': 'RB', 'resp': 'reach'}",70,96,Left,40.49715466122651,55.84215628201101,2.0248577330613258,0.8771665396808945,Right,Incorrect,0.0,0.0,-45,45,2003,553,-0.83
"{'cat': 'RB', 'resp': 'reach'}",70,97,Right,64.68214133101017,59.63960196683958,3.2341070665505085,0.9368166770102129,Right,Correct,0.0,0.0,-45,45,2010,553,-0.83
"{'cat': 'RB', 'resp': 'reach'}",70,98,Left,42.82148809000594,84.2979295526793,2.141074404500297,1.3241487809776362,Right,Incorrect,0.0,0.0,-45,45,2007,511,-0.78
"{'cat': 'RB', 'resp': 'reach'}",70,99,Left,35.32808841226655,81.97078691751372,1.7664044206133276,1.287594109945177,Right,Incorrect,0.0,0.0,-45,45,2006,745,-0.77
"{'cat': 'RB', 'resp': 'reach'}",70,100,Right,53.93132297357134,74.70434771267436,2.696566148678567,1.1734531498267762,Right,Correct,0.0,0.0,-45,45,2009,570,-0.78
"{'cat': 'RB', 'resp': 'reach'}",70,101,Left,46.46559549146552,71.31508608799143,2.323279774573276,1.1202147527207877,Left,Correct,0.0,0.0,-45,45,2008,613,-2.59
"{'cat': 'RB', 'resp': 'reach'}",70,102,Right,56.53370891932078,81.58032156825607,2.826685445966039,1.2814606945816311,Left,Incorrect,0.0,0.0,-45,45,2007,658,-2.5
"{'cat': 'RB', 'resp': 'reach'}",70,103,Left,43.02034953176227,39.09556134453131,2.1510174765881134,0.6141116415397433,Right,Incorrect,0.0,0.0,-45,45,2003,536,-0.77
"{'cat': 'RB', 'resp': 'reach'}",70,104,Left,46.348292043059104,33.555647772894496,2.3174146021529554,0.5270908826488602,Left,Correct,0.0,0.0,-45,45,2007,591,-2.43
"{'cat': 'RB', 'resp': 'reach'}",70,105,Right,57.3944202962102,56.93554029908776,2.8697210148105103,0.8943413756588986,Left,Incorrect,0.0,0.0,-45,45,2006,594,-2.5
"{'cat': 'RB', 'resp': 'reach'}",70,106,Right,55.645252469277786,35.52220304706514,2.782262623463889,0.557981460659924,Left,Incorrect,0.0,0.0,-45,45,2006,422,-2.51
"{'cat': 'RB', 'resp': 'reach'}",70,107,Left,46.44860662275852,75.48617309945318,2.3224303311379257,1.1857340342842477,Right,Incorrect,0.0,0.0,-45,45,2007,455,-0.8
"{'cat': 'RB', 'resp': 'reach'}",70,108,Right,56.326331026833735,29.518605285758237,2.816316551341687,0.46367716754977456,Left,Incorrect,0.0,0.0,-45,45,2013,501,-2.41
"{'cat': 'RB', 'resp': 'reach'}",70,109,Right,52.16729165657185,56.29241724091402,2.608364582828592,0.8842392222843346,Right,Correct,0.0,0.0,-45,45,2005,508,-0.8
"{'cat': 'RB', 'resp': 'reach'}",70,110,Right,65.20489736361898,38.16967428994058,3.2602448681809495,0.5995678416959627,Right,Correct,0.0,0.0,-45,45,2008,563,-0.79
"{'cat': 'RB', 'resp': 'reach'}",70,111,Left,36.84915491129316,65.53876623464114,1.8424577455646582,1.029480532640437,Left,Correct,0.0,0.0,-45,45,2008,818,-2.49
"{'cat': 'RB', 'resp': 'reach'}",70,112,Right,52.339574858422694,65.36122219197166,2.6169787429211344,1.0266916773397416,Left,Incorrect,0.0,0.0,-45,45,2002,615,-2.53
"{'cat': 'RB', 'resp': 'reach'}",70,113,Left,40.27565277944163,63.59486436788954,2.0137826389720814,0.9989457935210053,Right,Incorrect,0.0,0.0,-45,45,2005,570,-0.83
"{'cat': 'RB', 'resp': 'reach'}",70,114,Left,36.78834005139099,32.7019772930416,1.8394170025695495,0.5136814581083986,Right,Incorrect,0.0,0.0,-45,45,2005,627,-0.8
"{'cat': 'RB', 'resp': 'reach'}",70,115,Right,52.82081133271329,57.8423769285883,2.6410405666356644,0.9085859321251237,Right,Correct,0.0,0.0,-45,45,2003,635,-0.84
"{'cat': 'RB', 'resp': 'reach'}",70,116,Right,51.18265674724228,60.06973311610074,2.559132837362114,0.943573161303208,Left,Incorrect,0.0,0.0,-45,45,2006,527,-2.43
"{'cat': 'RB', 'resp': 'reach'}",70,117,Left,39.755201502539514,9.954376668876122,1.9877600751269755,0.15636298307003432,Right,Incorrect,0.0,0.0,-45,45,2005,689,-0.74
"{'cat': 'RB', 'resp': 'reach'}",70,118,Left,40.710350197325994,73.84248958597337,2.0355175098663,1.1599151140303736,Right,Incorrect,0.0,0.0,-45,45,2014,591,-0.77
"{'cat': 'RB', 'resp': 'reach'}",70,119,Right,63.71727261527528,40.11127229570447,3.185863630763764,0.6300663918516247,Right,Correct,0.0,0.0,-45,45,2003,456,-0.79
"{'cat': 'RB', 'resp': 'reach'}",70,120,Right,54.15865777871547,23.869364803754408,2.707932888935774,0.3749391055666481,Right,Correct,0.0,0.0,-45,45,2012,560,-0.82
"{'cat': 'RB', 'resp': 'reach'}",70,121,Right,52.8331781091414,63.238025801824975,2.64165890545707,0.9933405864326756,Right,Correct,0.0,0.0,-45,45,2009,581,-0.78
"{'cat': 'RB', 'resp': 'reach'}",70,122,Right,59.09397466259145,21.421060958831095,2.9546987331295727,0.33648123870181446,Right,Correct,0.0,0.0,-45,45,2007,520,-0.84
"{'cat': 'RB', 'resp': 'reach'}",70,123,Left,33.50293475352141,67.923185009318,1.6751467376760703,1.066934895168469,Left,Correct,0.0,0.0,-45,45,2001,781,-2.45
"{'cat': 'RB', 'resp': 'reach'}",70,124,Right,64.82801722130536,35.111356942551794,3.2414008610652676,0.5515279051414486,Right,Correct,0.0,0.0,-45,45,2006,604,-0.86
"{'cat': 'RB', 'resp': 'reach'}",70,125,Right,64.47886025386794,52.43404324174837,3.223943012693397,0.823632025231431,Right,Correct,0.0,0.0,-45,45,2003,569,-0.79
"{'cat': 'RB', 'resp': 'reach'}",70,126,Right,63.24512435129155,60.236833328330206,3.1622562175645776,0.9461979652989749,Right,Correct,0.0,0.0,-45,45,2002,550,-0.75
"{'cat': 'RB', 'resp': 'reach'}",70,127,Right,66.01631513969188,42.84360707747785,3.300815756984594,0.6729858062394604,Right,Correct,0.0,0.0,-45,45,2004,656,-0.83
"{'cat': 'RB', 'resp': 'reach'}",70,128,Left,44.07256408065136,33.40698083735383,2.2036282040325683,0.5247556278862289,Left,Correct,0.0,0.0,-45,45,2001,1703,-2.53
"{'cat': 'RB', 'resp': 'reach'}",70,129,Right,57.8582663806543,52.16615762495905,2.892913319032715,0.8194240878028928,Left,Incorrect,0.0,0.0,-45,45,2007,694,-2.5
"{'cat': 'RB', 'resp': 'reach'}",70,130,Left,41.26763414680893,83.16386655575164,2.0633817073404463,1.3063349610783563,Right,Incorrect,0.0,0.0,-45,45,2006,509,-0.84
"{'cat': 'RB', 'resp': 'reach'}",70,131,Right,53.05259910181444,69.22457894922714,2.652629955090722,1.0873771433736932,Left,Incorrect,0.0,0.0,-45,45,2002,671,-2.54
"{'cat': 'RB', 'resp': 'reach'}",70,132,Right,58.26742051924567,56.70163352781269,2.9133710259622836,0.8906671766875852,Right,Correct,0.0,0.0,-45,45,2003,578,-0.88
"{'cat': 'RB', 'resp': 'reach'}",70,133,Left,43.92122904964491,32.29530404303113,2.1960614524822457,0.5072934496351768,Left,Correct,0.0,0.0,-45,45,2001,559,-2.46
"{'cat': 'RB', 'resp': 'reach'}",70,134,Right,54.86742671594445,35.42742890294563,2.7433713357972227,0.5564927518853434,Right,Correct,0.0,0.0,-45,45,2011,596,-0.84
"{'cat': 'RB', 'resp': 'reach'}",70,135,Left,46.76583212374198,29.14330923885065,2.338291606187099,0.4577820310303438,Right,Incorrect,0.0,0.0,-45,45,2011,538,-0.8
"{'cat': 'RB', 'resp': 'reach'}",70,136,Right,53.82897643098991,46.63853930462427,2.6914488215494954,0.7325964622678319,Right,Correct,0.0,0.0,-45,45,2001,1477,-0.83
"{'cat': 'RB', 'resp': 'reach'}",70,137,Right,56.35616013993881,17.672731874674618,2.8178080069969407,0.2776026231316998,Right,Correct,0.0,0.0,-45,45,2011,654,-0.82
"{'cat': 'RB', 'resp': 'reach'}",70,138,Left,42.162875858373454,65.3681026671655,2.108143792918673,1.0267997555913526,Right,Incorrect,0.0,0.0,-45,45,2009,668,-0.76
"{'cat': 'RB', 'resp': 'reach'}",70,139,Left,48.84579292075647,41.9506883663631,2.442289646037824,0.6589598719240056,Left,Correct,0.0,0.0,-45,45,2002,674,-2.49
"{'cat': 'RB', 'resp': 'reach'}",70,140,Right,64.47409420523478,85.99216236488124,3.223704710261739,1.350761727759058,Right,Correct,0.0,0.0,-45,45,2004,601,-0.75
"{'cat': 'RB', 'resp': 'reach'}",70,141,Right,68.45941915746201,40.59410586244402,3.4229709578731002,0.6376507237825024,Right,Correct,0.0,0.0,-45,45,2003,1462,-0.86
"{'cat': 'RB', 'resp': 'reach'}",70,142,Left,49.23785059151481,43.857661104589226,2.4618925295757403,0.6889145296490415,Right,Incorrect,0.0,0.0,-45,45,2013,653,-0.85
"{'cat': 'RB', 'resp': 'reach'}",70,143,Right,69.32565223647562,57.162668000821746,3.4662826118237806,0.8979090892548698,Left,Incorrect,0.0,0.0,-45,45,2006,1071,-2.42
"{'cat': 'RB', 'resp': 'reach'}",70,144,Left,35.84369869025518,86.70207741729939,1.792184934512759,1.3619130473258065,Right,Incorrect,0.0,0.0,-45,45,2006,655,-0.82
"{'cat': 'RB', 'resp': 'reach'}",70,145,Right,56.43050246820589,33.231363194814776,2.8215251234102943,0.5219970324080216,Right,Correct,0.0,0.0,-45,45,2009,569,-0.84
"{'cat': 'RB', 'resp': 'reach'}",70,146,Right,57.469505289466284,33.55524578896785,2.873475264473314,0.5270845683001062,Right,Correct,0.0,0.0,-45,45,2004,457,-0.81
"{'cat': 'RB', 'resp': 'reach'}",70,147,Left,43.2589497650705,80.7856754277592,2.1629474882535247,1.2689784221956888,Right,Incorrect,0.0,0.0,-45,45,2009,514,-0.8
"{'cat': 'RB', 'resp': 'reach'}",70,148,Right,59.862409686368736,11.901827368027739,2.9931204843184367,0.18695346711844943,Right,Correct,0.0,0.0,-45,45,2009,561,-0.91
"{'cat': 'RB', 'resp': 'reach'}",70,149,Left,34.536603567099235,56.91387910930296,1.7268301783549618,0.8940011224854189,Right,Incorrect,0.0,0.0,-45,45,2005,512,-0.87
"{'cat': 'RB', 'resp': 'reach'}",70,150,Left,35.64086249454484,18.57513872654655,1.7820431247272421,0.2917775968136495,Left,Correct,0.0,0.0,-45,45,2007,562,-2.49
"{'cat': 'RB', 'resp': 'reach'}",70,151,Left,33.26735904689901,27.28339923562813,1.6633679523449505,0.42856663301803355,Left,Correct,0.0,0.0,-45,45,2004,587,-2.45
"{'cat': 'RB', 'resp': 'reach'}",70,152,Left,35.72832378451643,47.37786122418061,1.7864161892258212,0.7442097038234126,Right,Incorrect,0.0,0.0,-45,45,2006,517,-0.86
"{'cat': 'RB', 'resp': 'reach'}",70,153,Left,34.28520433354143,42.52392772225045,1.7142602166770715,0.6679642946700268,Right,Incorrect,0.0,0.0,-45,45,2006,517,-0.85
"{'cat': 'RB', 'resp': 'reach'}",70,154,Right,55.062674256282904,56.15791504671201,2.753133712814145,0.8821264667583507,Left,Incorrect,0.0,0.0,-45,45,2009,496,-2.53
"{'cat': 'RB', 'resp': 'reach'}",70,155,Right,68.42300877909992,67.46295661185319,3.421150438954996,1.0597056444062247,Left,Incorrect,0.0,0.0,-45,45,2014,650,-2.4
"{'cat': 'RB', 'resp': 'reach'}",70,156,Left,41.52049513179606,48.4982070349533,2.076024756589803,0.7618080546664305,Left,Correct,0.0,0.0,-45,45,2006,583,-2.41
"{'cat': 'RB', 'resp': 'reach'}",70,157,Right,66.12270715112481,69.35082287638618,3.306135357556241,1.0893601783443088,Left,Incorrect,0.0,0.0,-45,45,2004,648,-2.43
"{'cat': 'RB', 'resp': 'reach'}",70,158,Left,37.45593600419994,58.971435889763434,1.872796800209997,0.9263211488146114,Left,Correct,0.0,0.0,-45,45,2014,861,-2.44
"{'cat': 'RB', 'resp': 'reach'}",70,159,Right,66.46260078195344,76.20455687445006,3.3231300390976717,1.1970183802341894,Left,Incorrect,0.0,0.0,-45,45,2008,794,-2.42
"{'cat': 'RB', 'resp': 'reach'}",70,160,Right,59.160699892416005,88.7042193752616,2.9580349946208004,1.3933626196586961,Right,Correct,0.0,0.0,-45,45,2003,667,-0.77
"{'cat': 'RB', 'resp': 'reach'}",70,161,Left,33.55234602632249,38.11160104115987,1.6776173013161244,0.5986556292372649,Right,Incorrect,0.0,0.0,-45,45,2001,618,-0.76
"{'cat': 'RB', 'resp': 'reach'}",70,162,Right,60.88408988213407,49.00139623620075,3.0442044941067037,0.769712132156454,Right,Correct,0.0,0.0,-45,45,2005,617,-0.82
"{'cat': 'RB', 'resp': 'reach'}",70,163,Left,43.333592046738644,81.13453443442077,2.1666796023369326,1.274458286658022,Right,Incorrect,0.0,0.0,-45,45,2007,643,-0.82
"{'cat': 'RB', 'resp': 'reach'}",70,164,Left,46.995814692637076,68.31570723267154,2.349790734631854,1.0731006198347601,Right,Incorrect,0.0,0.0,-45,45,2002,647,-0.75
"{'cat': 'RB', 'resp': 'reach'}",70,165,Left,40.988163773290196,34.02218207310513,2.0494081886645095,0.5344191862998072,Left,Correct,0.0,0.0,-45,45,2011,604,-2.47
"{'cat': 'RB', 'resp': 'reach'}",70,166,Right,55.445019625063246,64.25290638394507,2.772250981253162,1.0092822933379728,Right,Correct,0.0,0.0,-45,45,2008,631,-0.8
"{'cat': 'RB', 'resp': 'reach'}",70,167,Right,62.26309275489461,68.83216869372438,3.11315463774473,1.0812131774942892,Right,Correct,0.0,0.0,-45,45,2007,571,-0.88
"{'cat': 'RB', 'resp': 'reach'}",70,168,Right,51.501884363678386,65.89846343513575,2.5750942181839194,1.0351306430533904,Left,Incorrect,0.0,0.0,-45,45,2006,530,-2.42
"{'cat': 'RB', 'resp': 'reach'}",70,169,Right,63.43730524897075,40.02882905119077,3.171865262448538,0.628771376395113,Right,Correct,0.0,0.0,-45,45,2008,607,-0.82
"{'cat': 'RB', 'resp': 'reach'}",70,170,Right,64.1470414187216,62.833253308149665,3.20735207093608,0.9869824349701479,Right,Correct,0.0,0.0,-45,45,2007,665,-0.84
"{'cat': 'RB', 'resp': 'reach'}",70,171,Right,65.6590285462509,48.45506818936583,3.282951427312545,0.7611304312645208,Left,Incorrect,0.0,0.0,-45,45,2006,581,-2.51
"{'cat': 'RB', 'resp': 'reach'}",70,172,Left,35.57389592515103,18.557787617015403,1.7786947962575512,0.29150504622247614,Right,Incorrect,0.0,0.0,-45,45,2009,531,-0.87
"{'cat': 'RB', 'resp': 'reach'}",70,173,Right,56.9836264223529,37.4233395797965,2.849181321117645,0.5878444434834241,Right,Correct,0.0,0.0,-45,45,2007,639,-0.83
"{'cat': 'RB', 'resp': 'reach'}",70,174,Left,43.05228653131242,10.867004880947654,2.1526143265656206,0.17069851350254786,Left,Correct,0.0,0.0,-45,45,2001,613,-2.46
"{'cat': 'RB', 'resp': 'reach'}",70,175,Left,37.8897619833112,11.05004000319181,1.89448809916556,0.17357362247950364,Right,Incorrect,0.0,0.0,-45,45,2006,582,-0.76
"{'cat': 'RB', 'resp': 'reach'}",70,176,Left,39.6671049501696,61.41915934575522,1.9833552475084801,0.9647698989514274,Left,Correct,0.0,0.0,-45,45,2002,607,-2.5
"{'cat': 'RB', 'resp': 'reach'}",70,177,Right,63.66963932850597,44.700914573864665,3.1834819664252985,0.7021603241699907,Right,Correct,0.0,0.0,-45,45,2010,536,-0.83
"{'cat': 'RB', 'resp': 'reach'}",70,178,Right,58.587345257561594,61.509653453576874,2.92936726287808,0.9661913770730558,Right,Correct,0.0,0.0,-45,45,2003,1100,-0.85
"{'cat': 'RB', 'resp': 'reach'}",70,179,Right,53.53079902074457,31.08253015867924,2.676539951037228,0.48824324200744945,Right,Correct,0.0,0.0,-45,45,2003,624,-0.86
"{'cat': 'RB', 'resp': 'reach'}",70,180,Left,40.009649533499946,9.607907043871421,2.0004824766749976,0.15092065092700044,Right,Incorrect,0.0,0.0,-45,45,2009,427,-0.81
"{'cat': 'RB', 'resp': 'reach'}",70,181,Left,35.97471686827869,12.585506576419306,1.7987358434139344,0.1976926750109246,Left,Correct,0.0,0.0,-45,45,2006,577,-2.49
"{'cat': 'RB', 'resp': 'reach'}",70,182,Right,54.52989055665826,26.729526332338203,2.7264945278329127,0.4198664177980431,Left,Incorrect,0.0,0.0,-45,45,2009,512,-2.48
"{'cat': 'RB', 'resp': 'reach'}",70,183,Left,45.385368526642324,29.39797447810854,2.269268426332116,0.46178230325423014,Right,Incorrect,0.0,0.0,-45,45,2005,572,-0.86
"{'cat': 'RB', 'resp': 'reach'}",70,184,Right,64.17913940065431,20.59936222691129,3.2089569700327156,0.32357402520349793,Right,Correct,0.0,0.0,-45,45,2005,658,-0.85
"{'cat': 'RB', 'resp': 'reach'}",70,185,Left,43.24312257540504,46.67677740740296,2.1621561287702518,0.7331971049817158,Right,Incorrect,0.0,0.0,-45,45,2007,559,-0.93
"{'cat': 'RB', 'resp': 'reach'}",70,186,Left,35.805383050465394,56.99796069520015,1.7902691525232697,0.8953218729482029,Right,Incorrect,0.0,0.0,-45,45,2007,570,-0.83
"{'cat': 'RB', 'resp': 'reach'}",70,187,Left,37.98781299929305,41.18996038871705,1.8993906499646525,0.6470103847942403,Right,Incorrect,0.0,0.0,-45,45,2003,530,-0.85
"{'cat': 'RB', 'resp': 'reach'}",70,188,Left,49.08771694659451,40.99933078151044,2.4543858473297258,0.6440159819264554,Left,Correct,0.0,0.0,-45,45,2011,828,-2.46
"{'cat': 'RB', 'resp': 'reach'}",70,189,Left,39.081553260994426,69.21160899066241,1.9540776630497214,1.0871734117409715,Right,Incorrect,0.0,0.0,-45,45,2001,635,-0.88
"{'cat': 'RB', 'resp': 'reach'}",70,190,Left,31.61851374098458,57.03101032830496,1.5809256870492288,0.8958410153710324,Left,Correct,0.0,0.0,-45,45,2004,590,-2.52
"{'cat': 'RB', 'resp': 'reach'}",70,191,Left,47.99707857512671,39.527198117284314,2.399853928756335,0.6208917761112435,Right,Incorrect,0.0,0.0,-45,45,2009,581,-0.84
"{'cat': 'RB', 'resp': 'reach'}",70,192,Left,45.507622692523974,27.963627427123537,2.2753811346261985,0.4392516324638668,Left,Correct,0.0,0.0,-45,45,2013,415,-2.38
"{'cat': 'RB', 'resp': 'reach'}",70,193,Left,37.135719977027726,44.20776137190094,1.8567859988513862,0.6944138917880731,Right,Incorrect,0.0,0.0,-45,45,2006,590,-0.81
"{'cat': 'RB', 'resp': 'reach'}",70,194,Right,62.575476281195165,12.736526282376438,3.128773814059758,0.20006488700483566,Right,Correct,0.0,0.0,-45,45,2002,557,-0.76
"{'cat': 'RB', 'resp': 'reach'}",70,195,Right,66.80038058888508,38.534481531436526,3.340019029444254,0.6052982204452628,Right,Correct,0.0,0.0,-45,45,2009,458,-0.76
"{'cat': 'RB', 'resp': 'reach'}",70,196,Right,51.861469201778945,37.303196929521725,2.5930734600889473,0.5859572471459938,Right,Correct,0.0,0.0,-45,45,2011,682,-0.75
"{'cat': 'RB', 'resp': 'reach'}",70,197,Left,33.33213118520859,48.041226689924166,1.6666065592604296,0.7546298241925382,Right,Incorrect,0.0,0.0,-45,45,2006,594,-0.87
"{'cat': 'RB', 'resp': 'reach'}",70,198,Right,69.30472261430954,50.18387159284164,3.4652361307154766,0.788286411623824,Left,Incorrect,0.0,0.0,-45,45,2008,622,-2.48
"{'cat': 'RB', 'resp': 'reach'}",70,199,Left,41.97174391268822,27.83080138972224,2.098587195634411,0.43716520594733993,Right,Incorrect,0.0,0.0,-45,45,2004,1211,-0.83
"{'cat': 'RB', 'resp': 'reach'}",70,200,Right,52.81870763842137,45.143457832751565,2.6409353819210684,0.7091117774250645,Right,Correct,0.0,0.0,-45,45,2014,607,-0.82
"{'cat': 'RB', 'resp': 'reach'}",70,201,Left,43.6804683963848,48.92015741485101,2.18402341981924,0.7684360357347608,Right,Incorrect,0.0,0.0,-45,45,2002,655,-0.83
"{'cat': 'RB', 'resp': 'reach'}",70,202,Right,55.16281090209916,44.78746134962853,2.758140545104958,0.7035197977446489,Right,Correct,0.0,0.0,-45,45,2013,559,-0.84
"{'cat': 'RB', 'resp': 'reach'}",70,203,Left,45.45464196407228,53.94408518575136,2.2727320982036137,0.8473517086208925,Right,Incorrect,0.0,0.0,-45,45,2003,633,-0.84
"{'cat': 'RB', 'resp': 'reach'}",70,204,Left,42.40404153845944,67.04020112156074,2.120202076922972,1.053065016693387,Right,Incorrect,0.0,0.0,-45,45,2014,703,-0.85
"{'cat': 'RB', 'resp': 'reach'}",70,205,Left,42.290115471942705,69.45962063152606,2.114505773597135,1.0910691694856816,Left,Correct,0.0,0.0,-45,45,2002,542,-2.55
"{'cat': 'RB', 'resp': 'reach'}",70,206,Left,44.41013013734933,81.49382740330395,2.220506506867466,1.2801020474156712,Left,Correct,0.0,0.0,-45,45,2007,576,-2.49
"{'cat': 'RB', 'resp': 'reach'}",70,207,Left,44.78075076414727,63.24172038605735,2.2390375382073637,0.9933986208260882,Left,Correct,0.0,0.0,-45,45,2006,518,-2.44
"{'cat': 'RB', 'resp': 'reach'}",70,208,Right,62.33913271342256,41.80916403964983,3.116956635671128,0.6567368129984724,Right,Correct,0.0,0.0,-45,45,2005,547,-0.82
"{'cat': 'RB', 'resp': 'reach'}",70,209,Left,41.49590186289511,88.22709993770778,2.0747950931447554,1.3858680450591763,Right,Incorrect,0.0,0.0,-45,45,2001,488,-0.8
"{'cat': 'RB', 'resp': 'reach'}",70,210,Right,66.51227256113336,27.656885695941877,3.325613628056668,0.4344333446177181,Right,Correct,0.0,0.0,-45,45,2006,573,-0.85
"{'cat': 'RB', 'resp': 'reach'}",70,211,Left,38.11810602630976,60.23218311598489,1.905905301315488,0.9461249199342665,Right,Incorrect,0.0,0.0,-45,45,2009,414,-0.81
"{'cat': 'RB', 'resp': 'reach'}",70,212,Left,34.22893383730067,73.46724652865822,1.7114466918650337,1.1540208098695146,Right,Incorrect,0.0,0.0,-45,45,2008,613,-0.85
"{'cat': 'RB', 'resp': 'reach'}",70,213,Right,64.86147363811477,19.327777859114704,3.243073681905739,0.3036000246620511,Left,Incorrect,0.0,0.0,-45,45,2009,518,-2.54
"{'cat': 'RB', 'resp': 'reach'}",70,214,Right,67.49751914489565,36.389816637572785,3.3748759572447824,0.5716099030703915,Right,Correct,0.0,0.0,-45,45,2013,618,-0.8
"{'cat': 'RB', 'resp': 'reach'}",70,215,Right,61.38854545889853,42.71542810881439,3.0694272729449263,0.6709723757079712,Right,Correct,0.0,0.0,-45,45,2004,413,-0.71
"{'cat': 'RB', 'resp': 'reach'}",70,216,Left,31.113823900399197,60.03523414294627,1.55569119501996,0.9430312527001156,Right,Incorrect,0.0,0.0,-45,45,2002,605,-0.75
"{'cat': 'RB', 'resp': 'reach'}",70,217,Right,59.53879612899669,41.43708729686635,2.9769398064498342,0.6508922451899714,Left,Incorrect,0.0,0.0,-45,45,2012,475,-2.55
"{'cat': 'RB', 'resp': 'reach'}",70,218,Right,58.462797940745105,84.56622027570884,2.923139897037255,1.3283630818001155,Left,Incorrect,0.0,0.0,-45,45,2001,530,-2.46
"{'cat': 'RB', 'resp': 'reach'}",70,219,Right,53.41744537659553,26.602915504045463,2.6708722688297764,0.4178776195578962,Left,Incorrect,0.0,0.0,-45,45,2001,607,-2.51
"{'cat': 'RB', 'resp': 'reach'}",70,220,Right,51.18768019085741,44.32426666300412,2.55938400954287,0.6962439526212436,Right,Correct,0.0,0.0,-45,45,2009,613,-0.83
"{'cat': 'RB', 'resp': 'reach'}",70,221,Right,54.882923799345875,68.00926413177007,2.7441461899672936,1.0682870228620833,Right,Correct,0.0,0.0,-45,45,2006,422,-0.84
"{'cat': 'RB', 'resp': 'reach'}",70,222,Left,45.49446667152527,22.59639015607435,2.2747233335762633,0.3549432665598595,Right,Incorrect,0.0,0.0,-45,45,2012,423,-0.78
"{'cat': 'RB', 'resp': 'reach'}",70,223,Right,65.06939854671764,79.77833762986634,3.253469927335882,1.2531551970679713,Right,Correct,0.0,0.0,-45,45,2003,711,-0.8
"{'cat': 'RB', 'resp': 'reach'}",70,224,Left,42.13598783532157,11.462123808918442,2.1067993917660788,0.18004661976317418,Right,Incorrect,0.0,0.0,-45,45,2004,479,-0.85
"{'cat': 'RB', 'resp': 'reach'}",70,225,Right,64.07913174270138,51.74470112854511,3.2039565871350693,0.8128038646381839,Right,Correct,0.0,0.0,-45,45,2009,464,-0.86
"{'cat': 'RB', 'resp': 'reach'}",70,226,Left,32.80043061190397,37.4068851115926,1.6400215305951986,0.5875859773012836,Right,Incorrect,0.0,0.0,-45,45,2007,646,-0.82
"{'cat': 'RB', 'resp': 'reach'}",70,227,Right,62.07202510442878,89.66051558430561,3.103601255221439,1.4083840853836382,Right,Correct,0.0,0.0,-45,45,2005,529,-0.89
"{'cat': 'RB', 'resp': 'reach'}",70,228,Right,53.09555550148228,55.43084162995967,2.6547777750741144,0.8707056242349029,Right,Correct,0.0,0.0,-45,45,2010,566,-0.92
"{'cat': 'RB', 'resp': 'reach'}",70,229,Left,35.25695792294853,53.814547230356425,1.7628478961474263,0.8453169311757434,Right,Incorrect,0.0,0.0,-45,45,2004,576,-0.86
"{'cat': 'RB', 'resp': 'reach'}",70,230,Left,43.90911157360636,27.699262121775707,2.1954555786803183,0.4350989919581429,Right,Incorrect,0.0,0.0,-45,45,2008,543,-0.86
"{'cat': 'RB', 'resp': 'reach'}",70,231,Right,62.02436261732472,33.03406697853512,3.101218130866236,0.5188979106897955,Right,Correct,0.0,0.0,-45,45,2012,540,-0.82
"{'cat': 'RB', 'resp': 'reach'}",70,232,Right,56.52560558798842,32.37657637121416,2.826280279399421,0.5085700723809765,Right,Correct,0.0,0.0,-45,45,2007,802,-0.85
"{'cat': 'RB', 'resp': 'reach'}",70,233,Right,57.997270432132936,27.3910220618056,2.899863521606647,0.43025716841842215,Right,Correct,0.0,0.0,-45,45,2009,603,-0.82
"{'cat': 'RB', 'resp': 'reach'}",70,234,Left,45.42600893262747,53.189889807830596,2.2713004466313733,0.835504835327656,Left,Correct,0.0,0.0,-45,45,2002,562,-2.46
"{'cat': 'RB', 'resp': 'reach'}",70,235,Left,46.498985830126436,61.56475880104036,2.324949291506322,0.9670569698468799,Left,Correct,0.0,0.0,-45,45,2008,625,-2.65
"{'cat': 'RB', 'resp': 'reach'}",70,236,Right,66.33614762522772,76.56610465880514,3.3168073812613863,1.2026975595504474,Left,Incorrect,0.0,0.0,-45,45,2007,779,-2.44
"{'cat': 'RB', 'resp': 'reach'}",70,237,Left,38.02915952830697,54.94768337563022,1.9014579764153483,0.8631161921232894,Right,Incorrect,0.0,0.0,-45,45,2006,735,-0.91
"{'cat': 'RB', 'resp': 'reach'}",70,238,Left,41.486763237551465,84.07142054720038,2.074338161877573,1.3205907858397135,Right,Incorrect,0.0,0.0,-45,45,2011,607,-0.74
"{'cat': 'RB', 'resp': 'reach'}",70,239,Left,45.59759127491325,31.804045964242416,2.2798795637456624,0.4995767857784804,Right,Incorrect,0.0,0.0,-45,45,2012,765,-0.81
"{'cat': 'RB', 'resp': 'reach'}",70,240,Left,45.76671982444414,19.443431084242302,2.2883359912222065,0.3054167012741752,Right,Incorrect,0.0,0.0,-45,45,2008,17799,1.37
"{'cat': 'RB', 'resp': 'reach'}",70,241,Left,44.46807841192822,63.435509963576116,2.223403920596411,0.9964426603914642,Right,Incorrect,0.0,0.0,-45,45,2013,692,-0.76
"{'cat': 'RB', 'resp': 'reach'}",70,242,Right,63.35006265387011,13.78108062385703,3.1675031326935055,0.21647270823218945,Right,Correct,0.0,0.0,-45,45,2012,630,-0.74
"{'cat': 'RB', 'resp': 'reach'}",70,243,Left,40.312940404134075,70.6997189335132,2.015647020206704,1.1105485880619412,Right,Incorrect,0.0,0.0,-45,45,2005,1201,-0.74
"{'cat': 'RB', 'resp': 'reach'}",70,244,Left,46.45169957041023,67.63361122280085,2.3225849785205113,1.0623862807664968,Left,Correct,0.0,0.0,-45,45,2002,608,-2.53
"{'cat': 'RB', 'resp': 'reach'}",70,245,Right,58.58711145489881,85.81394903751774,2.9293555727449405,1.3479623593589733,Left,Incorrect,0.0,0.0,-45,45,2005,678,-2.46
"{'cat': 'RB', 'resp': 'reach'}",70,246,Left,44.68688688267281,80.85506300187559,2.2343443441336404,1.270068359661161,Left,Correct,0.0,0.0,-45,45,2011,592,-2.45
"{'cat': 'RB', 'resp': 'reach'}",70,247,Right,53.774158532648,25.527820759816958,2.6887079266324,0.4009900708059899,Left,Incorrect,0.0,0.0,-45,45,2008,740,-2.44
"{'cat': 'RB', 'resp': 'reach'}",70,248,Right,66.64574593711907,37.504549520953205,3.3322872968559536,0.589120086256106,Right,Correct,0.0,0.0,-45,45,2006,704,-0.73
"{'cat': 'RB', 'resp': 'reach'}",70,249,Left,39.773131355303924,86.22324783111985,1.9886565677651962,1.3543916097744908,Right,Incorrect,0.0,0.0,-45,45,2005,802,-0.81
"{'cat': 'RB', 'resp': 'reach'}",70,250,Right,65.77498370348947,59.27242231384191,3.2887491851744732,0.9310490325081874,Left,Incorrect,0.0,0.0,-45,45,2006,677,-2.54
"{'cat': 'RB', 'resp': 'reach'}",70,251,Right,64.42117911735322,32.738137188352574,3.2210589558676612,0.5142494564157163,Right,Correct,0.0,0.0,-45,45,2007,804,-0.8
"{'cat': 'RB', 'resp': 'reach'}",70,252,Left,40.58475856454285,63.12100097224008,2.0292379282271424,0.9915023647081181,Left,Correct,0.0,0.0,-45,45,2008,636,-2.32
"{'cat': 'RB', 'resp': 'reach'}",70,253,Left,47.36320336329483,27.88513821824492,2.3681601681647413,0.438018726853871,Right,Incorrect,0.0,0.0,-45,45,2007,1944,-0.82
"{'cat': 'RB', 'resp': 'reach'}",70,254,Left,36.76262700616107,54.771142317500065,1.8381313503080534,0.8603430916668962,Right,Incorrect,0.0,0.0,-45,45,2007,604,-0.79
"{'cat': 'RB', 'resp': 'reach'}",70,255,Right,69.32045640354005,43.180506176703304,3.4660228201770025,0.6782778049150989,Right,Correct,0.0,0.0,-45,45,2005,625,-0.82
"{'cat': 'RB', 'resp': 'reach'}",70,256,Right,62.80169264233707,64.2251200383157,3.1400846321168534,1.0088458264414761,Right,Correct,0.0,0.0,-45,45,2002,708,-0.8
"{'cat': 'RB', 'resp': 'reach'}",70,257,Left,33.38845069820508,72.08244884352155,1.6694225349102538,1.1322684586978469,Right,Incorrect,0.0,0.0,-45,45,2001,8311,1.95
"{'cat': 'RB', 'resp': 'reach'}",70,258,Right,57.425987288642396,87.16433084875038,2.87129936443212,1.3691741072475219,Right,Correct,0.0,0.0,-45,45,2013,658,-0.74
"{'cat': 'RB', 'resp': 'reach'}",70,259,Right,54.805265375773544,53.875897742739035,2.740263268788677,0.8462806227707194,Right,Correct,0.0,0.0,-45,45,2001,582,-0.83
"{'cat': 'RB', 'resp': 'reach'}",70,260,Right,65.51509791777923,64.24223841831505,3.2757548958889617,1.0091147213257128,Left,Incorrect,0.0,0.0,-45,45,2007,679,-2.42
"{'cat': 'RB', 'resp': 'reach'}",70,261,Left,48.55441899422103,55.32818054632517,2.4277209497110515,0.8690930277041243,Left,Correct,0.0,0.0,-45,45,2006,709,-2.47
"{'cat': 'RB', 'resp': 'reach'}",70,262,Left,37.90267489654224,43.91615815373014,1.895133744827112,0.6898333991482304,Left,Correct,0.0,0.0,-45,45,2001,678,-2.44
"{'cat': 'RB', 'resp': 'reach'}",70,263,Right,64.85020073521794,58.585793542959046,3.2425100367608968,0.9202634929964423,Left,Incorrect,0.0,0.0,-45,45,2003,732,-2.47
"{'cat': 'RB', 'resp': 'reach'}",70,264,Left,34.112243955569205,33.96447135181958,1.7056121977784602,0.5335126684096869,Left,Correct,0.0,0.0,-45,45,2007,697,-2.38
"{'cat': 'RB', 'resp': 'reach'}",70,265,Left,41.15838653527419,10.176785205297904,2.0579193267637095,0.15985656819062596,Left,Correct,0.0,0.0,-45,45,2010,795,-2.37
"{'cat': 'RB', 'resp': 'reach'}",70,266,Right,64.68838997645922,74.49720494239111,3.234419498822961,1.1701993587999457,Right,Correct,0.0,0.0,-45,45,2007,540,-0.82
"{'cat': 'RB', 'resp': 'reach'}",70,267,Right,61.171829210769154,10.012217305519684,3.058591460538458,0.15727154166582616,Right,Correct,0.0,0.0,-45,45,2003,483,-0.72
"{'cat': 'RB', 'resp': 'reach'}",70,268,Left,41.63426866352258,80.00260463862372,2.0817134331761293,1.256677975003745,Left,Correct,0.0,0.0,-45,45,2011,1025,-2.43
"{'cat': 'RB', 'resp': 'reach'}",70,269,Left,37.223334679814045,42.05206781428052,1.8611667339907023,0.6605523365680174,Left,Correct,0.0,0.0,-45,45,2006,1186,-2.49
"{'cat': 'RB', 'resp': 'reach'}",70,270,Left,47.569593009001295,50.4880591817578,2.378479650450065,0.793064579097085,Right,Incorrect,0.0,0.0,-45,45,2004,484,-0.74
"{'cat': 'RB', 'resp': 'reach'}",70,271,Left,38.60745478331349,76.01037009520563,1.9303727391656746,1.1939681014386965,Left,Correct,0.0,0.0,-45,45,2006,500,-2.35
"{'cat': 'RB', 'resp': 'reach'}",70,272,Left,35.66587357305702,81.05449437028179,1.7832936786528508,1.2732010202705624,Left,Correct,0.0,0.0,-45,45,2002,629,-2.39
"{'cat': 'RB', 'resp': 'reach'}",70,273,Left,39.400592186057395,21.528354062983794,1.9700296093028697,0.3381665948407493,Left,Correct,0.0,0.0,-45,45,2002,623,-2.43
"{'cat': 'RB', 'resp': 'reach'}",70,274,Left,33.66432599756592,57.36551895674074,1.683216299878296,0.9010954646193137,Right,Incorrect,0.0,0.0,-45,45,2003,539,-0.86
"{'cat': 'RB', 'resp': 'reach'}",70,275,Right,59.13272987532905,58.56206961791299,2.9566364937664527,0.9198908384532473,Right,Correct,0.0,0.0,-45,45,2010,538,-0.91
"{'cat': 'RB', 'resp': 'reach'}",70,276,Left,35.22711723660817,58.52840764894904,1.7613558618304086,0.9193620774812348,Right,Incorrect,0.0,0.0,-45,45,2001,473,-0.83
"{'cat': 'RB', 'resp': 'reach'}",70,277,Left,45.375687218492494,58.762573597378974,2.2687843609246245,0.9230403475977766,Right,Incorrect,0.0,0.0,-45,45,2005,521,-0.82
"{'cat': 'RB', 'resp': 'reach'}",70,278,Right,60.08609330237012,78.15973916150612,3.0043046651185055,1.2277303117814105,Right,Correct,0.0,0.0,-45,45,2009,469,-0.82
"{'cat': 'RB', 'resp': 'reach'}",70,279,Left,42.50198579446479,33.32617486246684,2.1250992897232392,0.5234863306008734,Right,Incorrect,0.0,0.0,-45,45,2012,525,-0.87
"{'cat': 'RB', 'resp': 'reach'}",70,280,Left,44.5683247913128,74.15054050081383,2.22841623956564,1.164753966485346,Right,Incorrect,0.0,0.0,-45,45,2002,507,-0.85
"{'cat': 'RB', 'resp': 'reach'}",70,281,Left,38.02469738211811,44.14994614885391,1.9012348691059058,0.693505732388122,Left,Correct,0.0,0.0,-45,45,2003,640,-2.43
"{'cat': 'RB', 'resp': 'reach'}",70,282,Right,60.402410934257716,13.68643922629856,3.020120546712886,0.21498608463571367,Left,Incorrect,0.0,0.0,-45,45,2009,619,-2.41
"{'cat': 'RB', 'resp': 'reach'}",70,283,Right,60.92814111450708,75.15938424934106,3.046407055725354,1.1806008470303113,Right,Correct,0.0,0.0,-45,45,2005,767,-0.82
"{'cat': 'RB', 'resp': 'reach'}",70,284,Left,36.32809818695971,72.32320990841455,1.8164049093479855,1.1360503246615385,Right,Incorrect,0.0,0.0,-45,45,2008,617,-0.81
"{'cat': 'RB', 'resp': 'reach'}",70,285,Right,52.16320902533188,35.113056698375615,2.6081604512665937,0.5515546048434936,Right,Correct,0.0,0.0,-45,45,2006,3454,1.01
"{'cat': 'RB', 'resp': 'reach'}",70,286,Right,63.495360442969485,77.53049172273597,3.1747680221484744,1.217846116126758,Right,Correct,0.0,0.0,-45,45,2001,592,-0.81
"{'cat': 'RB', 'resp': 'reach'}",70,287,Left,32.90010556579812,61.118036284807516,1.645005278289906,0.9600398689709285,Right,Incorrect,0.0,0.0,-45,45,2004,582,-0.87
"{'cat': 'RB', 'resp': 'reach'}",70,288,Right,65.02558142407031,41.862673426991066,3.2512790712035153,0.6575773364893188,Right,Correct,0.0,0.0,-45,45,2003,589,-0.84
"{'cat': 'RB', 'resp': 'reach'}",70,289,Right,53.41575087542405,33.39129163663833,2.670787543771203,0.5245091824976864,Right,Correct,0.0,0.0,-45,45,2012,609,-0.86
"{'cat': 'RB', 'resp': 'reach'}",70,290,Right,52.03984012683298,38.993108520744485,2.6019920063416486,0.6125023163470021,Right,Correct,0.0,0.0,-45,45,2005,592,-0.87
"{'cat': 'RB', 'resp': 'reach'}",70,291,Left,37.404659406520636,69.62086247024119,1.8702329703260319,1.0936019503654753,Right,Incorrect,0.0,0.0,-45,45,2008,569,-0.88
"{'cat': 'RB', 'resp': 'reach'}",70,292,Right,67.66446295707,67.18772051715224,3.3832231478534998,1.0553822459406486,Left,Incorrect,0.0,0.0,-45,45,2004,615,-2.28
"{'cat': 'RB', 'resp': 'reach'}",70,293,Left,48.59703085024966,40.44539566072979,2.429851542512483,0.6353147893964061,Left,Correct,0.0,0.0,-45,45,2001,657,-2.37
"{'cat': 'RB', 'resp': 'reach'}",70,294,Right,51.65063255271708,57.226108307953645,2.582531627635854,0.8989056072690049,Right,Correct,0.0,0.0,-45,45,2006,556,-0.86
"{'cat': 'RB', 'resp': 'reach'}",70,295,Right,62.16839864946529,76.79970655407166,3.1084199324732644,1.206366969540617,Right,Correct,0.0,0.0,-45,45,2009,592,-0.89
"{'cat': 'RB', 'resp': 'reach'}",70,296,Right,52.976232146941236,33.24350095402487,2.648811607347062,0.522187691883849,Right,Correct,0.0,0.0,-45,45,2001,689,-0.87
"{'cat': 'RB', 'resp': 'reach'}",70,297,Left,33.762423045233426,51.30629011488035,1.6881211522616713,0.8059173205392737,Right,Incorrect,0.0,0.0,-45,45,2004,686,-0.81
"{'cat': 'RB', 'resp': 'reach'}",70,298,Right,58.57441249004404,48.393653790524176,2.928720624502202,0.760165736143393,Right,Correct,0.0,0.0,-45,45,2011,592,-0.87
"{'cat': 'RB', 'resp': 'reach'}",70,299,Right,64.75985817489814,49.84544805404436,3.2379929087449066,0.7829704671073869,Left,Incorrect,0.0,0.0,-45,45,2001,634,-2.32
"{'cat': 'RB', 'resp': 'reach'}",70,300,Left,35.131068571572385,45.38552191784045,1.756553428578619,0.7129141111821305,Left,Correct,0.0,0.0,-45,45,2003,582,-2.4
"{'cat': 'RB', 'resp': 'reach'}",70,301,Left,38.14416086078482,66.94224451667547,1.9072080430392413,1.0515263179419962,Right,Incorrect,0.0,0.0,-45,45,2004,435,-0.78
"{'cat': 'RB', 'resp': 'reach'}",70,302,Left,31.272499792840165,41.34310529790696,1.5636249896420082,0.6494159794024688,Right,Incorrect,0.0,0.0,-45,45,2008,479,-0.83
"{'cat': 'RB', 'resp': 'reach'}",70,303,Left,40.02826094596338,33.27015575514345,2.0014130472981693,0.5226063845207342,Right,Incorrect,0.0,0.0,-45,45,2002,508,-0.89
"{'cat': 'RB', 'resp': 'reach'}",70,304,Left,32.44557458593193,57.88303119584093,1.6222787292965963,0.9092245278618134,Right,Incorrect,0.0,0.0,-45,45,2005,654,-0.87
"{'cat': 'RB', 'resp': 'reach'}",70,305,Left,32.323796360226154,35.59228093116665,1.6161898180113077,0.5590822414892861,Right,Incorrect,0.0,0.0,-45,45,2013,728,-0.81
"{'cat': 'RB', 'resp': 'reach'}",70,306,Left,38.26452607954221,54.54648420550071,1.9132263039771105,0.8568141702957633,Right,Incorrect,0.0,0.0,-45,45,2010,501,-0.79
"{'cat': 'RB', 'resp': 'reach'}",70,307,Right,63.44014052554112,66.66334561460673,3.172007026277056,1.0471453842328293,Right,Correct,0.0,0.0,-45,45,2001,424,-0.77
"{'cat': 'RB', 'resp': 'reach'}",70,308,Left,37.34591873718746,56.89081872046762,1.867295936859373,0.8936388907446486,Right,Incorrect,0.0,0.0,-45,45,2008,513,-0.85
"{'cat': 'RB', 'resp': 'reach'}",70,309,Right,53.896747839838596,30.474288122058592,2.69483739199193,0.47868899843818985,Right,Correct,0.0,0.0,-45,45,2002,487,-0.79
"{'cat': 'RB', 'resp': 'reach'}",70,310,Left,39.107268273954155,51.37089800085704,1.9553634136977078,0.8069321788390154,Left,Correct,0.0,0.0,-45,45,2001,528,-2.42
"{'cat': 'RB', 'resp': 'reach'}",70,311,Left,45.33444451231426,46.802386610999875,2.2667222256157133,0.7351701697379326,Left,Correct,0.0,0.0,-45,45,2006,572,-2.36
"{'cat': 'RB', 'resp': 'reach'}",70,312,Right,68.14076682885155,66.21280495210344,3.4070383414425778,1.0400683080555102,Left,Incorrect,0.0,0.0,-45,45,2009,640,-2.44
"{'cat': 'RB', 'resp': 'reach'}",70,313,Left,48.660858734670654,52.08259354759744,2.433042936733533,0.8181114663451764,Left,Correct,0.0,0.0,-45,45,2009,563,-2.4
"{'cat': 'RB', 'resp': 'reach'}",70,314,Right,58.46059244845183,60.899504299463096,2.9230296224225913,0.9566071765722663,Left,Incorrect,0.0,0.0,-45,45,2009,569,-2.36
"{'cat': 'RB', 'resp': 'reach'}",70,315,Right,64.31532780095947,72.25012456871605,3.2157663900479734,1.1349023028301288,Right,Correct,0.0,0.0,-45,45,2002,531,-0.79
"{'cat': 'RB', 'resp': 'reach'}",70,316,Right,55.994340303271606,81.7713946887057,2.7997170151635804,1.2844620641391462,Right,Correct,0.0,0.0,-45,45,2005,435,-0.81
"{'cat': 'RB', 'resp': 'reach'}",70,317,Right,60.678691960643334,33.313083884858116,3.033934598032167,0.523280698005454,Right,Correct,0.0,0.0,-45,45,2006,564,-0.97
"{'cat': 'RB', 'resp': 'reach'}",70,318,Left,45.04256745414503,65.36664660326309,2.2521283727072516,1.0267768837930578,Right,Incorrect,0.0,0.0,-45,45,2001,551,-0.73
"{'cat': 'RB', 'resp': 'reach'}",70,319,Left,33.762041890219365,69.60440797498423,1.6881020945109682,1.0933434837583862,Right,Incorrect,0.0,0.0,-45,45,2001,654,-0.79
"{'cat': 'RB', 'resp': 'reach'}",70,320,Right,63.227956829749544,32.59771141065658,3.161397841487477,0.5120436534577945,Right,Correct,0.0,0.0,-45,45,2004,443,-0.83
"{'cat': 'RB', 'resp': 'reach'}",70,321,Left,37.09051820031545,87.21857557595891,1.8545259100157725,1.3700261814299932,Left,Correct,0.0,0.0,-45,45,2004,585,-2.44
"{'cat': 'RB', 'resp': 'reach'}",70,322,Left,41.53429764385821,56.451841282109605,2.0767148821929107,0.8867434492674626,Left,Correct,0.0,0.0,-45,45,2007,742,-2.31
"{'cat': 'RB', 'resp': 'reach'}",70,323,Left,34.235066031684966,30.666517328993073,1.7117533015842483,0.4817085277597436,Left,Correct,0.0,0.0,-45,45,2002,605,-2.37
"{'cat': 'RB', 'resp': 'reach'}",70,324,Left,35.98889373047907,79.67198923152012,1.7994446865239535,1.2514846803331436,Left,Correct,0.0,0.0,-45,45,2008,605,-2.41
"{'cat': 'RB', 'resp': 'reach'}",70,325,Right,53.44805367526258,38.670909974409135,2.6724026837631287,0.6074412334161801,Left,Incorrect,0.0,0.0,-45,45,2001,574,-2.35
"{'cat': 'RB', 'resp': 'reach'}",70,326,Left,32.26713245695372,35.81752556614624,1.613356622847686,0.562620375941848,Left,Correct,0.0,0.0,-45,45,2011,593,-2.35
"{'cat': 'RB', 'resp': 'reach'}",70,327,Right,56.95348743730174,47.65680432073163,2.8476743718650868,0.7485913317378841,Right,Correct,0.0,0.0,-45,45,2012,489,-0.84
"{'cat': 'RB', 'resp': 'reach'}",70,328,Left,42.43124874543267,86.79652904800963,2.1215624372716335,1.3633966900716008,Right,Incorrect,0.0,0.0,-45,45,2003,465,-0.85
"{'cat': 'RB', 'resp': 'reach'}",70,329,Right,62.25577470819923,19.5564284045801,3.112788735409962,0.307191659031418,Right,Correct,0.0,0.0,-45,45,2006,498,-0.83
"{'cat': 'RB', 'resp': 'reach'}",70,330,Right,56.90432697255267,88.99110605019598,2.845216348627633,1.3978690250106294,Right,Correct,0.0,0.0,-45,45,2001,440,-0.86
"{'cat': 'RB', 'resp': 'reach'}",70,331,Left,32.99664799055159,57.3441984307208,1.6498323995275794,0.9007605625797391,Right,Incorrect,0.0,0.0,-45,45,2008,487,-0.82
"{'cat': 'RB', 'resp': 'reach'}",70,332,Right,56.68049921222868,59.41362146245222,2.8340249606114343,0.9332669835480238,Right,Correct,0.0,0.0,-45,45,2006,571,-0.83
"{'cat': 'RB', 'resp': 'reach'}",70,333,Right,65.30628370964831,18.285501835056024,3.2653141854824157,0.28722799116107345,Right,Correct,0.0,0.0,-45,45,2001,475,-0.81
"{'cat': 'RB', 'resp': 'reach'}",70,334,Left,37.90062794406057,75.80190036548724,1.8950313972030284,1.1906934665818008,Right,Incorrect,0.0,0.0,-45,45,2014,477,-0.82
"{'cat': 'RB', 'resp': 'reach'}",70,335,Left,45.096421741435535,62.7555430873219,2.2548210870717766,0.9857617656758411,Right,Incorrect,0.0,0.0,-45,45,2006,531,-0.81
"{'cat': 'RB', 'resp': 'reach'}",70,336,Left,36.01677130532703,23.913577132612126,1.8008385652663517,0.3756335912043356,Right,Incorrect,0.0,0.0,-45,45,2011,454,-0.82
"{'cat': 'RB', 'resp': 'reach'}",70,337,Left,39.00880370886118,58.55949347244412,1.950440185443059,0.9198503724548494,Left,Correct,0.0,0.0,-45,45,2009,577,-2.44
"{'cat': 'RB', 'resp': 'reach'}",70,338,Right,60.82368240503809,37.44593817082613,3.0411841202519048,0.588199421321225,Right,Correct,0.0,0.0,-45,45,2007,466,-0.76
"{'cat': 'RB', 'resp': 'reach'}",70,339,Left,41.64558671585956,56.14101366973752,2.082279335792978,0.8818609805496577,Right,Incorrect,0.0,0.0,-45,45,2012,730,-0.85
"{'cat': 'RB', 'resp': 'reach'}",70,340,Right,58.91067270684421,88.52168809433032,2.94553363534221,1.3904954250025758,Left,Incorrect,0.0,0.0,-45,45,2008,716,-2.33
"{'cat': 'RB', 'resp': 'reach'}",70,341,Left,42.13620852137697,60.36856282128174,2.1068104260688485,0.9482671673355632,Left,Correct,0.0,0.0,-45,45,2006,616,-2.37
"{'cat': 'RB', 'resp': 'reach'}",70,342,Right,66.54050661147183,63.62564987156108,3.327025330573591,0.9994293710818632,Left,Incorrect,0.0,0.0,-45,45,2011,2406,-2.49
"{'cat': 'RB', 'resp': 'reach'}",70,343,Right,60.690429909839445,14.00885814583664,3.034521495491972,0.22005062918070958,Left,Incorrect,0.0,0.0,-45,45,2009,581,-2.34
"{'cat': 'RB', 'resp': 'reach'}",70,344,Right,56.71821823192361,65.01586327642015,2.8359109115961805,1.0212667921799996,Right,Correct,0.0,0.0,-45,45,2001,517,-0.8
"{'cat': 'RB', 'resp': 'reach'}",70,345,Right,59.316141002434435,21.660043259583,2.9658070501217217,0.3402351639037154,Right,Correct,0.0,0.0,-45,45,2009,742,-0.83
"{'cat': 'RB', 'resp': 'reach'}",70,346,Left,38.70038158065196,15.029754935947118,1.9350190790325978,0.23608683846013198,Right,Incorrect,0.0,0.0,-45,45,2008,551,-0.77
"{'cat': 'RB', 'resp': 'reach'}",70,347,Right,57.23876648563033,53.916537414427296,2.8619383242815166,0.8469189892408202,Left,Incorrect,0.0,0.0,-45,45,2001,765,-2.37
"{'cat': 'RB', 'resp': 'reach'}",70,348,Left,36.555028628022676,72.13508234032574,1.8277514314011338,1.1330952237323109,Right,Incorrect,0.0,0.0,-45,45,2006,489,-0.77
"{'cat': 'RB', 'resp': 'reach'}",70,349,Right,54.62539716979495,68.41985930702518,2.7312698584897475,1.0747366367929876,Right,Correct,0.0,0.0,-45,45,2004,4063,1.57
"{'cat': 'RB', 'resp': 'reach'}",70,350,Left,36.33219951087086,71.9550638383447,1.8166099755435428,1.1302674997156414,Right,Incorrect,0.0,0.0,-45,45,2013,498,-0.69
"{'cat': 'RB', 'resp': 'reach'}",70,351,Left,37.04337992523621,51.48930950896561,1.8521689962618104,0.8087921824588872,Right,Incorrect,0.0,0.0,-45,45,2007,689,-0.84
"{'cat': 'RB', 'resp': 'reach'}",70,352,Left,39.47366473341844,17.49168158947611,1.973683236670922,0.27475869190214985,Left,Correct,0.0,0.0,-45,45,2002,666,-2.35
"{'cat': 'RB', 'resp': 'reach'}",70,353,Right,63.32297973895709,41.61248447533296,3.1661489869478543,0.6536473776266267,Right,Correct,0.0,0.0,-45,45,2002,685,-0.78
"{'cat': 'RB', 'resp': 'reach'}",70,354,Left,35.7948984608245,31.86829363411027,1.789744923041225,0.500585985816816,Right,Incorrect,0.0,0.0,-45,45,2011,634,-0.85
"{'cat': 'RB', 'resp': 'reach'}",70,355,Right,62.72867803857149,49.038085391144136,3.1364339019285747,0.770288444054637,Right,Correct,0.0,0.0,-45,45,2012,507,-0.88
"{'cat': 'RB', 'resp': 'reach'}",70,356,Left,39.69792708323019,12.991392100723793,1.9848963541615094,0.2040683099176917,Right,Incorrect,0.0,0.0,-45,45,2006,469,-0.85
"{'cat': 'RB', 'resp': 'reach'}",70,357,Right,55.93622174496281,22.206390372606993,2.7968110872481406,0.34881716428664616,Left,Incorrect,0.0,0.0,-45,45,2006,626,-2.31
"{'cat': 'RB', 'resp': 'reach'}",70,358,Left,37.49069510318395,42.264355359702115,1.8745347551591975,0.6638869415337428,Right,Incorrect,0.0,0.0,-45,45,2008,615,-0.81
"{'cat': 'RB', 'resp': 'reach'}",70,359,Right,67.06477071882654,72.58346713676974,3.353238535941327,1.14013843564476,Right,Correct,0.0,0.0,-45,45,2001,573,-0.82
"{'cat': 'RB', 'resp': 'reach'}",70,360,Right,51.21269148673176,46.45024833763281,2.5606345743365875,0.7296387946746437,Right,Correct,0.0,0.0,-45,45,2001,540,-0.89
"{'cat': 'RB', 'resp': 'reach'}",70,361,Left,35.30595882434201,63.3766780987666,1.7652979412171004,0.9955185316200514,Left,Correct,0.0,0.0,-45,45,2003,510,-2.25
"{'cat': 'RB', 'resp': 'reach'}",70,362,Left,44.550730679511645,38.46950667557898,2.227536533975582,0.6042775977961121,Left,Correct,0.0,0.0,-45,45,2003,478,-2.41
"{'cat': 'RB', 'resp': 'reach'}",70,363,Right,61.77217637365385,27.215901797408733,3.0886088186826925,0.42750638573780264,Left,Incorrect,0.0,0.0,-45,45,2006,634,-2.32
"{'cat': 'RB', 'resp': 'reach'}",70,364,Left,46.38847460039687,79.32932243495324,2.3194237300198437,1.246102082879525,Right,Incorrect,0.0,0.0,-45,45,2007,602,-0.83
"{'cat': 'RB', 'resp': 'reach'}",70,365,Right,55.55681116297173,45.45180181734059,2.7778405581485863,0.7139552334088819,Right,Correct,0.0,0.0,-45,45,2005,526,-0.8
"{'cat': 'RB', 'resp': 'reach'}",70,366,Left,39.71873431163195,23.41677140043199,1.9859367155815975,0.3678297850119436,Right,Incorrect,0.0,0.0,-45,45,2006,443,-0.85
"{'cat': 'RB', 'resp': 'reach'}",70,367,Left,42.7176944794805,28.830611417068397,2.1358847239740246,0.4528701851318205,Left,Correct,0.0,0.0,-45,45,2006,586,-2.3
"{'cat': 'RB', 'resp': 'reach'}",70,368,Right,63.30532774317791,44.14067148785954,3.165266387158896,0.6933600463538999,Right,Correct,0.0,0.0,-45,45,2001,624,-0.84
"{'cat': 'RB', 'resp': 'reach'}",70,369,Right,59.48798989963028,50.37059750989364,2.974399494981514,0.791219495470051,Right,Correct,0.0,0.0,-45,45,2005,541,-0.88
"{'cat': 'RB', 'resp': 'reach'}",70,370,Left,41.54200847028359,66.99742362821985,2.0771004235141795,1.0523930693992936,Right,Incorrect,0.0,0.0,-45,45,2001,475,-0.86
"{'cat': 'RB', 'resp': 'reach'}",70,371,Left,36.024207959777875,78.74107073027547,1.8012103979888936,1.2368618467101384,Left,Correct,0.0,0.0,-45,45,2011,572,-2.35
"{'cat': 'RB', 'resp': 'reach'}",70,372,Left,35.019228693295624,62.37322554012787,1.750961434664781,0.9797563356878247,Right,Incorrect,0.0,0.0,-45,45,2007,467,-0.83
"{'cat': 'RB', 'resp': 'reach'}",70,373,Left,45.9205038032822,36.04722514312155,2.29602519016411,0.5662284884596398,Left,Correct,0.0,0.0,-45,45,2003,655,-2.32
"{'cat': 'RB', 'resp': 'reach'}",70,374,Left,40.95128899441272,88.85400107267739,2.0475644497206362,1.3957153850599144,Left,Correct,0.0,0.0,-45,45,2002,400,-2.3
"{'cat': 'RB', 'resp': 'reach'}",70,375,Left,41.17129955384201,72.33895134269292,2.0585649776921007,1.136297590532968,Left,Correct,0.0,0.0,-45,45,2006,538,-2.32
"{'cat': 'RB', 'resp': 'reach'}",70,376,Left,45.096264992034236,63.101353586164244,2.2548132496017117,0.9911937442893276,Left,Correct,0.0,0.0,-45,45,2007,488,-2.36
"{'cat': 'RB', 'resp': 'reach'}",70,377,Right,57.96158153577313,86.44137818587384,2.8980790767886564,1.3578179933745913,Right,Correct,0.0,0.0,-45,45,2001,499,-0.83
"{'cat': 'RB', 'resp': 'reach'}",70,378,Left,39.24488912529372,54.10309146028446,1.962244456264686,0.8498493733406316,Right,Incorrect,0.0,0.0,-45,45,2002,547,-0.86
"{'cat': 'RB', 'resp': 'reach'}",70,379,Left,36.650508793920295,62.60388064206451,1.8325254396960147,0.9833794575566106,Left,Correct,0.0,0.0,-45,45,2005,696,-2.26
"{'cat': 'RB', 'resp': 'reach'}",70,380,Left,36.14484270596421,41.82640220750173,1.8072421352982104,0.6570075895058967,Left,Correct,0.0,0.0,-45,45,2008,571,-2.4
"{'cat': 'RB', 'resp': 'reach'}",70,381,Right,52.5083425124452,70.68974887162156,2.62541712562226,1.1103919786959684,Right,Correct,0.0,0.0,-45,45,2008,520,-0.82
"{'cat': 'RB', 'resp': 'reach'}",70,382,Right,58.244988108993674,14.982987334293703,2.9122494054496837,0.23535221469123008,Right,Correct,0.0,0.0,-45,45,2004,488,-0.8
"{'cat': 'RB', 'resp': 'reach'}",70,383,Left,43.470315849310865,81.73507304965051,2.173515792465543,1.2838915251670355,Right,Incorrect,0.0,0.0,-45,45,2004,407,-0.75
"{'cat': 'RB', 'resp': 'reach'}",70,384,Right,63.5350460159553,34.04416857775744,3.176752300797765,0.5347645495072763,Left,Incorrect,0.0,0.0,-45,45,2008,553,-2.25
"{'cat': 'RB', 'resp': 'reach'}",70,385,Right,63.38883943683929,49.9594203159947,3.1694419718419646,0.7847607392116681,Left,Incorrect,0.0,0.0,-45,45,2004,517,-2.23
"{'cat': 'RB', 'resp': 'reach'}",70,386,Left,41.4168578960854,76.08266099958476,2.07084289480427,1.1951036443092908,Right,Incorrect,0.0,0.0,-45,45,2002,498,-0.83
"{'cat': 'RB', 'resp': 'reach'}",70,387,Right,63.962858082528825,15.931070029764982,3.1981429041264415,0.25024466284667096,Right,Correct,0.0,0.0,-45,45,2004,381,-0.75
"{'cat': 'RB', 'resp': 'reach'}",70,388,Left,44.75836358278429,50.60155000622129,2.2379181791392146,0.7948472887990068,Right,Incorrect,0.0,0.0,-45,45,2002,424,-0.8
"{'cat': 'RB', 'resp': 'reach'}",70,389,Right,67.29568720391724,55.37844361713983,3.364784360195862,0.8698825581742153,Right,Correct,0.0,0.0,-45,45,2003,668,-0.95
"{'cat': 'RB', 'resp': 'reach'}",70,390,Left,34.13726135986999,58.235391186656116,1.7068630679934995,0.9147593856546332,Right,Incorrect,0.0,0.0,-45,45,2006,499,-0.84
"{'cat': 'RB', 'resp': 'reach'}",70,391,Right,63.26445080083371,26.083974794081556,3.1632225400416853,0.40972611794753977,Right,Correct,0.0,0.0,-45,45,2011,456,-0.84
"{'cat': 'RB', 'resp': 'reach'}",70,392,Left,48.874698779651794,37.35497030118577,2.4437349389825895,0.5867705013663506,Right,Incorrect,0.0,0.0,-45,45,2007,508,-0.84
"{'cat': 'RB', 'resp': 'reach'}",70,393,Left,33.76607028534123,23.28061976045713,1.6883035142670615,0.36569112005234744,Right,Incorrect,0.0,0.0,-45,45,2002,445,-0.82
"{'cat': 'RB', 'resp': 'reach'}",70,394,Right,61.486912239724404,12.643933528755134,3.07434561198622,0.19861044343207404,Right,Correct,0.0,0.0,-45,45,2003,572,-0.83
"{'cat': 'RB', 'resp': 'reach'}",70,395,Right,54.814116195180226,24.423501867546747,2.740705809759011,0.3836434702101073,Right,Correct,0.0,0.0,-45,45,2011,444,-0.8
"{'cat': 'RB', 'resp': 'reach'}",70,396,Right,52.7839997251001,55.0962126156041,2.6391999862550053,0.8654492839690155,Right,Correct,0.0,0.0,-45,45,2007,574,-0.83
"{'cat': 'RB', 'resp': 'reach'}",70,397,Right,64.95147263200917,26.020999873213164,3.2475736316004586,0.40873691020373704,Right,Correct,0.0,0.0,-45,45,2010,539,-0.88
"{'cat': 'RB', 'resp': 'reach'}",70,398,Right,57.409489798359964,12.517033039723358,2.870474489917998,0.19661709521167808,Right,Correct,0.0,0.0,-45,45,2004,555,-0.81
"{'cat': 'RB', 'resp': 'reach'}",70,399,Right,66.67342901858655,76.72047153510013,3.3336714509293275,1.2051223487730771,Left,Incorrect,0.0,0.0,-45,45,2001,551,-2.32
