condition,subject,trial,cat,x,y,xt,yt,resp,fb,rotation,su,target_angle_left,target_angle_right,rt,mt,ep
"{'cat': 'II', 'resp': 'reach'}",32,0,Left,38.3506180580902,48.51459676334562,1.9175309029045098,0.762065503917989,Right,Incorrect,0.0,0.0,-45,45,2013,6283,-0.78
"{'cat': 'II', 'resp': 'reach'}",32,1,Left,63.321995635267896,82.97842616424012,3.166099781763395,1.3034220702200991,Right,Incorrect,0.0,0.0,-45,45,2007,1807,-0.76
"{'cat': 'II', 'resp': 'reach'}",32,2,Right,86.72838518384803,58.78345838955751,4.336419259192402,0.9233684051461759,Left,Incorrect,0.0,0.0,-45,45,2009,1031,-2.7
"{'cat': 'II', 'resp': 'reach'}",32,3,Left,21.12744226383277,42.08176528861082,1.0563721131916384,0.6610188234039486,Right,Incorrect,0.0,0.0,-45,45,2001,1821,-0.8
"{'cat': 'II', 'resp': 'reach'}",32,4,Right,72.45442046075468,60.24285410128809,3.6227210230377342,0.946292539379442,Right,Correct,0.0,0.0,-45,45,2001,649,-0.92
"{'cat': 'II', 'resp': 'reach'}",32,5,Right,71.69756254423724,61.65195183612782,3.584878127211862,0.9684265948392548,Right,Correct,0.0,0.0,-45,45,2003,3536,-0.76
"{'cat': 'II', 'resp': 'reach'}",32,6,Left,17.695068098551303,47.93934840670854,0.8847534049275652,0.7530295238619855,Right,Incorrect,0.0,0.0,-45,45,2005,1740,-0.8
"{'cat': 'II', 'resp': 'reach'}",32,7,Left,60.52361414922936,70.10913589345982,3.026180707461468,1.1012717313621092,Left,Correct,0.0,0.0,-45,45,2008,4212,-2.62
"{'cat': 'II', 'resp': 'reach'}",32,8,Right,42.20921708794721,18.000793571244472,2.11046085439736,0.2827558042110401,Left,Incorrect,0.0,0.0,-45,45,2003,2921,-2.52
"{'cat': 'II', 'resp': 'reach'}",32,9,Right,59.473164106232545,27.348148635690382,2.9736582053116276,0.4295837142158332,Left,Incorrect,0.0,0.0,-45,45,2003,1086,-2.5
"{'cat': 'II', 'resp': 'reach'}",32,10,Right,59.609394113637144,52.32740379710781,2.980469705681857,0.8219569367521028,Right,Correct,0.0,0.0,-45,45,2001,455,-0.85
"{'cat': 'II', 'resp': 'reach'}",32,11,Right,52.84933003217991,44.70849801170749,2.6424665016089954,0.7022794445330707,Right,Correct,0.0,0.0,-45,45,2002,573,-0.82
"{'cat': 'II', 'resp': 'reach'}",32,12,Right,35.10873968399787,23.417435616034098,1.7554369841998934,0.3678402184862235,Left,Incorrect,0.0,0.0,-45,45,2001,662,-2.44
"{'cat': 'II', 'resp': 'reach'}",32,13,Right,49.25907272750284,29.165102204940766,2.4629536363751416,0.4581243541411869,Right,Correct,0.0,0.0,-45,45,2014,493,-0.79
"{'cat': 'II', 'resp': 'reach'}",32,14,Left,18.979496565891314,40.242437645912915,0.9489748282945656,0.6321267323547267,Right,Incorrect,0.0,0.0,-45,45,2002,1186,-0.79
"{'cat': 'II', 'resp': 'reach'}",32,15,Left,25.90006950573396,55.12639697445365,1.2950034752866981,0.8659234187690908,Right,Incorrect,0.0,0.0,-45,45,2007,831,-0.83
"{'cat': 'II', 'resp': 'reach'}",32,16,Left,10.274367728123654,32.785248918974915,0.5137183864061826,0.5149894857498215,Left,Correct,0.0,0.0,-45,45,2004,779,-2.51
"{'cat': 'II', 'resp': 'reach'}",32,17,Left,46.361880937173524,63.34744503960345,2.318094046858676,0.9950593398005069,Left,Correct,0.0,0.0,-45,45,2011,912,-2.45
"{'cat': 'II', 'resp': 'reach'}",32,18,Left,40.15157861892706,57.68287082101091,2.007578930946353,0.9060804160462845,Left,Correct,0.0,0.0,-45,45,2009,670,-2.47
"{'cat': 'II', 'resp': 'reach'}",32,19,Right,46.42150770357329,23.58083570746632,2.3210753851786645,0.37040690112042035,Left,Incorrect,0.0,0.0,-45,45,2003,675,-2.53
"{'cat': 'II', 'resp': 'reach'}",32,20,Left,67.02457148590649,80.24755071054604,3.351228574295325,1.2605255789041292,Right,Incorrect,0.0,0.0,-45,45,2005,492,-0.97
"{'cat': 'II', 'resp': 'reach'}",32,21,Left,42.90303396629504,56.6928547412839,2.145151698314752,0.8905292798312539,Left,Correct,0.0,0.0,-45,45,2006,644,-2.76
"{'cat': 'II', 'resp': 'reach'}",32,22,Left,35.64266811526837,62.59544579269371,1.7821334057634186,0.9832469632525235,Right,Incorrect,0.0,0.0,-45,45,2001,801,-0.96
"{'cat': 'II', 'resp': 'reach'}",32,23,Right,57.662723750379364,40.168174087860976,2.883136187518968,0.6309602031126996,Left,Incorrect,0.0,0.0,-45,45,2002,1217,-2.58
"{'cat': 'II', 'resp': 'reach'}",32,24,Left,50.61659674875562,80.94727249190686,2.530829837437781,1.2715167829435288,Right,Incorrect,0.0,0.0,-45,45,2013,606,-0.94
"{'cat': 'II', 'resp': 'reach'}",32,25,Right,41.25545215199725,27.098654908251874,2.0627726075998623,0.42566467590964535,Right,Correct,0.0,0.0,-45,45,2014,545,-0.91
"{'cat': 'II', 'resp': 'reach'}",32,26,Left,27.336149909340783,59.19400829948581,1.366807495467039,0.9298173080509893,Right,Incorrect,0.0,0.0,-45,45,2001,2812,-0.95
"{'cat': 'II', 'resp': 'reach'}",32,27,Left,44.46959261818478,65.24928224461182,2.223479630909239,1.0249333287583973,Left,Correct,0.0,0.0,-45,45,2009,1047,-2.56
"{'cat': 'II', 'resp': 'reach'}",32,28,Right,36.184583114111874,23.655548294693073,1.8092291557055937,0.37158048369623164,Left,Incorrect,0.0,0.0,-45,45,2002,1243,-2.53
"{'cat': 'II', 'resp': 'reach'}",32,29,Left,37.106870390461594,68.58691190794919,1.8553435195230799,1.0773606929121173,Right,Incorrect,0.0,0.0,-45,45,2010,4645,-0.83
"{'cat': 'II', 'resp': 'reach'}",32,30,Left,23.0451103096952,51.53245454428793,1.15225551548476,0.8094699030889245,Right,Incorrect,0.0,0.0,-45,45,2003,1514,-0.93
"{'cat': 'II', 'resp': 'reach'}",32,31,Right,39.187100900273826,22.92913334316291,1.9593550450136914,0.3601699843203069,Right,Correct,0.0,0.0,-45,45,2013,1170,-0.93
"{'cat': 'II', 'resp': 'reach'}",32,32,Right,47.22047353693651,22.844595664738755,2.3610236768468256,0.3588420695728626,Right,Correct,0.0,0.0,-45,45,2005,919,-0.99
"{'cat': 'II', 'resp': 'reach'}",32,33,Left,53.0493243930354,78.51103621266915,2.6524662196517697,1.2332484729572182,Right,Incorrect,0.0,0.0,-45,45,2004,999,-0.98
"{'cat': 'II', 'resp': 'reach'}",32,34,Right,59.39582037940572,43.88071436106333,2.969791018970286,0.6892766493549435,Right,Correct,0.0,0.0,-45,45,2008,1037,-0.95
"{'cat': 'II', 'resp': 'reach'}",32,35,Left,24.705713816279832,45.313819256224164,1.2352856908139915,0.7117878084072475,Left,Correct,0.0,0.0,-45,45,2005,1882,-2.61
"{'cat': 'II', 'resp': 'reach'}",32,36,Right,46.71352443778442,19.425868828747582,2.335676221889221,0.3051408340099618,Right,Correct,0.0,0.0,-45,45,2010,945,-0.88
"{'cat': 'II', 'resp': 'reach'}",32,37,Right,64.51225630132882,49.30682634496934,3.225612815066441,0.7745098170859167,Right,Correct,0.0,0.0,-45,45,2003,2155,-0.88
"{'cat': 'II', 'resp': 'reach'}",32,38,Left,33.09882582067273,50.24813374722402,1.6549412910336365,0.7892958391843816,Left,Correct,0.0,0.0,-45,45,2001,1402,-2.54
"{'cat': 'II', 'resp': 'reach'}",32,39,Right,33.06423330545388,14.654657309477184,1.653211665272694,0.23019481872164743,Left,Incorrect,0.0,0.0,-45,45,2006,1428,-2.56
"{'cat': 'II', 'resp': 'reach'}",32,40,Left,26.638271027279256,55.563237682269374,1.3319135513639628,0.8727852965614051,Left,Correct,0.0,0.0,-45,45,2002,1062,-2.56
"{'cat': 'II', 'resp': 'reach'}",32,41,Left,68.27788716826085,88.730861941766,3.4138943584130423,1.3937811201147112,Right,Incorrect,0.0,0.0,-45,45,2011,910,-0.8
"{'cat': 'II', 'resp': 'reach'}",32,42,Right,83.42350158549928,55.54968765928132,4.171175079274963,0.8725724532980288,Right,Correct,0.0,0.0,-45,45,2005,1029,-0.89
"{'cat': 'II', 'resp': 'reach'}",32,43,Right,44.95387107954879,21.147567748243617,2.2476935539774394,0.332185217395873,Right,Correct,0.0,0.0,-45,45,2009,1147,-0.9
"{'cat': 'II', 'resp': 'reach'}",32,44,Right,62.98686758117066,46.5801645874472,3.149343379058533,0.7316795143546378,Right,Correct,0.0,0.0,-45,45,2010,890,-0.95
"{'cat': 'II', 'resp': 'reach'}",32,45,Left,46.44221513067474,61.2874756375609,2.3221107565337373,0.9627014161001238,Right,Incorrect,0.0,0.0,-45,45,2005,1562,-0.88
"{'cat': 'II', 'resp': 'reach'}",32,46,Left,25.554995307052987,51.74990846476581,1.2777497653526495,0.8128856612842625,Left,Correct,0.0,0.0,-45,45,2010,773,-2.51
"{'cat': 'II', 'resp': 'reach'}",32,47,Left,37.39232136942705,58.94040010790158,1.8696160684713528,0.9258336398931333,Left,Correct,0.0,0.0,-45,45,2009,724,-2.56
"{'cat': 'II', 'resp': 'reach'}",32,48,Right,48.85747249766707,24.017321733170284,2.442873624883353,0.37726320757915116,Left,Incorrect,0.0,0.0,-45,45,2001,1918,-2.52
"{'cat': 'II', 'resp': 'reach'}",32,49,Right,80.37291354205607,56.5675351864581,4.018645677102803,0.8885607648672945,Right,Correct,0.0,0.0,-45,45,2013,954,-0.86
"{'cat': 'II', 'resp': 'reach'}",32,50,Right,39.03588526462272,21.13536317670917,1.951794263231136,0.3319935084345088,Left,Incorrect,0.0,0.0,-45,45,2007,1781,-2.43
"{'cat': 'II', 'resp': 'reach'}",32,51,Right,51.28582371660268,26.57862526699398,2.5642911858301343,0.4174960694065218,Right,Correct,0.0,0.0,-45,45,2010,816,-0.84
"{'cat': 'II', 'resp': 'reach'}",32,52,Right,46.929981886387054,18.09728805277143,2.346499094319353,0.28427153598242527,Right,Correct,0.0,0.0,-45,45,2004,879,-0.88
"{'cat': 'II', 'resp': 'reach'}",32,53,Left,38.854777372134556,71.3526113263746,1.9427388686067277,1.1208041977869314,Left,Correct,0.0,0.0,-45,45,2008,1010,-2.58
"{'cat': 'II', 'resp': 'reach'}",32,54,Right,36.28008460253825,19.355143350627163,1.8140042301269126,0.3040298807975381,Left,Incorrect,0.0,0.0,-45,45,2005,913,-2.72
"{'cat': 'II', 'resp': 'reach'}",32,55,Left,57.332531327811154,79.29632305736338,2.8666265663905572,1.2455837298684784,Left,Correct,0.0,0.0,-45,45,2007,1052,-2.49
"{'cat': 'II', 'resp': 'reach'}",32,56,Left,63.995854276840404,80.96183453343772,3.1997927138420206,1.2717455229570018,Right,Incorrect,0.0,0.0,-45,45,2006,1108,-0.87
"{'cat': 'II', 'resp': 'reach'}",32,57,Right,42.50342944390697,19.15543412088065,2.125171472195348,0.3008928555524095,Left,Incorrect,0.0,0.0,-45,45,2008,774,-2.5
"{'cat': 'II', 'resp': 'reach'}",32,58,Left,60.08721346241684,72.82719599586876,3.0043606731208423,1.1439669196108266,Right,Incorrect,0.0,0.0,-45,45,2004,997,-0.85
"{'cat': 'II', 'resp': 'reach'}",32,59,Right,58.35681314205448,46.69215522096025,2.917840657102724,0.7334386591122151,Right,Correct,0.0,0.0,-45,45,2006,1204,-0.93
"{'cat': 'II', 'resp': 'reach'}",32,60,Left,23.941565324630275,47.60712800042401,1.1970782662315138,0.747811017923205,Left,Correct,0.0,0.0,-45,45,2008,1148,-2.57
"{'cat': 'II', 'resp': 'reach'}",32,61,Left,54.470597710195605,68.7481170041775,2.7235298855097803,1.0798928966422778,Right,Incorrect,0.0,0.0,-45,45,2006,1014,-0.85
"{'cat': 'II', 'resp': 'reach'}",32,62,Left,65.51290216144031,87.41149421499085,3.2756451080720153,1.3730565403256096,Right,Incorrect,0.0,0.0,-45,45,2008,2003,-0.87
"{'cat': 'II', 'resp': 'reach'}",32,63,Left,35.47408788069373,60.59223389517075,1.7737043940346866,0.9517805843483144,Left,Correct,0.0,0.0,-45,45,2005,1318,-2.57
"{'cat': 'II', 'resp': 'reach'}",32,64,Right,37.73771964931602,18.645101923325136,1.886885982465801,0.29287657613875584,Left,Incorrect,0.0,0.0,-45,45,2006,783,-2.52
"{'cat': 'II', 'resp': 'reach'}",32,65,Right,56.28460103212123,27.94837964840387,2.814230051606062,0.4390121209158204,Right,Correct,0.0,0.0,-45,45,2002,1629,-0.8
"{'cat': 'II', 'resp': 'reach'}",32,66,Right,59.69410639360856,51.98843523182512,2.984705319680428,0.8166324309796529,Right,Correct,0.0,0.0,-45,45,2005,700,-0.89
"{'cat': 'II', 'resp': 'reach'}",32,67,Right,75.67158044504842,62.47244165945784,3.7835790222524213,0.9813148188458486,Right,Correct,0.0,0.0,-45,45,2013,734,-0.89
"{'cat': 'II', 'resp': 'reach'}",32,68,Left,12.002798692221319,35.51901266701187,0.600139934611066,0.5579313462872364,Left,Correct,0.0,0.0,-45,45,2010,1025,-2.65
"{'cat': 'II', 'resp': 'reach'}",32,69,Right,77.17728252470486,44.998271810042795,3.858864126235243,0.7068312007133357,Right,Correct,0.0,0.0,-45,45,2005,1028,-0.94
"{'cat': 'II', 'resp': 'reach'}",32,70,Left,42.70828609075199,65.70979402568484,2.1354143045375995,1.03216703089995,Right,Incorrect,0.0,0.0,-45,45,2009,2425,-0.88
"{'cat': 'II', 'resp': 'reach'}",32,71,Left,46.09813685748639,63.43675436087277,2.3049068428743196,0.9964622073384908,Left,Correct,0.0,0.0,-45,45,2008,950,-2.51
"{'cat': 'II', 'resp': 'reach'}",32,72,Right,34.13702314130398,11.415950289462195,1.706851157065199,0.17932132781560356,Left,Incorrect,0.0,0.0,-45,45,2006,889,-2.55
"{'cat': 'II', 'resp': 'reach'}",32,73,Left,15.365509814687126,34.126536583883464,0.7682754907343563,0.536058383121958,Right,Incorrect,0.0,0.0,-45,45,2002,837,-0.83
"{'cat': 'II', 'resp': 'reach'}",32,74,Left,36.429952950950586,59.01650940208657,1.8214976475475293,0.9270291618905405,Left,Correct,0.0,0.0,-45,45,2002,1031,-2.61
"{'cat': 'II', 'resp': 'reach'}",32,75,Left,56.59218195310646,72.86261445039852,2.829609097655323,1.1445232713935876,Left,Correct,0.0,0.0,-45,45,2005,1523,-2.55
"{'cat': 'II', 'resp': 'reach'}",32,76,Right,49.41912738431109,18.93077720908745,2.4709563692155543,0.29736395303407104,Right,Correct,0.0,0.0,-45,45,2012,1274,-0.85
"{'cat': 'II', 'resp': 'reach'}",32,77,Right,43.36470291652114,31.465455573589573,2.168235145826057,0.49425822035922506,Left,Incorrect,0.0,0.0,-45,45,2007,1874,-2.65
"{'cat': 'II', 'resp': 'reach'}",32,78,Right,52.966083280695145,35.77691044292587,2.6483041640347573,0.5619823950781793,Right,Correct,0.0,0.0,-45,45,2003,719,-0.85
"{'cat': 'II', 'resp': 'reach'}",32,79,Left,40.8288430114326,61.17191613969858,2.0414421505716303,0.9608862117524397,Left,Correct,0.0,0.0,-45,45,2004,1070,-2.6
"{'cat': 'II', 'resp': 'reach'}",32,80,Right,83.66292461400582,64.89037168388445,4.183146230700291,1.0192955748540127,Right,Correct,0.0,0.0,-45,45,2007,3416,-0.8
"{'cat': 'II', 'resp': 'reach'}",32,81,Left,38.375001193904474,46.602036766160204,1.9187500596952236,0.7320230817344517,Left,Correct,0.0,0.0,-45,45,2005,4041,-2.59
"{'cat': 'II', 'resp': 'reach'}",32,82,Right,73.23960428186015,55.16233273136933,3.6619802140930076,0.8664878963187284,Right,Correct,0.0,0.0,-45,45,2005,941,-0.78
"{'cat': 'II', 'resp': 'reach'}",32,83,Right,58.05577566959065,29.387434895978576,2.9027887834795325,0.46161674788527307,Right,Correct,0.0,0.0,-45,45,2004,745,-0.89
"{'cat': 'II', 'resp': 'reach'}",32,84,Left,33.58383447297533,62.851501650350414,1.6791917236487666,0.987269079259138,Right,Incorrect,0.0,0.0,-45,45,2009,852,-0.93
"{'cat': 'II', 'resp': 'reach'}",32,85,Left,62.53446037016889,73.61096073370521,3.1267230185084443,1.1562782673234753,Left,Correct,0.0,0.0,-45,45,2014,2078,-2.56
"{'cat': 'II', 'resp': 'reach'}",32,86,Right,46.76726258474082,20.662444858689295,2.338363129237041,0.3245649248663124,Left,Incorrect,0.0,0.0,-45,45,2001,1725,-2.45
"{'cat': 'II', 'resp': 'reach'}",32,87,Left,54.731789056968665,78.69162573169021,2.736589452848433,1.2360851664885775,Right,Incorrect,0.0,0.0,-45,45,2007,1225,-0.9
"{'cat': 'II', 'resp': 'reach'}",32,88,Right,75.84763306084616,63.82114490986456,3.7923816530423085,1.0025001999626006,Right,Correct,0.0,0.0,-45,45,2001,1581,-0.94
"{'cat': 'II', 'resp': 'reach'}",32,89,Left,41.08256713510603,59.44642177579122,2.0541283567553017,0.9337822096651299,Left,Correct,0.0,0.0,-45,45,2007,1102,-2.29
"{'cat': 'II', 'resp': 'reach'}",32,90,Right,52.005549785615145,39.67997858457659,2.600277489280757,0.6232916460795305,Left,Incorrect,0.0,0.0,-45,45,2002,1921,-2.57
"{'cat': 'II', 'resp': 'reach'}",32,91,Left,58.669225460832585,86.50849197802685,2.933461273041629,1.3588722143565035,Left,Correct,0.0,0.0,-45,45,2005,894,-2.53
"{'cat': 'II', 'resp': 'reach'}",32,92,Left,47.03162645647211,57.485598412806475,2.3515813228236055,0.9029816683044294,Left,Correct,0.0,0.0,-45,45,2013,1006,-2.65
"{'cat': 'II', 'resp': 'reach'}",32,93,Right,62.990649971644295,46.333237843259916,3.1495324985822144,0.7278007981270698,Left,Incorrect,0.0,0.0,-45,45,2011,869,-2.6
"{'cat': 'II', 'resp': 'reach'}",32,94,Right,68.34604205348302,41.90018044161616,3.417302102674151,0.6581664952973402,Right,Correct,0.0,0.0,-45,45,2013,767,-0.82
"{'cat': 'II', 'resp': 'reach'}",32,95,Right,87.17196280690497,66.94101448455878,4.358598140345248,1.0515069966426889,Right,Correct,0.0,0.0,-45,45,2013,1093,-0.93
"{'cat': 'II', 'resp': 'reach'}",32,96,Left,47.617173748068765,73.77753940328954,2.380858687403438,1.1588948789465294,Left,Correct,0.0,0.0,-45,45,2009,1017,-2.54
"{'cat': 'II', 'resp': 'reach'}",32,97,Right,71.56304746052515,43.352623510234686,3.5781523730262577,0.6809814176679873,Right,Correct,0.0,0.0,-45,45,2006,1074,-0.9
"{'cat': 'II', 'resp': 'reach'}",32,98,Right,67.16108115383582,54.69318136864685,3.358054057691791,0.8591184839459753,Right,Correct,0.0,0.0,-45,45,2012,1071,-1.03
"{'cat': 'II', 'resp': 'reach'}",32,99,Right,46.708875820936456,32.06792945710255,2.3354437910468224,0.5037218579913455,Left,Incorrect,0.0,0.0,-45,45,2002,1836,-2.49
"{'cat': 'II', 'resp': 'reach'}",32,100,Right,55.631965948248684,36.14397027005786,2.781598297412434,0.5677481573599082,Right,Correct,0.0,0.0,-45,45,2001,947,-0.88
"{'cat': 'II', 'resp': 'reach'}",32,101,Left,69.87532165139123,86.46066534108594,3.493766082569562,1.358120955300206,Right,Incorrect,0.0,0.0,-45,45,2003,1298,-0.98
"{'cat': 'II', 'resp': 'reach'}",32,102,Right,41.89266526033067,22.747278448880127,2.0946332630165334,0.3573134143208162,Left,Incorrect,0.0,0.0,-45,45,2009,1742,-2.66
"{'cat': 'II', 'resp': 'reach'}",32,103,Right,67.03074372142532,48.24230875254402,3.3515371860712664,0.7577884138460145,Right,Correct,0.0,0.0,-45,45,2001,998,-0.77
"{'cat': 'II', 'resp': 'reach'}",32,104,Left,35.50146970451359,55.34316377782619,1.7750734852256795,0.8693283837541775,Left,Correct,0.0,0.0,-45,45,2007,918,-2.63
"{'cat': 'II', 'resp': 'reach'}",32,105,Right,73.04293882923358,61.796499305311265,3.6521469414616785,0.9706971411756631,Right,Correct,0.0,0.0,-45,45,2010,1428,-0.84
"{'cat': 'II', 'resp': 'reach'}",32,106,Left,26.846459829500564,54.39186382492041,1.3423229914750283,0.854385399037132,Left,Correct,0.0,0.0,-45,45,2005,939,-2.53
"{'cat': 'II', 'resp': 'reach'}",32,107,Left,33.45464349447001,65.22648908935936,1.6727321747235007,1.0245752947129307,Left,Correct,0.0,0.0,-45,45,2002,811,-2.53
"{'cat': 'II', 'resp': 'reach'}",32,108,Right,39.64311044631488,29.108750126738578,1.982155522315744,0.45723917776671436,Left,Incorrect,0.0,0.0,-45,45,2002,1094,-2.54
"{'cat': 'II', 'resp': 'reach'}",32,109,Right,64.5647997265607,38.71210524906323,3.2282399863280347,0.6080883272772595,Right,Correct,0.0,0.0,-45,45,2004,970,-0.83
"{'cat': 'II', 'resp': 'reach'}",32,110,Right,47.473587884497505,27.822235359151595,2.373679394224875,0.4370306510537842,Right,Correct,0.0,0.0,-45,45,2004,902,-0.91
"{'cat': 'II', 'resp': 'reach'}",32,111,Left,18.185498983631117,43.33200875329388,0.9092749491815559,0.6806576018231832,Left,Correct,0.0,0.0,-45,45,2004,879,-2.59
"{'cat': 'II', 'resp': 'reach'}",32,112,Left,25.752904670418154,52.9625883069043,1.2876452335209079,0.8319343917003561,Left,Correct,0.0,0.0,-45,45,2002,819,-2.65
"{'cat': 'II', 'resp': 'reach'}",32,113,Right,81.75165992805304,59.100721466599055,4.087582996402652,0.9283519619066208,Right,Correct,0.0,0.0,-45,45,2006,866,-0.83
"{'cat': 'II', 'resp': 'reach'}",32,114,Left,52.70460825933629,79.43569081201207,2.6352304129668145,1.2477729134392368,Left,Correct,0.0,0.0,-45,45,2002,933,-2.57
"{'cat': 'II', 'resp': 'reach'}",32,115,Right,83.10153806802671,62.474528222038316,4.155076903401335,0.9813475944942188,Right,Correct,0.0,0.0,-45,45,2010,1635,-0.77
"{'cat': 'II', 'resp': 'reach'}",32,116,Left,28.23529757750785,47.934389925023744,1.4117648788753925,0.752951636213816,Left,Correct,0.0,0.0,-45,45,2010,667,-2.54
"{'cat': 'II', 'resp': 'reach'}",32,117,Right,64.12825871510576,48.751745598362255,3.2064129357552877,0.7657906291074669,Right,Correct,0.0,0.0,-45,45,2001,2377,-0.93
"{'cat': 'II', 'resp': 'reach'}",32,118,Right,76.21760701487004,46.063410477075344,3.8108803507435023,0.7235623597703551,Right,Correct,0.0,0.0,-45,45,2001,785,-0.93
"{'cat': 'II', 'resp': 'reach'}",32,119,Left,36.68347262196703,49.04631178170401,1.8341736310983514,0.7704176638953792,Left,Correct,0.0,0.0,-45,45,2006,745,-2.57
"{'cat': 'II', 'resp': 'reach'}",32,120,Right,60.1100554644566,35.902369101164616,3.00550277322283,0.5639530950734397,Right,Correct,0.0,0.0,-45,45,2007,863,-0.85
"{'cat': 'II', 'resp': 'reach'}",32,121,Left,39.24699225991915,54.24048862813982,1.9623496129959577,0.852007603006424,Left,Correct,0.0,0.0,-45,45,2014,952,-2.67
"{'cat': 'II', 'resp': 'reach'}",32,122,Left,63.26055788668079,80.0937065187118,3.1630278943340397,1.2581089999898096,Right,Incorrect,0.0,0.0,-45,45,2004,2436,-0.87
"{'cat': 'II', 'resp': 'reach'}",32,123,Left,43.17146166248512,72.12566960775008,2.158573083124256,1.1329473688747613,Left,Correct,0.0,0.0,-45,45,2003,920,-2.71
"{'cat': 'II', 'resp': 'reach'}",32,124,Right,61.15499768616512,32.0023969750928,3.0577498843082562,0.5026924761710788,Right,Correct,0.0,0.0,-45,45,2002,1556,-0.89
"{'cat': 'II', 'resp': 'reach'}",32,125,Right,48.452990106843664,19.937207999011292,2.422649505342183,0.31317293091392767,Right,Correct,0.0,0.0,-45,45,2003,2053,-0.86
"{'cat': 'II', 'resp': 'reach'}",32,126,Left,57.28483750310642,83.27939495597693,2.864241875155321,1.3081496769454999,Right,Incorrect,0.0,0.0,-45,45,2012,837,-0.94
"{'cat': 'II', 'resp': 'reach'}",32,127,Right,38.66137831320945,23.540848618335964,1.9330689156604723,0.36977878539316855,Left,Incorrect,0.0,0.0,-45,45,2007,872,-2.57
"{'cat': 'II', 'resp': 'reach'}",32,128,Left,46.28262458935743,70.94655157825414,2.3141312294678715,1.1144258261788629,Right,Incorrect,0.0,0.0,-45,45,2009,1122,-0.9
"{'cat': 'II', 'resp': 'reach'}",32,129,Left,40.27613309683732,53.94678126949301,2.0138066548418663,0.8473940586052734,Left,Correct,0.0,0.0,-45,45,2009,645,-2.57
"{'cat': 'II', 'resp': 'reach'}",32,130,Left,55.15601495834963,70.72966580704127,2.7578007479174813,1.11101899245131,Right,Incorrect,0.0,0.0,-45,45,2007,1189,-0.88
"{'cat': 'II', 'resp': 'reach'}",32,131,Right,55.27667046154197,31.292163165753713,2.7638335230770985,0.49153614958232494,Right,Correct,0.0,0.0,-45,45,2007,969,-0.86
"{'cat': 'II', 'resp': 'reach'}",32,132,Right,60.75048789306706,35.629178059112526,3.0375243946533534,0.5596618202197527,Right,Correct,0.0,0.0,-45,45,2004,2546,-0.87
"{'cat': 'II', 'resp': 'reach'}",32,133,Right,47.1622141386312,38.49265424314798,2.3581107069315603,0.6046411989372283,Left,Incorrect,0.0,0.0,-45,45,2003,1261,-2.64
"{'cat': 'II', 'resp': 'reach'}",32,134,Left,37.474497789672114,58.352745703059675,1.8737248894836056,0.9166027860876282,Right,Incorrect,0.0,0.0,-45,45,2002,965,-0.81
"{'cat': 'II', 'resp': 'reach'}",32,135,Right,38.62662525948615,22.59685724022439,1.9313312629743076,0.35495060350053137,Left,Incorrect,0.0,0.0,-45,45,2004,1051,-2.49
"{'cat': 'II', 'resp': 'reach'}",32,136,Right,56.607607428554765,24.278232005965407,2.8303803714277382,0.3813615765604475,Right,Correct,0.0,0.0,-45,45,2009,1143,-0.84
"{'cat': 'II', 'resp': 'reach'}",32,137,Right,31.188535197015998,17.69335697308524,1.5594267598508,0.2779266014199316,Left,Incorrect,0.0,0.0,-45,45,2005,989,-2.44
"{'cat': 'II', 'resp': 'reach'}",32,138,Left,22.506178506802165,36.96022660700027,1.1253089253401083,0.5805698819178302,Left,Correct,0.0,0.0,-45,45,2002,3222,-2.74
"{'cat': 'II', 'resp': 'reach'}",32,139,Right,60.80630708567444,35.87444195795283,3.040315354283722,0.5635144165336902,Right,Correct,0.0,0.0,-45,45,2014,1808,-0.78
"{'cat': 'II', 'resp': 'reach'}",32,140,Left,31.281812706895522,52.17479401614473,1.564090635344776,0.8195597479184049,Left,Correct,0.0,0.0,-45,45,2008,1025,-2.67
"{'cat': 'II', 'resp': 'reach'}",32,141,Left,40.95950022873395,62.01041957795059,2.0479750114366975,0.9740573929605514,Left,Correct,0.0,0.0,-45,45,2012,1361,-2.73
"{'cat': 'II', 'resp': 'reach'}",32,142,Right,45.63488452525014,17.247227962621302,2.281744226262507,0.2709188233107977,Left,Incorrect,0.0,0.0,-45,45,2002,1674,-2.54
"{'cat': 'II', 'resp': 'reach'}",32,143,Left,45.911138315361725,55.34868455589825,2.295556915768086,0.869415103933344,Right,Incorrect,0.0,0.0,-45,45,2009,780,-0.94
"{'cat': 'II', 'resp': 'reach'}",32,144,Right,62.548895201091334,51.51069047961867,3.1274447600545665,0.8091280339605385,Right,Correct,0.0,0.0,-45,45,2007,1459,-1.02
"{'cat': 'II', 'resp': 'reach'}",32,145,Right,46.5354705362816,16.753217321272096,2.32677352681408,0.2631589223025085,Right,Correct,0.0,0.0,-45,45,2003,4023,-0.91
"{'cat': 'II', 'resp': 'reach'}",32,146,Right,52.813674769862125,33.98901666494936,2.640683738493106,0.5338982252867298,Right,Correct,0.0,0.0,-45,45,2004,1025,-0.82
"{'cat': 'II', 'resp': 'reach'}",32,147,Left,19.43477461060233,50.73284502081212,0.9717387305301165,0.7969096660654642,Left,Correct,0.0,0.0,-45,45,2007,1176,-2.61
"{'cat': 'II', 'resp': 'reach'}",32,148,Right,50.499602299197655,33.410396623125436,2.5249801149598827,0.5248092829236606,Right,Correct,0.0,0.0,-45,45,2012,1456,-0.82
"{'cat': 'II', 'resp': 'reach'}",32,149,Right,57.029237209931615,38.595743009266194,2.8514618604965807,0.6062605134887514,Right,Correct,0.0,0.0,-45,45,2011,872,-0.82
"{'cat': 'II', 'resp': 'reach'}",32,150,Right,41.007435119527955,19.32486389376995,2.0503717559763976,0.30355425220145155,Right,Correct,0.0,0.0,-45,45,2005,735,-0.81
"{'cat': 'II', 'resp': 'reach'}",32,151,Right,51.4907557867946,35.492001426372575,2.5745377893397303,0.5575070547114527,Right,Correct,0.0,0.0,-45,45,2005,865,-0.78
"{'cat': 'II', 'resp': 'reach'}",32,152,Left,59.08572860642341,86.47471596198616,2.9542864303211704,1.3583416619371989,Left,Correct,0.0,0.0,-45,45,2012,1523,-2.62
"{'cat': 'II', 'resp': 'reach'}",32,153,Right,41.888914593440504,16.86403759053811,2.0944457296720254,0.2648996830214832,Right,Correct,0.0,0.0,-45,45,2006,874,-0.82
"{'cat': 'II', 'resp': 'reach'}",32,154,Left,45.039686941791686,68.15918657673984,2.251984347089584,1.0706419991207097,Left,Correct,0.0,0.0,-45,45,2008,2518,-2.61
"{'cat': 'II', 'resp': 'reach'}",32,155,Right,78.38751813799729,60.68616460447508,3.9193759068998646,0.9532560444797991,Right,Correct,0.0,0.0,-45,45,2009,1097,-0.84
"{'cat': 'II', 'resp': 'reach'}",32,156,Right,77.83090164747264,65.56852196996557,3.8915450823736317,1.0299479346379241,Right,Correct,0.0,0.0,-45,45,2003,3260,-0.86
"{'cat': 'II', 'resp': 'reach'}",32,157,Left,26.272634662595163,39.77331023612345,1.3136317331297582,0.6247576962337658,Left,Correct,0.0,0.0,-45,45,2006,917,-2.66
"{'cat': 'II', 'resp': 'reach'}",32,158,Left,53.486398483977965,66.75723485214012,2.674319924198898,1.0486201929272594,Right,Incorrect,0.0,0.0,-45,45,2010,1674,-0.82
"{'cat': 'II', 'resp': 'reach'}",32,159,Right,73.18281114889149,63.408226802865485,3.6591405574445743,0.9960140975051881,Right,Correct,0.0,0.0,-45,45,2006,1008,-0.84
"{'cat': 'II', 'resp': 'reach'}",32,160,Right,87.55958108714164,63.39539583720666,4.377979054357081,0.9958125491679268,Right,Correct,0.0,0.0,-45,45,2001,1604,-0.85
"{'cat': 'II', 'resp': 'reach'}",32,161,Left,61.645800005668136,83.6708351595717,3.082290000283407,1.3142984052851647,Left,Correct,0.0,0.0,-45,45,2006,1139,-2.58
"{'cat': 'II', 'resp': 'reach'}",32,162,Right,78.38580854954796,64.16113566499021,3.919290427477398,1.0078407622555565,Right,Correct,0.0,0.0,-45,45,2002,981,-0.82
"{'cat': 'II', 'resp': 'reach'}",32,163,Left,37.19450214505735,67.63311977533996,1.8597251072528675,1.062378561127833,Right,Incorrect,0.0,0.0,-45,45,2004,769,-0.8
"{'cat': 'II', 'resp': 'reach'}",32,164,Right,51.08460184652945,23.378352153486915,2.5542300923264722,0.3672262968921481,Left,Incorrect,0.0,0.0,-45,45,2008,1598,-2.6
"{'cat': 'II', 'resp': 'reach'}",32,165,Left,45.71697137763805,77.86527906449318,2.2858485688819026,1.2231049433936545,Left,Correct,0.0,0.0,-45,45,2010,1097,-2.6
"{'cat': 'II', 'resp': 'reach'}",32,166,Left,49.568172390167796,73.67060845158625,2.47840861950839,1.1572152114849672,Left,Correct,0.0,0.0,-45,45,2014,868,-2.49
"{'cat': 'II', 'resp': 'reach'}",32,167,Right,84.35136631301859,67.31518933679722,4.217568315650929,1.0573845214774404,Right,Correct,0.0,0.0,-45,45,2009,840,-0.96
"{'cat': 'II', 'resp': 'reach'}",32,168,Left,45.40831046907061,66.56265641937968,2.2704155234535306,1.0455637620527236,Left,Correct,0.0,0.0,-45,45,2006,889,-2.47
"{'cat': 'II', 'resp': 'reach'}",32,169,Right,55.89110284918635,43.27098316952432,2.794555142459318,0.6796990141949258,Left,Incorrect,0.0,0.0,-45,45,2001,3653,-2.5
"{'cat': 'II', 'resp': 'reach'}",32,170,Left,63.42204344379181,73.65029441286094,3.1711021721895905,1.1568961193108467,Right,Incorrect,0.0,0.0,-45,45,2001,852,-0.9
"{'cat': 'II', 'resp': 'reach'}",32,171,Left,28.33620976946739,49.39284463291247,1.4168104884733697,0.7758609891932993,Left,Correct,0.0,0.0,-45,45,2004,847,-2.56
"{'cat': 'II', 'resp': 'reach'}",32,172,Right,82.09560645805385,61.99379531091748,4.104780322902693,0.9737962595846387,Right,Correct,0.0,0.0,-45,45,2001,1036,-0.93
"{'cat': 'II', 'resp': 'reach'}",32,173,Left,45.24472118604214,72.53629315697752,2.262236059302107,1.1393974285029809,Left,Correct,0.0,0.0,-45,45,2004,885,-2.6
"{'cat': 'II', 'resp': 'reach'}",32,174,Left,38.302457830006325,50.67809864080414,1.9151228915003162,0.7960497119392457,Left,Correct,0.0,0.0,-45,45,2008,827,-2.64
"{'cat': 'II', 'resp': 'reach'}",32,175,Right,50.44517779177009,42.288443091868515,2.522258889588505,0.6642653107458207,Left,Incorrect,0.0,0.0,-45,45,2001,2014,-2.5
"{'cat': 'II', 'resp': 'reach'}",32,176,Right,52.81201616929487,41.03697492176336,2.6406008084647437,0.6446072946988017,Right,Correct,0.0,0.0,-45,45,2006,1037,-0.93
"{'cat': 'II', 'resp': 'reach'}",32,177,Right,59.824589381435906,36.13285275029289,2.9912294690717953,0.5675735237678095,Right,Correct,0.0,0.0,-45,45,2001,1690,-0.99
"{'cat': 'II', 'resp': 'reach'}",32,178,Right,54.514221299980036,30.81606471618987,2.7257110649990017,0.4840576126246487,Right,Correct,0.0,0.0,-45,45,2005,1458,-0.89
"{'cat': 'II', 'resp': 'reach'}",32,179,Left,37.532420352211446,50.47549505792665,1.8766210176105722,0.7928672223014515,Left,Correct,0.0,0.0,-45,45,2004,907,-2.6
"{'cat': 'II', 'resp': 'reach'}",32,180,Left,52.45806538416013,76.55714086710942,2.622903269208006,1.2025567566397493,Left,Correct,0.0,0.0,-45,45,2006,977,-2.47
"{'cat': 'II', 'resp': 'reach'}",32,181,Right,64.85871889720516,44.09075791251574,3.242935944860258,0.6925760057458274,Left,Incorrect,0.0,0.0,-45,45,2010,885,-2.55
"{'cat': 'II', 'resp': 'reach'}",32,182,Left,22.847185338674223,50.97505761438096,1.142359266933711,0.8007143325882783,Left,Correct,0.0,0.0,-45,45,2010,814,-2.51
"{'cat': 'II', 'resp': 'reach'}",32,183,Left,27.59125340563194,41.75496262963085,1.3795626702815968,0.6558854192408232,Left,Correct,0.0,0.0,-45,45,2009,766,-2.48
"{'cat': 'II', 'resp': 'reach'}",32,184,Left,34.604636005251315,57.33975301109927,1.7302318002625656,0.9006907340916134,Left,Correct,0.0,0.0,-45,45,2004,788,-2.57
"{'cat': 'II', 'resp': 'reach'}",32,185,Right,58.84532910713026,31.076754301509897,2.942266455356513,0.4881525150551924,Right,Correct,0.0,0.0,-45,45,2005,1516,-0.87
"{'cat': 'II', 'resp': 'reach'}",32,186,Left,26.53989341684122,44.006854728498325,1.326994670842061,0.691258057613218,Left,Correct,0.0,0.0,-45,45,2007,900,-2.41
"{'cat': 'II', 'resp': 'reach'}",32,187,Right,52.29660421922219,32.52002038655185,2.61483021096111,0.510823285704908,Left,Incorrect,0.0,0.0,-45,45,2002,797,-2.49
"{'cat': 'II', 'resp': 'reach'}",32,188,Right,77.35037340676033,49.31568943572799,3.8675186703380167,0.7746490381899941,Left,Incorrect,0.0,0.0,-45,45,2004,1053,-2.33
"{'cat': 'II', 'resp': 'reach'}",32,189,Right,81.2767275564686,64.25939932416959,4.06383637782343,1.0093842842045206,Right,Correct,0.0,0.0,-45,45,2012,703,-0.99
"{'cat': 'II', 'resp': 'reach'}",32,190,Right,75.40844772894954,48.68334145513928,3.770422386447477,0.764716139338345,Right,Correct,0.0,0.0,-45,45,2013,783,-0.99
"{'cat': 'II', 'resp': 'reach'}",32,191,Right,61.0313333108504,50.98073872724195,3.05156666554252,0.8008035713004197,Right,Correct,0.0,0.0,-45,45,2009,2208,-0.87
"{'cat': 'II', 'resp': 'reach'}",32,192,Right,73.83575898737048,57.46292482335616,3.691787949368524,0.9026255123941913,Right,Correct,0.0,0.0,-45,45,2006,861,-0.96
"{'cat': 'II', 'resp': 'reach'}",32,193,Right,42.681410711612244,33.720697289092314,2.134070535580612,0.5296834743866883,Left,Incorrect,0.0,0.0,-45,45,2001,1038,-2.56
"{'cat': 'II', 'resp': 'reach'}",32,194,Left,19.436410380187006,40.77870082852167,0.9718205190093502,0.6405503347290985,Left,Correct,0.0,0.0,-45,45,2008,939,-2.62
"{'cat': 'II', 'resp': 'reach'}",32,195,Left,68.55428117892077,86.17259915932317,3.4277140589460386,1.353596022298338,Right,Incorrect,0.0,0.0,-45,45,2004,857,-0.88
"{'cat': 'II', 'resp': 'reach'}",32,196,Right,65.46521277381322,42.9270569134613,3.273260638690661,0.6742966331978049,Right,Correct,0.0,0.0,-45,45,2002,987,-0.86
"{'cat': 'II', 'resp': 'reach'}",32,197,Right,63.952713972242236,35.32232340597733,3.1976356986121117,0.554841758599706,Right,Correct,0.0,0.0,-45,45,2003,764,-0.87
"{'cat': 'II', 'resp': 'reach'}",32,198,Right,41.57285904495592,19.81557613951968,2.078642952247796,0.3112623421328211,Left,Incorrect,0.0,0.0,-45,45,2012,881,-2.78
"{'cat': 'II', 'resp': 'reach'}",32,199,Right,67.04868577048383,42.495214469717894,3.3524342885241913,0.6675132679539421,Right,Correct,0.0,0.0,-45,45,2003,865,-0.82
"{'cat': 'II', 'resp': 'reach'}",32,200,Left,31.416714224658595,56.87734084167744,1.5708357112329299,0.8934271807196826,Left,Correct,0.0,0.0,-45,45,2007,1094,-2.63
"{'cat': 'II', 'resp': 'reach'}",32,201,Left,26.737291799301918,54.5185693909137,1.336864589965096,0.8563756854135993,Left,Correct,0.0,0.0,-45,45,2012,797,-2.64
"{'cat': 'II', 'resp': 'reach'}",32,202,Left,55.70224332432766,84.85424213522037,2.785112166216383,1.332887318589689,Left,Correct,0.0,0.0,-45,45,2002,1218,-2.67
"{'cat': 'II', 'resp': 'reach'}",32,203,Right,79.88861806095026,48.64357797997057,3.994430903047513,0.7640915361309889,Right,Correct,0.0,0.0,-45,45,2004,1202,-0.85
"{'cat': 'II', 'resp': 'reach'}",32,204,Right,54.899221269809296,30.49073962021108,2.744961063490465,0.4789474179668718,Left,Incorrect,0.0,0.0,-45,45,2004,1962,-2.77
"{'cat': 'II', 'resp': 'reach'}",32,205,Left,18.146097681902603,39.19535375453816,0.9073048840951301,0.615679177050551,Left,Correct,0.0,0.0,-45,45,2008,800,-2.69
"{'cat': 'II', 'resp': 'reach'}",32,206,Right,58.3435171115061,47.99289567419614,2.917175855575305,0.7538706423727797,Left,Incorrect,0.0,0.0,-45,45,2013,5064,-2.45
"{'cat': 'II', 'resp': 'reach'}",32,207,Left,44.14792657120863,69.22867674586247,2.2073963285604314,1.0874415114127205,Left,Correct,0.0,0.0,-45,45,2008,1210,-2.65
"{'cat': 'II', 'resp': 'reach'}",32,208,Right,69.17486491574275,43.49964644734484,3.4587432457871374,0.6832908485636594,Right,Correct,0.0,0.0,-45,45,2006,1658,-0.87
"{'cat': 'II', 'resp': 'reach'}",32,209,Left,63.36814591932408,73.58987939669883,3.168407295966204,1.1559471224561395,Left,Correct,0.0,0.0,-45,45,2008,1064,-2.63
"{'cat': 'II', 'resp': 'reach'}",32,210,Left,12.197956455763684,31.367625155095606,0.6098978227881843,0.4927215037390337,Left,Correct,0.0,0.0,-45,45,2003,983,-2.59
"{'cat': 'II', 'resp': 'reach'}",32,211,Right,40.464824247703206,21.225169323551704,2.02324121238516,0.3334041800903474,Left,Incorrect,0.0,0.0,-45,45,2003,1187,-2.62
"{'cat': 'II', 'resp': 'reach'}",32,212,Right,65.4616132304923,34.22110314316076,3.273080661524615,0.5375438311614621,Right,Correct,0.0,0.0,-45,45,2004,856,-0.9
"{'cat': 'II', 'resp': 'reach'}",32,213,Right,43.73620163333274,36.1620723371474,2.186810081666637,0.5680325039648247,Right,Correct,0.0,0.0,-45,45,2009,1350,-0.9
"{'cat': 'II', 'resp': 'reach'}",32,214,Left,51.50684236853274,62.361677762593814,2.575342118426637,0.9795749436224934,Left,Correct,0.0,0.0,-45,45,2003,1569,-2.47
"{'cat': 'II', 'resp': 'reach'}",32,215,Left,43.05981787370357,64.8926378261823,2.1529908936851787,1.0193311713339872,Left,Correct,0.0,0.0,-45,45,2008,853,-2.68
"{'cat': 'II', 'resp': 'reach'}",32,216,Left,31.34082795682027,53.51109086895083,1.5670413978410136,0.8405502497973589,Left,Correct,0.0,0.0,-45,45,2013,783,-2.64
"{'cat': 'II', 'resp': 'reach'}",32,217,Left,36.99117223883343,49.55616625318937,1.8495586119416714,0.7784264392054707,Left,Correct,0.0,0.0,-45,45,2005,694,-2.68
"{'cat': 'II', 'resp': 'reach'}",32,218,Left,15.32368329090319,45.116686631557684,0.7661841645451595,0.7086912563800722,Left,Correct,0.0,0.0,-45,45,2008,707,-2.65
"{'cat': 'II', 'resp': 'reach'}",32,219,Right,44.340090747070306,29.130875354731984,2.217004537353515,0.45758672003532974,Left,Incorrect,0.0,0.0,-45,45,2009,709,-2.75
"{'cat': 'II', 'resp': 'reach'}",32,220,Left,30.588727360782038,55.317242336606725,1.5294363680391019,0.8689212107076498,Left,Correct,0.0,0.0,-45,45,2005,791,-2.62
"{'cat': 'II', 'resp': 'reach'}",32,221,Left,46.1386224332612,53.38974699302472,2.3069311216630597,0.838644184651521,Right,Incorrect,0.0,0.0,-45,45,2002,1148,-0.87
"{'cat': 'II', 'resp': 'reach'}",32,222,Right,72.75006276573743,60.25603971300438,3.6375031382868714,0.946499658483947,Right,Correct,0.0,0.0,-45,45,2003,1682,-0.89
"{'cat': 'II', 'resp': 'reach'}",32,223,Right,64.04403864248994,39.90065640453081,3.2022019321244968,0.6267580451694226,Right,Correct,0.0,0.0,-45,45,2006,783,-0.87
"{'cat': 'II', 'resp': 'reach'}",32,224,Left,28.178207111863877,60.4465586783659,1.4089103555931939,0.9494923233936934,Left,Correct,0.0,0.0,-45,45,2009,922,-2.48
"{'cat': 'II', 'resp': 'reach'}",32,225,Left,20.740398874373344,49.76975846930294,1.0370199437186671,0.7817815378905025,Left,Correct,0.0,0.0,-45,45,2004,772,-2.43
"{'cat': 'II', 'resp': 'reach'}",32,226,Left,53.87167523747547,74.15285775547096,2.6935837618737737,1.1647903658363825,Left,Correct,0.0,0.0,-45,45,2007,1596,-2.5
"{'cat': 'II', 'resp': 'reach'}",32,227,Right,60.54736800264389,40.2341990123113,3.027368400132195,0.6319973202007344,Right,Correct,0.0,0.0,-45,45,2003,1083,-0.96
"{'cat': 'II', 'resp': 'reach'}",32,228,Left,35.224116868726966,68.09253597863601,1.7612058434363485,1.0695950539739079,Left,Correct,0.0,0.0,-45,45,2008,4328,-2.58
"{'cat': 'II', 'resp': 'reach'}",32,229,Left,51.18985093705752,65.83817684474707,2.559492546852876,1.034183663506015,Left,Correct,0.0,0.0,-45,45,2012,1573,-2.6
"{'cat': 'II', 'resp': 'reach'}",32,230,Right,71.39369157459635,39.54938408489699,3.5696845787298175,0.6212402724755675,Right,Correct,0.0,0.0,-45,45,2006,852,-0.88
"{'cat': 'II', 'resp': 'reach'}",32,231,Right,66.148919848946,55.91724566067153,3.3074459924472994,0.8783460408827071,Right,Correct,0.0,0.0,-45,45,2006,2280,-0.93
"{'cat': 'II', 'resp': 'reach'}",32,232,Left,17.77365955358061,41.55336469165445,0.8886829776790306,0.6527187262361955,Left,Correct,0.0,0.0,-45,45,2002,836,-2.6
"{'cat': 'II', 'resp': 'reach'}",32,233,Right,49.708753316571475,20.132711995162698,2.4854376658285737,0.3162439005042112,Left,Incorrect,0.0,0.0,-45,45,2003,2531,-2.47
"{'cat': 'II', 'resp': 'reach'}",32,234,Left,36.17333221333236,64.20168638067696,1.8086666106666178,1.008477731408053,Left,Correct,0.0,0.0,-45,45,2005,866,-2.79
"{'cat': 'II', 'resp': 'reach'}",32,235,Left,69.1441542678208,84.48457542659378,3.45720771339104,1.327080607509199,Right,Incorrect,0.0,0.0,-45,45,2012,1050,-0.96
"{'cat': 'II', 'resp': 'reach'}",32,236,Right,85.11498855788261,67.50523156849539,4.255749427894131,1.0603696978723145,Right,Correct,0.0,0.0,-45,45,2008,614,-0.91
"{'cat': 'II', 'resp': 'reach'}",32,237,Left,39.79831270415353,70.95622019436065,1.9899156352076768,1.1145777004455157,Left,Correct,0.0,0.0,-45,45,2006,880,-2.6
"{'cat': 'II', 'resp': 'reach'}",32,238,Left,47.75426656180749,66.99020306220854,2.3877133280903746,1.052279649013614,Left,Correct,0.0,0.0,-45,45,2004,1052,-2.59
"{'cat': 'II', 'resp': 'reach'}",32,239,Left,46.2661539231157,78.1166699323369,2.313307696155785,1.2270537819116416,Left,Correct,0.0,0.0,-45,45,2005,1070,-2.63
"{'cat': 'II', 'resp': 'reach'}",32,240,Left,58.015299457241895,72.4810067214974,2.9007649728620946,1.1385289912052434,Left,Correct,0.0,0.0,-45,45,2006,735,-2.56
"{'cat': 'II', 'resp': 'reach'}",32,241,Left,27.633573928215604,53.20627678745883,1.3816786964107803,0.8357622414017292,Left,Correct,0.0,0.0,-45,45,2006,594,-2.7
"{'cat': 'II', 'resp': 'reach'}",32,242,Left,36.155839225281284,48.23992352527448,1.8077919612640643,0.7577509467836786,Left,Correct,0.0,0.0,-45,45,2002,671,-2.76
"{'cat': 'II', 'resp': 'reach'}",32,243,Left,53.36526545966435,73.6880227515932,2.6682632729832174,1.1574887546698134,Left,Correct,0.0,0.0,-45,45,2002,872,-2.7
"{'cat': 'II', 'resp': 'reach'}",32,244,Right,54.3201134138213,42.7689336440523,2.7160056706910654,0.6718128386901202,Left,Incorrect,0.0,0.0,-45,45,2006,773,-2.62
"{'cat': 'II', 'resp': 'reach'}",32,245,Left,51.0816536888175,74.80538595614553,2.554082684440875,1.1750402548438794,Left,Correct,0.0,0.0,-45,45,2011,957,-2.68
"{'cat': 'II', 'resp': 'reach'}",32,246,Left,41.50239331280003,70.92299022456592,2.0751196656400013,1.114055725300585,Left,Correct,0.0,0.0,-45,45,2002,837,-2.72
"{'cat': 'II', 'resp': 'reach'}",32,247,Left,53.361037000322,69.97123632401642,2.6680518500161,1.0991056099906262,Left,Correct,0.0,0.0,-45,45,2008,817,-2.61
"{'cat': 'II', 'resp': 'reach'}",32,248,Left,40.86512181659803,69.22107485310082,2.0432560908299013,1.0873221011604535,Left,Correct,0.0,0.0,-45,45,2005,637,-2.58
"{'cat': 'II', 'resp': 'reach'}",32,249,Right,35.855618560942034,20.739200729315737,1.7927809280471019,0.325770603262712,Left,Incorrect,0.0,0.0,-45,45,2003,963,-2.66
"{'cat': 'II', 'resp': 'reach'}",32,250,Right,41.98773697320316,19.568009608206708,2.099386848660158,0.3073735761525834,Left,Incorrect,0.0,0.0,-45,45,2005,1388,-2.75
"{'cat': 'II', 'resp': 'reach'}",32,251,Right,34.81642400865353,20.067735776157683,1.7408212004326764,0.3152232564427902,Left,Incorrect,0.0,0.0,-45,45,2009,812,-2.64
"{'cat': 'II', 'resp': 'reach'}",32,252,Left,67.79169832738091,83.68565938549102,3.3895849163690457,1.3145312636813815,Left,Correct,0.0,0.0,-45,45,2002,1109,-2.62
"{'cat': 'II', 'resp': 'reach'}",32,253,Right,67.25820497460515,39.33734423594374,3.3629102487302576,0.6179095583168682,Right,Correct,0.0,0.0,-45,45,2006,1086,-0.86
"{'cat': 'II', 'resp': 'reach'}",32,254,Left,56.23420113975193,68.97582737954147,2.8117100569875966,1.083469762854226,Left,Correct,0.0,0.0,-45,45,2003,991,-2.72
"{'cat': 'II', 'resp': 'reach'}",32,255,Right,43.123680608871446,26.382568433139284,2.156184030443572,0.41441641586190175,Left,Incorrect,0.0,0.0,-45,45,2002,854,-2.6
"{'cat': 'II', 'resp': 'reach'}",32,256,Right,52.215599774333164,21.209790466700433,2.6107799887166583,0.33316260957182453,Right,Correct,0.0,0.0,-45,45,2005,907,-0.87
"{'cat': 'II', 'resp': 'reach'}",32,257,Right,81.5075848815256,61.47420139619308,4.07537924407628,0.9656344974578979,Right,Correct,0.0,0.0,-45,45,2004,1633,-0.9
"{'cat': 'II', 'resp': 'reach'}",32,258,Left,20.713572344016903,39.21340775471814,1.0356786172008452,0.6159627686222177,Left,Correct,0.0,0.0,-45,45,2005,778,-2.74
"{'cat': 'II', 'resp': 'reach'}",32,259,Right,48.8868860313627,24.914943823067475,2.444344301568135,0.3913630223957559,Left,Incorrect,0.0,0.0,-45,45,2012,989,-2.61
"{'cat': 'II', 'resp': 'reach'}",32,260,Left,59.62343845225152,80.84218027280912,2.9811719226125764,1.2698659982261942,Left,Correct,0.0,0.0,-45,45,2002,2504,-2.61
"{'cat': 'II', 'resp': 'reach'}",32,261,Right,86.77856051727491,68.61186314954415,4.338928025863746,1.0777526260985808,Right,Correct,0.0,0.0,-45,45,2007,1464,-0.94
"{'cat': 'II', 'resp': 'reach'}",32,262,Right,38.663831172053335,14.716878588072436,1.9331915586026667,0.23117218828030645,Left,Incorrect,0.0,0.0,-45,45,2004,862,-2.67
"{'cat': 'II', 'resp': 'reach'}",32,263,Left,42.06794396894682,49.95177290098684,2.103397198447341,0.7846406138976298,Left,Correct,0.0,0.0,-45,45,2004,909,-2.58
"{'cat': 'II', 'resp': 'reach'}",32,264,Left,10.859014760071204,31.86457634895895,0.5429507380035602,0.5005275948382025,Left,Correct,0.0,0.0,-45,45,2008,761,-2.68
"{'cat': 'II', 'resp': 'reach'}",32,265,Left,30.902407828499683,52.51957215120441,1.5451203914249843,0.8249755101995142,Left,Correct,0.0,0.0,-45,45,2005,1020,-2.62
"{'cat': 'II', 'resp': 'reach'}",32,266,Right,64.46409135934883,52.49672658350059,3.223204567967441,0.8246166528611872,Right,Correct,0.0,0.0,-45,45,2003,1499,-0.91
"{'cat': 'II', 'resp': 'reach'}",32,267,Right,53.21735490499016,27.96525232413173,2.660867745249508,0.4392771562863856,Right,Correct,0.0,0.0,-45,45,2002,1193,-0.94
"{'cat': 'II', 'resp': 'reach'}",32,268,Right,60.525548978717566,29.329775772882336,3.026277448935878,0.4607110404976152,Right,Correct,0.0,0.0,-45,45,2011,1214,-0.81
"{'cat': 'II', 'resp': 'reach'}",32,269,Left,28.829788128294012,39.07122250121359,1.4414894064147006,0.6137293278829242,Left,Correct,0.0,0.0,-45,45,2013,1065,-2.66
"{'cat': 'II', 'resp': 'reach'}",32,270,Left,46.59276042317396,64.31790577875185,2.329638021158698,1.0103033014440366,Left,Correct,0.0,0.0,-45,45,2010,1138,-2.61
"{'cat': 'II', 'resp': 'reach'}",32,271,Left,57.972476023848394,65.85975251933401,2.8986238011924197,1.034522573409908,Left,Correct,0.0,0.0,-45,45,2006,781,-2.6
"{'cat': 'II', 'resp': 'reach'}",32,272,Left,34.81799084695557,57.26845732093947,1.7408995423477784,0.8995708240094202,Left,Correct,0.0,0.0,-45,45,2009,845,-2.62
"{'cat': 'II', 'resp': 'reach'}",32,273,Right,76.10782070113653,50.12182545587617,3.8053910350568265,0.7873117931834522,Right,Correct,0.0,0.0,-45,45,2005,1932,-0.89
"{'cat': 'II', 'resp': 'reach'}",32,274,Right,55.64685460072674,36.831061201674444,2.782342730036337,0.5785409564754824,Right,Correct,0.0,0.0,-45,45,2010,640,-0.89
"{'cat': 'II', 'resp': 'reach'}",32,275,Left,54.77724756464619,72.41479929415331,2.7388623782323096,1.137489007368457,Left,Correct,0.0,0.0,-45,45,2001,973,-2.39
"{'cat': 'II', 'resp': 'reach'}",32,276,Right,56.116254879045755,40.109537883199046,2.8058127439522877,0.6300391477636982,Right,Correct,0.0,0.0,-45,45,2012,2386,-0.98
"{'cat': 'II', 'resp': 'reach'}",32,277,Right,66.99870678790961,51.95450901296449,3.3499353393954805,0.8160995191799698,Right,Correct,0.0,0.0,-45,45,2005,636,-0.87
"{'cat': 'II', 'resp': 'reach'}",32,278,Left,17.242942167963758,43.7914799728303,0.862147108398188,0.6878749588623413,Left,Correct,0.0,0.0,-45,45,2012,744,-2.49
"{'cat': 'II', 'resp': 'reach'}",32,279,Left,44.47746519847356,63.64896861022407,2.223873259923678,0.9997956609722364,Left,Correct,0.0,0.0,-45,45,2009,925,-2.43
"{'cat': 'II', 'resp': 'reach'}",32,280,Left,41.0157261584825,68.05170529007924,2.050786307924125,1.068953687017853,Left,Correct,0.0,0.0,-45,45,2009,803,-2.6
"{'cat': 'II', 'resp': 'reach'}",32,281,Right,73.75982877935964,44.76190785010729,3.6879914389679818,0.7031184043128018,Right,Correct,0.0,0.0,-45,45,2009,991,-1.04
"{'cat': 'II', 'resp': 'reach'}",32,282,Right,53.28328244838478,25.163160563039572,2.664164122419239,0.3952620018297276,Right,Correct,0.0,0.0,-45,45,2005,944,-0.96
"{'cat': 'II', 'resp': 'reach'}",32,283,Right,45.876343763169885,38.09280689106284,2.293817188158494,0.5983604114178883,Right,Correct,0.0,0.0,-45,45,2004,1077,-0.98
"{'cat': 'II', 'resp': 'reach'}",32,284,Left,64.14789892430281,75.01961149219514,3.2073949462151403,1.1784053016952034,Left,Correct,0.0,0.0,-45,45,2001,1357,-2.46
"{'cat': 'II', 'resp': 'reach'}",32,285,Left,62.403053265786994,79.12707867412118,3.1201526632893497,1.2429252453132034,Left,Correct,0.0,0.0,-45,45,2001,882,-2.58
"{'cat': 'II', 'resp': 'reach'}",32,286,Left,22.02567703045136,40.359974160004086,1.101283851522568,0.6339729916007135,Left,Correct,0.0,0.0,-45,45,2009,721,-2.57
"{'cat': 'II', 'resp': 'reach'}",32,287,Right,43.95078361199449,31.896974122642263,2.1975391805997244,0.5010364978771833,Left,Incorrect,0.0,0.0,-45,45,2004,751,-2.51
"{'cat': 'II', 'resp': 'reach'}",32,288,Right,51.954875528354734,20.37476692172758,2.5977437764177362,0.3200460903995184,Right,Correct,0.0,0.0,-45,45,2002,1557,-1.0
"{'cat': 'II', 'resp': 'reach'}",32,289,Right,71.8942579697842,48.10239457249418,3.5947128984892105,0.7555906470451262,Right,Correct,0.0,0.0,-45,45,2003,615,-0.95
"{'cat': 'II', 'resp': 'reach'}",32,290,Left,19.788817993107887,38.04451296222835,0.9894408996553943,0.5976018121576913,Left,Correct,0.0,0.0,-45,45,2009,719,-2.41
"{'cat': 'II', 'resp': 'reach'}",32,291,Right,70.14162591789727,40.92086998280013,3.5070812958948636,0.6427835225823397,Right,Correct,0.0,0.0,-45,45,2009,883,-1.01
"{'cat': 'II', 'resp': 'reach'}",32,292,Left,18.301624109718567,33.97585286267186,0.9150812054859284,0.5336914487640882,Left,Correct,0.0,0.0,-45,45,2002,747,-2.36
"{'cat': 'II', 'resp': 'reach'}",32,293,Left,30.267550755245683,48.65154818467629,1.5133775377622842,0.7642167318137442,Left,Correct,0.0,0.0,-45,45,2001,806,-2.45
"{'cat': 'II', 'resp': 'reach'}",32,294,Right,51.16181307349793,29.993115590507777,2.558090653674897,0.47113075798704357,Left,Incorrect,0.0,0.0,-45,45,2011,1458,-2.51
"{'cat': 'II', 'resp': 'reach'}",32,295,Left,50.601877294586686,73.13206653167693,2.5300938647293343,1.1487558147887813,Right,Incorrect,0.0,0.0,-45,45,2006,858,-1.0
"{'cat': 'II', 'resp': 'reach'}",32,296,Left,13.47296576189865,32.670179272518006,0.6736482880949325,0.5131819759700205,Left,Correct,0.0,0.0,-45,45,2006,808,-2.56
"{'cat': 'II', 'resp': 'reach'}",32,297,Right,81.0108603676321,66.63591717265288,4.050543018381606,1.046714539274121,Right,Correct,0.0,0.0,-45,45,2012,1390,-0.94
"{'cat': 'II', 'resp': 'reach'}",32,298,Right,81.64959250185161,67.41978661116549,4.0824796250925806,1.059027531621145,Right,Correct,0.0,0.0,-45,45,2008,949,-0.99
"{'cat': 'II', 'resp': 'reach'}",32,299,Right,40.04758950066099,16.078139727238103,2.0023794750330497,0.2525548282524071,Left,Incorrect,0.0,0.0,-45,45,2002,1574,-2.54
"{'cat': 'II', 'resp': 'reach'}",32,300,Left,40.522813623124335,54.173586001987196,2.0261406811562166,0.850956699012289,Left,Correct,0.0,0.0,-45,45,2006,945,-2.27
"{'cat': 'II', 'resp': 'reach'}",32,301,Left,52.73599130315887,78.85469698734897,2.6367995651579434,1.2386466837825236,Left,Correct,0.0,0.0,-45,45,2009,1357,-2.41
"{'cat': 'II', 'resp': 'reach'}",32,302,Left,58.4912186863786,69.72254016532042,2.9245609343189303,1.0951990998649497,Left,Correct,0.0,0.0,-45,45,2003,952,-2.53
"{'cat': 'II', 'resp': 'reach'}",32,303,Right,40.57906901875511,26.01290400535489,2.0289534509377556,0.4086097406087971,Left,Incorrect,0.0,0.0,-45,45,2004,597,-2.69
"{'cat': 'II', 'resp': 'reach'}",32,304,Left,37.29491410622191,49.79652941588127,1.8647457053110954,0.782202054936003,Left,Correct,0.0,0.0,-45,45,2006,1688,-2.59
"{'cat': 'II', 'resp': 'reach'}",32,305,Left,56.06375497547066,75.468073121166,2.803187748773533,1.1854497204901622,Right,Incorrect,0.0,0.0,-45,45,2005,1218,-0.88
"{'cat': 'II', 'resp': 'reach'}",32,306,Right,76.95425792021166,56.3282693839472,3.847712896010583,0.8848023864301768,Right,Correct,0.0,0.0,-45,45,2001,942,-0.9
"{'cat': 'II', 'resp': 'reach'}",32,307,Left,34.96516722328355,55.03896249374803,1.7482583611641775,0.8645500011578149,Left,Correct,0.0,0.0,-45,45,2001,730,-2.71
"{'cat': 'II', 'resp': 'reach'}",32,308,Left,18.553714502620778,45.160697342189636,0.9276857251310389,0.7093825750060754,Left,Correct,0.0,0.0,-45,45,2009,896,-2.65
"{'cat': 'II', 'resp': 'reach'}",32,309,Right,39.507499525309925,18.933161648858515,1.9753749762654962,0.2974014077264096,Left,Incorrect,0.0,0.0,-45,45,2002,746,-2.68
"{'cat': 'II', 'resp': 'reach'}",32,310,Left,55.873288940899805,65.47301104163341,2.7936644470449905,1.0284476524839947,Right,Incorrect,0.0,0.0,-45,45,2003,1147,-0.83
"{'cat': 'II', 'resp': 'reach'}",32,311,Right,49.37559142316087,25.119743084885954,2.4687795711580436,0.3945800016777037,Left,Incorrect,0.0,0.0,-45,45,2009,991,-2.67
"{'cat': 'II', 'resp': 'reach'}",32,312,Left,27.01877374203871,47.991565811224106,1.3509386871019355,0.7538497529340636,Left,Correct,0.0,0.0,-45,45,2009,876,-2.67
"{'cat': 'II', 'resp': 'reach'}",32,313,Right,63.860816234301225,56.28061551219565,3.1930408117150613,0.884053841163128,Right,Correct,0.0,0.0,-45,45,2011,828,-0.79
"{'cat': 'II', 'resp': 'reach'}",32,314,Left,57.4361956270651,72.76910701561184,2.8718097813532553,1.1430544600426782,Left,Correct,0.0,0.0,-45,45,2013,2362,-2.48
"{'cat': 'II', 'resp': 'reach'}",32,315,Right,31.871512583895562,11.205841785366975,1.593575629194778,0.1760209511509921,Left,Incorrect,0.0,0.0,-45,45,2006,797,-2.66
"{'cat': 'II', 'resp': 'reach'}",32,316,Left,34.65204933860302,50.141729672313346,1.7326024669301512,0.7876244478841249,Right,Incorrect,0.0,0.0,-45,45,2001,851,-0.85
"{'cat': 'II', 'resp': 'reach'}",32,317,Left,64.56131014238618,84.81868737453928,3.2280655071193087,1.33232882571491,Left,Correct,0.0,0.0,-45,45,2010,847,-2.58
"{'cat': 'II', 'resp': 'reach'}",32,318,Right,53.09944227564479,39.7934235315031,2.6549721137822395,0.6250736351387867,Right,Correct,0.0,0.0,-45,45,2004,1035,-0.81
"{'cat': 'II', 'resp': 'reach'}",32,319,Left,37.92218385199416,68.14362881837951,1.8961091925997082,1.070397618423854,Left,Correct,0.0,0.0,-45,45,2008,994,-2.69
"{'cat': 'II', 'resp': 'reach'}",32,320,Left,64.66834065628383,79.02489600543973,3.2334170328141916,1.2413201637069342,Left,Correct,0.0,0.0,-45,45,2006,2564,-2.6
"{'cat': 'II', 'resp': 'reach'}",32,321,Right,52.92818295189044,29.688830813429817,2.6464091475945217,0.4663510638857069,Left,Incorrect,0.0,0.0,-45,45,2003,836,-2.71
"{'cat': 'II', 'resp': 'reach'}",32,322,Right,43.83372251373105,31.016861720044226,2.1916861256865525,0.48721172458550704,Right,Correct,0.0,0.0,-45,45,2007,764,-0.8
"{'cat': 'II', 'resp': 'reach'}",32,323,Right,75.30001448625276,64.3937804828681,3.765000724312638,1.0114951385092612,Right,Correct,0.0,0.0,-45,45,2005,805,-0.85
"{'cat': 'II', 'resp': 'reach'}",32,324,Left,23.85850404228471,36.76465387379832,1.1929252021142356,0.5774978326084816,Left,Correct,0.0,0.0,-45,45,2003,784,-2.64
"{'cat': 'II', 'resp': 'reach'}",32,325,Left,37.79473117638096,67.87321519625883,1.889736558819048,1.0661499711804292,Left,Correct,0.0,0.0,-45,45,2006,759,-2.61
"{'cat': 'II', 'resp': 'reach'}",32,326,Left,21.097945024887814,51.43780829042064,1.0548972512443908,0.8079832032097282,Left,Correct,0.0,0.0,-45,45,2010,742,-2.67
"{'cat': 'II', 'resp': 'reach'}",32,327,Left,49.45651095153137,62.5410561946429,2.4728255475765684,0.9823926134441827,Left,Correct,0.0,0.0,-45,45,2003,984,-2.61
"{'cat': 'II', 'resp': 'reach'}",32,328,Right,72.74412129027857,61.98159750898674,3.637206064513929,0.9736046569599608,Right,Correct,0.0,0.0,-45,45,2006,825,-0.86
"{'cat': 'II', 'resp': 'reach'}",32,329,Left,32.48943315619492,56.72463052533944,1.6244716578097462,0.8910284126800085,Left,Correct,0.0,0.0,-45,45,2009,836,-2.56
"{'cat': 'II', 'resp': 'reach'}",32,330,Right,33.21251782131622,17.48786636042955,1.660625891065811,0.27469876242442776,Left,Incorrect,0.0,0.0,-45,45,2005,842,-2.64
"{'cat': 'II', 'resp': 'reach'}",32,331,Right,36.90032777306547,25.93180160483422,1.8450163886532736,0.4073357870804759,Right,Correct,0.0,0.0,-45,45,2006,939,-0.8
"{'cat': 'II', 'resp': 'reach'}",32,332,Left,26.771461500830775,47.33797504212616,1.3385730750415388,0.7435831731408027,Left,Correct,0.0,0.0,-45,45,2005,969,-2.53
"{'cat': 'II', 'resp': 'reach'}",32,333,Left,63.78456772109997,80.3318563227046,3.1892283860549986,1.2618498483631977,Left,Correct,0.0,0.0,-45,45,2006,1468,-2.44
"{'cat': 'II', 'resp': 'reach'}",32,334,Left,21.609667941351614,40.07843393288957,1.0804833970675807,0.6295505680547487,Left,Correct,0.0,0.0,-45,45,2004,864,-2.55
"{'cat': 'II', 'resp': 'reach'}",32,335,Left,32.8426999679568,61.548422410339555,1.64213499839784,0.9668003584218205,Left,Correct,0.0,0.0,-45,45,2002,761,-2.31
"{'cat': 'II', 'resp': 'reach'}",32,336,Right,38.99708761209076,22.102300071380512,1.9498543806045379,0.3471821176584309,Right,Correct,0.0,0.0,-45,45,2002,1220,-0.98
"{'cat': 'II', 'resp': 'reach'}",32,337,Left,55.613451907505286,76.06608498673641,2.7806725953752642,1.19484326890834,Right,Incorrect,0.0,0.0,-45,45,2009,846,-1.06
"{'cat': 'II', 'resp': 'reach'}",32,338,Right,66.14543047588012,57.658951817983656,3.307271523794006,0.9057046972253265,Left,Incorrect,0.0,0.0,-45,45,2008,2310,-2.48
"{'cat': 'II', 'resp': 'reach'}",32,339,Left,28.39816310327463,55.34297921953517,1.4199081551637314,0.8693254847193214,Left,Correct,0.0,0.0,-45,45,2005,1485,-2.43
"{'cat': 'II', 'resp': 'reach'}",32,340,Left,33.194434147652736,58.61189777510469,1.659721707382637,0.9206735373161242,Left,Correct,0.0,0.0,-45,45,2001,750,-2.51
"{'cat': 'II', 'resp': 'reach'}",32,341,Right,61.47551090183238,49.76390246529591,3.073775545091619,0.7816895519946632,Right,Correct,0.0,0.0,-45,45,2012,802,-0.89
"{'cat': 'II', 'resp': 'reach'}",32,342,Right,57.3964347024561,44.48051272252728,2.869821735122805,0.6986982599849951,Right,Correct,0.0,0.0,-45,45,2002,825,-0.96
"{'cat': 'II', 'resp': 'reach'}",32,343,Left,22.75353643095274,49.62841938883996,1.137676821547637,0.7795613888062644,Left,Correct,0.0,0.0,-45,45,2009,885,-2.56
"{'cat': 'II', 'resp': 'reach'}",32,344,Left,16.68119513849051,42.36496722654236,0.8340597569245254,0.6654673490423891,Left,Correct,0.0,0.0,-45,45,2011,813,-2.37
"{'cat': 'II', 'resp': 'reach'}",32,345,Right,52.63792386671285,39.32434223097462,2.631896193335643,0.6177053233004036,Left,Incorrect,0.0,0.0,-45,45,2009,991,-2.5
"{'cat': 'II', 'resp': 'reach'}",32,346,Left,43.551818939832685,60.31291345713338,2.1775909469916344,0.9473930291676358,Left,Correct,0.0,0.0,-45,45,2001,5593,-2.49
"{'cat': 'II', 'resp': 'reach'}",32,347,Left,62.29287385302486,82.5284801105442,3.1146436926512426,1.2963543341360848,Right,Incorrect,0.0,0.0,-45,45,2003,834,-0.91
"{'cat': 'II', 'resp': 'reach'}",32,348,Left,68.15039822090488,83.84998052778325,3.407519911045244,1.3171124141486552,Left,Correct,0.0,0.0,-45,45,2003,1347,-2.71
"{'cat': 'II', 'resp': 'reach'}",32,349,Right,61.35039953632041,53.40587648620851,3.067519976816021,0.8388975461379826,Left,Incorrect,0.0,0.0,-45,45,2007,2091,-2.54
"{'cat': 'II', 'resp': 'reach'}",32,350,Right,68.74685070051886,50.3928026991606,3.437342535025943,0.7915682937674142,Right,Correct,0.0,0.0,-45,45,2003,795,-0.9
"{'cat': 'II', 'resp': 'reach'}",32,351,Right,83.97143068680447,57.54229900605529,4.198571534340223,0.9038723191404527,Right,Correct,0.0,0.0,-45,45,2004,747,-0.94
"{'cat': 'II', 'resp': 'reach'}",32,352,Right,57.77967529124573,40.717481381531144,2.888983764562287,0.6395887019044871,Right,Correct,0.0,0.0,-45,45,2004,788,-0.87
"{'cat': 'II', 'resp': 'reach'}",32,353,Right,78.23899263875732,46.72417727150939,3.9119496319378664,0.7339416603060054,Right,Correct,0.0,0.0,-45,45,2012,765,-0.91
"{'cat': 'II', 'resp': 'reach'}",32,354,Left,33.839905078739,61.89766199350086,1.69199525393695,0.9722862009658322,Right,Incorrect,0.0,0.0,-45,45,2005,806,-0.94
"{'cat': 'II', 'resp': 'reach'}",32,355,Left,39.11487749812978,69.48200583497517,1.9557438749064888,1.0914207954392057,Left,Correct,0.0,0.0,-45,45,2005,784,-2.57
"{'cat': 'II', 'resp': 'reach'}",32,356,Right,63.100934505188526,35.983228977396905,3.1550467252594263,0.5652232390391474,Right,Correct,0.0,0.0,-45,45,2008,1093,-0.94
"{'cat': 'II', 'resp': 'reach'}",32,357,Right,63.57455984758975,50.15326116257817,3.1787279923794873,0.7878055841096293,Right,Correct,0.0,0.0,-45,45,2005,795,-0.9
"{'cat': 'II', 'resp': 'reach'}",32,358,Right,63.43502841859413,36.036595991622356,3.1717514209297066,0.566061526138321,Right,Correct,0.0,0.0,-45,45,2005,872,-0.93
"{'cat': 'II', 'resp': 'reach'}",32,359,Right,63.41109246798415,53.645778667650355,3.170554623399207,0.8426659207919719,Right,Correct,0.0,0.0,-45,45,2001,880,-0.89
"{'cat': 'II', 'resp': 'reach'}",32,360,Right,65.01250833872906,53.2588199970339,3.250625416936453,0.8365875882077144,Right,Correct,0.0,0.0,-45,45,2010,750,-0.91
"{'cat': 'II', 'resp': 'reach'}",32,361,Right,89.56071723988524,68.29589256006525,4.478035861994261,1.072789371685294,Right,Correct,0.0,0.0,-45,45,2006,1254,-0.94
"{'cat': 'II', 'resp': 'reach'}",32,362,Right,51.411168994598086,41.133099043895015,2.570558449729904,0.6461172088784096,Left,Incorrect,0.0,0.0,-45,45,2012,1389,-2.58
"{'cat': 'II', 'resp': 'reach'}",32,363,Left,33.88624680934413,62.74591911986487,1.6943123404672065,0.985610592748534,Left,Correct,0.0,0.0,-45,45,2008,943,-2.62
"{'cat': 'II', 'resp': 'reach'}",32,364,Right,87.15770157090985,59.813369156738545,4.357885078545492,0.9395462056463205,Right,Correct,0.0,0.0,-45,45,2002,1013,-0.97
"{'cat': 'II', 'resp': 'reach'}",32,365,Left,60.376675926825726,82.12039778538171,3.018833796341286,1.2899441919621335,Left,Correct,0.0,0.0,-45,45,2010,1661,-2.5
"{'cat': 'II', 'resp': 'reach'}",32,366,Right,68.88408832897456,43.350796594033525,3.4442044164487275,0.6809527205354057,Right,Correct,0.0,0.0,-45,45,2005,803,-0.93
"{'cat': 'II', 'resp': 'reach'}",32,367,Left,57.99175856735238,68.98173754329999,2.8995879283676187,1.0835625994894522,Right,Incorrect,0.0,0.0,-45,45,2009,750,-0.96
"{'cat': 'II', 'resp': 'reach'}",32,368,Left,11.776775336089678,30.97166285524412,0.5888387668044839,0.4865017424774741,Left,Correct,0.0,0.0,-45,45,2001,827,-2.59
"{'cat': 'II', 'resp': 'reach'}",32,369,Left,22.31406197086474,46.02319691007181,1.115703098543237,0.7229306865369906,Left,Correct,0.0,0.0,-45,45,2007,798,-2.56
"{'cat': 'II', 'resp': 'reach'}",32,370,Right,45.475219361435066,17.44687868284374,2.273760968071753,0.2740549294904713,Left,Incorrect,0.0,0.0,-45,45,2008,1153,-2.62
"{'cat': 'II', 'resp': 'reach'}",32,371,Right,38.34480833597101,18.773555529095162,1.9172404167985504,0.294894320659827,Left,Incorrect,0.0,0.0,-45,45,2002,1154,-2.45
"{'cat': 'II', 'resp': 'reach'}",32,372,Left,25.28931579915996,55.968484159141184,1.264465789957998,0.8791508933345731,Left,Correct,0.0,0.0,-45,45,2003,837,-2.42
"{'cat': 'II', 'resp': 'reach'}",32,373,Right,52.351512232851555,39.053426966006754,2.6175756116425775,0.6134497962695616,Right,Correct,0.0,0.0,-45,45,2013,3019,-0.98
"{'cat': 'II', 'resp': 'reach'}",32,374,Right,51.663445367017204,43.41607016187832,2.58317226835086,0.6819780353414797,Right,Correct,0.0,0.0,-45,45,2006,838,-1.01
"{'cat': 'II', 'resp': 'reach'}",32,375,Right,57.2108604291034,27.24796536948312,2.86054302145517,0.42801003915018626,Right,Correct,0.0,0.0,-45,45,2007,627,-1.0
"{'cat': 'II', 'resp': 'reach'}",32,376,Right,60.31630980004641,40.80091380013737,3.0158154900023204,0.64089925527131,Right,Correct,0.0,0.0,-45,45,2004,816,-1.02
"{'cat': 'II', 'resp': 'reach'}",32,377,Left,51.34320031725669,65.08011343674778,2.567160015862834,1.022276031338386,Right,Incorrect,0.0,0.0,-45,45,2002,799,-0.96
"{'cat': 'II', 'resp': 'reach'}",32,378,Left,39.36159770044936,48.67025054889881,1.968079885022468,0.7645105078639755,Left,Correct,0.0,0.0,-45,45,2001,595,-2.63
"{'cat': 'II', 'resp': 'reach'}",32,379,Left,30.57305860806745,56.2916705189329,1.5286529304033722,0.8842274928028837,Left,Correct,0.0,0.0,-45,45,2003,737,-2.63
"{'cat': 'II', 'resp': 'reach'}",32,380,Left,31.587653960205117,44.35032028664654,1.5793826980102557,0.6966532019844157,Left,Correct,0.0,0.0,-45,45,2003,816,-2.39
"{'cat': 'II', 'resp': 'reach'}",32,381,Right,34.765853480728325,16.09482705332064,1.7382926740364162,0.2528169521575519,Left,Incorrect,0.0,0.0,-45,45,2005,837,-2.59
"{'cat': 'II', 'resp': 'reach'}",32,382,Left,40.779515818446924,62.947080756043405,2.038975790922346,0.9887704323405471,Left,Correct,0.0,0.0,-45,45,2007,1569,-2.47
"{'cat': 'II', 'resp': 'reach'}",32,383,Right,60.848916379172366,35.01336652567117,3.042445818958618,0.5499886752724765,Right,Correct,0.0,0.0,-45,45,2006,978,-0.96
"{'cat': 'II', 'resp': 'reach'}",32,384,Left,27.528682632040955,42.61616442320778,1.3764341316020476,0.6694131453806212,Left,Correct,0.0,0.0,-45,45,2011,846,-2.48
"{'cat': 'II', 'resp': 'reach'}",32,385,Right,59.50595600635191,48.35601694842529,2.975297800317595,0.759574538010182,Right,Correct,0.0,0.0,-45,45,2004,3456,-0.92
"{'cat': 'II', 'resp': 'reach'}",32,386,Right,82.92989826561447,56.03751298032846,4.146494913280724,0.8802351955222127,Right,Correct,0.0,0.0,-45,45,2004,634,-0.97
"{'cat': 'II', 'resp': 'reach'}",32,387,Right,55.00242151069021,43.23755663871863,2.7501210755345107,0.6791739514768552,Right,Correct,0.0,0.0,-45,45,2009,691,-0.99
"{'cat': 'II', 'resp': 'reach'}",32,388,Left,19.401682950577246,39.025771051821195,0.9700841475288624,0.6130153781853934,Left,Correct,0.0,0.0,-45,45,2001,1073,-2.52
"{'cat': 'II', 'resp': 'reach'}",32,389,Right,65.7706940253229,53.76734652393914,3.2885347012661446,0.8445755042131194,Right,Correct,0.0,0.0,-45,45,2008,880,-1.04
"{'cat': 'II', 'resp': 'reach'}",32,390,Left,19.91391786346642,36.08390146255651,0.9956958931733211,0.5668045987381276,Left,Correct,0.0,0.0,-45,45,2007,833,-2.62
"{'cat': 'II', 'resp': 'reach'}",32,391,Left,20.21779152241665,49.06962356820374,1.0108895761208325,0.7707838445814272,Left,Correct,0.0,0.0,-45,45,2013,852,-2.53
"{'cat': 'II', 'resp': 'reach'}",32,392,Left,56.75983745317575,80.69105400403801,2.8379918726587876,1.2674921123475154,Left,Correct,0.0,0.0,-45,45,2004,1050,-2.64
"{'cat': 'II', 'resp': 'reach'}",32,393,Left,39.286910631240566,47.398655419227666,1.9643455315620284,0.7445363382753983,Left,Correct,0.0,0.0,-45,45,2002,726,-2.44
"{'cat': 'II', 'resp': 'reach'}",32,394,Left,51.49679076117865,72.64166344570508,2.5748395380589324,1.1410525811278465,Right,Incorrect,0.0,0.0,-45,45,2009,1199,-1.05
"{'cat': 'II', 'resp': 'reach'}",32,395,Left,45.74428857999074,53.959965216449994,2.287214428999537,0.8476011515598004,Right,Incorrect,0.0,0.0,-45,45,2004,835,-1.01
"{'cat': 'II', 'resp': 'reach'}",32,396,Right,55.52006765325167,29.5445157119154,2.7760033826625836,0.46408416757210813,Right,Correct,0.0,0.0,-45,45,2005,1112,-1.05
"{'cat': 'II', 'resp': 'reach'}",32,397,Right,49.83173155762915,32.619397576990465,2.4915865778814577,0.5123842989619897,Right,Correct,0.0,0.0,-45,45,2002,845,-0.9
"{'cat': 'II', 'resp': 'reach'}",32,398,Right,53.39286630000737,21.602811251138135,2.6696433150003687,0.3393361656173125,Right,Correct,0.0,0.0,-45,45,2009,755,-0.89
"{'cat': 'II', 'resp': 'reach'}",32,399,Right,36.12884231827911,20.617401072633566,1.8064421159139556,0.32385737872949966,Left,Incorrect,0.0,0.0,-45,45,2006,1713,-2.55
