condition,subject,trial,cat,x,y,xt,yt,resp,fb,rotation,su,target_angle_left,target_angle_right,rt,mt,ep
"{'cat': 'RB', 'resp': 'button'}",49,0,Left,42.59366824986285,79.18354645389194,2.1296834124931423,1.243812239123665,Left,Correct,0.0,0.0,-45,45,3316,-1,-1
"{'cat': 'RB', 'resp': 'button'}",49,1,Left,42.767845551350916,77.8882016178181,2.138392277567546,1.2234650100192896,Left,Correct,0.0,0.0,-45,45,2288,-1,-1
"{'cat': 'RB', 'resp': 'button'}",49,2,Right,64.75059082286782,62.22402359944256,3.237529541143391,0.9774126770840333,Right,Correct,0.0,0.0,-45,45,1310,-1,-1
"{'cat': 'RB', 'resp': 'button'}",49,3,Right,56.270418495600296,37.01950836194123,2.8135209247800153,0.5815010775469024,Left,Incorrect,0.0,0.0,-45,45,1006,-1,-1
"{'cat': 'RB', 'resp': 'button'}",49,4,Left,42.01834904225434,48.39714076206253,2.100917452112717,0.7602205093642337,Right,Incorrect,0.0,0.0,-45,45,1091,-1,-1
"{'cat': 'RB', 'resp': 'button'}",49,5,Left,33.43828863847775,29.553142811581637,1.6719144319238877,0.4642196817367743,Right,Incorrect,0.0,0.0,-45,45,943,-1,-1
"{'cat': 'RB', 'resp': 'button'}",49,6,Left,46.58094400152927,64.10242978321142,2.3290472000764635,1.0069186124209628,Left,Correct,0.0,0.0,-45,45,990,-1,-1
"{'cat': 'RB', 'resp': 'button'}",49,7,Left,48.191669331686306,52.65710130636255,2.409583466584315,0.8271358131170103,Left,Correct,0.0,0.0,-45,45,913,-1,-1
"{'cat': 'RB', 'resp': 'button'}",49,8,Right,58.40744759913727,54.99522494671061,2.9203723799568637,0.863862973375521,Left,Incorrect,0.0,0.0,-45,45,989,-1,-1
"{'cat': 'RB', 'resp': 'button'}",49,9,Right,55.28746130860888,28.485995247187002,2.764373065430444,0.4474569669937821,Left,Incorrect,0.0,0.0,-45,45,2382,-1,-1
"{'cat': 'RB', 'resp': 'button'}",49,10,Left,39.78667893972098,77.52126120965872,1.989333946986049,1.2177011235663961,Right,Incorrect,0.0,0.0,-45,45,1071,-1,-1
"{'cat': 'RB', 'resp': 'button'}",49,11,Right,68.90684739630984,55.117362036694,3.445342369815492,0.865781498298634,Left,Incorrect,0.0,0.0,-45,45,1100,-1,-1
"{'cat': 'RB', 'resp': 'button'}",49,12,Right,63.651800216777964,59.16166381493286,3.182590010838898,0.9293092420757106,Left,Incorrect,0.0,0.0,-45,45,926,-1,-1
"{'cat': 'RB', 'resp': 'button'}",49,13,Left,49.049639931648045,48.76307413376857,2.452481996582402,0.765968577325509,Right,Incorrect,0.0,0.0,-45,45,887,-1,-1
"{'cat': 'RB', 'resp': 'button'}",49,14,Left,37.68277818245756,33.42708637494364,1.884138909122878,0.5250714449321721,Left,Correct,0.0,0.0,-45,45,1965,-1,-1
"{'cat': 'RB', 'resp': 'button'}",49,15,Right,57.33767080612591,26.164230423976687,2.8668835403062953,0.4109867704339786,Left,Incorrect,0.0,0.0,-45,45,1175,-1,-1
"{'cat': 'RB', 'resp': 'button'}",49,16,Right,60.302574139390295,39.15926641729671,3.0151287069695147,0.6151123184827243,Left,Incorrect,0.0,0.0,-45,45,1543,-1,-1
"{'cat': 'RB', 'resp': 'button'}",49,17,Left,36.77517735147662,27.26018241577615,1.8387588675738311,0.4282019440646001,Left,Correct,0.0,0.0,-45,45,3598,-1,-1
"{'cat': 'RB', 'resp': 'button'}",49,18,Right,67.49873634403157,58.92264603831866,3.3749368172015783,0.9255547596202682,Left,Incorrect,0.0,0.0,-45,45,4446,-1,-1
"{'cat': 'RB', 'resp': 'button'}",49,19,Left,40.140716328623995,17.2021535324739,2.0070358164311997,0.27021079581771856,Right,Incorrect,0.0,0.0,-45,45,1886,-1,-1
"{'cat': 'RB', 'resp': 'button'}",49,20,Left,43.450713581467696,38.221080076723005,2.172535679073385,0.600375321906501,Left,Correct,0.0,0.0,-45,45,1216,-1,-1
"{'cat': 'RB', 'resp': 'button'}",49,21,Right,55.385029455394445,79.84037272608899,2.769251472769722,1.2541296420807602,Right,Correct,0.0,0.0,-45,45,1323,-1,-1
"{'cat': 'RB', 'resp': 'button'}",49,22,Right,53.044481842192276,67.23996543989496,2.6522240921096136,1.056202907268028,Left,Incorrect,0.0,0.0,-45,45,829,-1,-1
"{'cat': 'RB', 'resp': 'button'}",49,23,Left,43.69701547165569,17.92782463391866,2.1848507735827845,0.2816096108238249,Left,Correct,0.0,0.0,-45,45,1031,-1,-1
"{'cat': 'RB', 'resp': 'button'}",49,24,Left,36.11141878434946,81.44084389485214,1.805570939217473,1.279269784411103,Left,Correct,0.0,0.0,-45,45,1111,-1,-1
"{'cat': 'RB', 'resp': 'button'}",49,25,Left,41.97774403892175,71.5256527882055,2.0988872019460874,1.1235223267132035,Left,Correct,0.0,0.0,-45,45,1191,-1,-1
"{'cat': 'RB', 'resp': 'button'}",49,26,Right,67.03249632498765,71.9188530383236,3.351624816249382,1.129698701799007,Left,Incorrect,0.0,0.0,-45,45,771,-1,-1
"{'cat': 'RB', 'resp': 'button'}",49,27,Left,31.056231064391476,62.21567317422939,1.5528115532195739,0.9772815089115129,Left,Correct,0.0,0.0,-45,45,950,-1,-1
"{'cat': 'RB', 'resp': 'button'}",49,28,Left,38.2665071087102,58.55953986129755,1.9133253554355099,0.9198511011292553,Right,Incorrect,0.0,0.0,-45,45,1327,-1,-1
"{'cat': 'RB', 'resp': 'button'}",49,29,Left,39.171020508882684,81.79012470342462,1.9585510254441343,1.2847562745223593,Left,Correct,0.0,0.0,-45,45,2816,-1,-1
"{'cat': 'RB', 'resp': 'button'}",49,30,Left,36.008458705798446,44.80409136251494,1.8004229352899221,0.7037810213762141,Left,Correct,0.0,0.0,-45,45,1375,-1,-1
"{'cat': 'RB', 'resp': 'button'}",49,31,Right,59.164951949359796,25.13524607332243,2.95824759746799,0.3948235220506073,Left,Incorrect,0.0,0.0,-45,45,1597,-1,-1
"{'cat': 'RB', 'resp': 'button'}",49,32,Left,46.08005089406684,27.269099467172083,2.3040025447033416,0.42834201278038586,Left,Correct,0.0,0.0,-45,45,1351,-1,-1
"{'cat': 'RB', 'resp': 'button'}",49,33,Right,65.29520519103382,71.58164697761914,3.2647602595516907,1.1244018813837315,Right,Correct,0.0,0.0,-45,45,1082,-1,-1
"{'cat': 'RB', 'resp': 'button'}",49,34,Left,33.305505470770164,20.9396838748899,1.6652752735385081,0.32891978514923387,Left,Correct,0.0,0.0,-45,45,1530,-1,-1
"{'cat': 'RB', 'resp': 'button'}",49,35,Left,41.240285164561165,36.890915957021804,2.062014258228058,0.5794811527738909,Left,Correct,0.0,0.0,-45,45,998,-1,-1
"{'cat': 'RB', 'resp': 'button'}",49,36,Right,61.75842786361163,76.64864514925175,3.0879213931805816,1.2039941025425012,Left,Incorrect,0.0,0.0,-45,45,983,-1,-1
"{'cat': 'RB', 'resp': 'button'}",49,37,Left,42.98390528388823,63.09741173836129,2.1491952641944114,0.991131825888831,Right,Incorrect,0.0,0.0,-45,45,790,-1,-1
"{'cat': 'RB', 'resp': 'button'}",49,38,Right,54.261204573549975,45.98944979918766,2.713060228677499,0.7224005881588227,Right,Correct,0.0,0.0,-45,45,778,-1,-1
"{'cat': 'RB', 'resp': 'button'}",49,39,Left,45.316684309638944,74.345921759448,2.2658342154819473,1.1678230081192171,Left,Correct,0.0,0.0,-45,45,1848,-1,-1
"{'cat': 'RB', 'resp': 'button'}",49,40,Left,42.855749943657266,44.67718616429759,2.142787497182863,0.7017875991841043,Left,Correct,0.0,0.0,-45,45,825,-1,-1
"{'cat': 'RB', 'resp': 'button'}",49,41,Left,41.85285237434917,15.3272082399861,2.0926426187174583,0.2407592240339064,Right,Incorrect,0.0,0.0,-45,45,2686,-1,-1
"{'cat': 'RB', 'resp': 'button'}",49,42,Left,33.58337076735961,53.79899729576779,1.6791685383679806,0.8450726733744063,Left,Correct,0.0,0.0,-45,45,2601,-1,-1
"{'cat': 'RB', 'resp': 'button'}",49,43,Left,33.177091649143385,69.25188568655138,1.6588545824571694,1.0878060766005497,Right,Incorrect,0.0,0.0,-45,45,2274,-1,-1
"{'cat': 'RB', 'resp': 'button'}",49,44,Right,67.05513499735588,58.70518366080932,3.352756749867794,0.9221388685821905,Left,Incorrect,0.0,0.0,-45,45,3580,-1,-1
"{'cat': 'RB', 'resp': 'button'}",49,45,Left,41.92450718671963,32.547845988355064,2.0962253593359814,0.5112603692359414,Left,Correct,0.0,0.0,-45,45,3528,-1,-1
"{'cat': 'RB', 'resp': 'button'}",49,46,Left,34.36493014493322,51.62727568973426,1.718246507246661,0.8109593501586204,Left,Correct,0.0,0.0,-45,45,5658,-1,-1
"{'cat': 'RB', 'resp': 'button'}",49,47,Left,47.19314618951655,42.70212878520135,2.359657309475827,0.6707634704211689,Left,Correct,0.0,0.0,-45,45,1205,-1,-1
"{'cat': 'RB', 'resp': 'button'}",49,48,Right,56.72897900065044,63.17218512560044,2.836448950032522,0.9923063635090037,Right,Correct,0.0,0.0,-45,45,2538,-1,-1
"{'cat': 'RB', 'resp': 'button'}",49,49,Right,55.31946549731328,82.10889926845546,2.7659732748656642,1.28976357368062,Left,Incorrect,0.0,0.0,-45,45,1639,-1,-1
"{'cat': 'RB', 'resp': 'button'}",49,50,Right,65.21976609646309,53.1419235819536,3.2609883048231545,0.834751383613478,Right,Correct,0.0,0.0,-45,45,4426,-1,-1
"{'cat': 'RB', 'resp': 'button'}",49,51,Right,68.60151510346842,38.62700131316829,3.4300757551734207,0.606751517778264,Left,Incorrect,0.0,0.0,-45,45,2424,-1,-1
"{'cat': 'RB', 'resp': 'button'}",49,52,Left,38.813995959216896,62.33632039637082,1.940699797960845,0.9791766310452907,Left,Correct,0.0,0.0,-45,45,607,-1,-1
"{'cat': 'RB', 'resp': 'button'}",49,53,Right,59.53636853879717,78.070373762137,2.9768184269398588,1.2263265633706946,Right,Correct,0.0,0.0,-45,45,2415,-1,-1
"{'cat': 'RB', 'resp': 'button'}",49,54,Left,38.675540933110995,52.15712658176273,1.9337770466555497,0.8192822285080936,Left,Correct,0.0,0.0,-45,45,2676,-1,-1
"{'cat': 'RB', 'resp': 'button'}",49,55,Right,57.23099841540617,61.30613069260756,2.8615499207703086,0.9629944490195582,Left,Incorrect,0.0,0.0,-45,45,3780,-1,-1
"{'cat': 'RB', 'resp': 'button'}",49,56,Right,62.10339178570275,31.670169557237642,3.1051695892851376,0.49747386009480443,Right,Correct,0.0,0.0,-45,45,876,-1,-1
"{'cat': 'RB', 'resp': 'button'}",49,57,Left,31.390670573981296,47.22539947515932,1.569533528699065,0.7418148402700189,Right,Incorrect,0.0,0.0,-45,45,1638,-1,-1
"{'cat': 'RB', 'resp': 'button'}",49,58,Left,35.06534975278053,27.27775607537111,1.7532674876390262,0.42847799046400115,Left,Correct,0.0,0.0,-45,45,3013,-1,-1
"{'cat': 'RB', 'resp': 'button'}",49,59,Left,42.93716411229804,38.303377820223474,2.146858205614902,0.6016680518384414,Right,Incorrect,0.0,0.0,-45,45,2053,-1,-1
"{'cat': 'RB', 'resp': 'button'}",49,60,Left,30.949923766548352,58.16710800557533,1.5474961883274176,0.9136867959543976,Left,Correct,0.0,0.0,-45,45,1798,-1,-1
"{'cat': 'RB', 'resp': 'button'}",49,61,Left,43.77349726816231,76.29754711812251,2.1886748634081155,1.1984790675660737,Left,Correct,0.0,0.0,-45,45,717,-1,-1
"{'cat': 'RB', 'resp': 'button'}",49,62,Left,47.693036186297455,72.66771281029187,2.3846518093148728,1.1414617635899293,Left,Correct,0.0,0.0,-45,45,772,-1,-1
"{'cat': 'RB', 'resp': 'button'}",49,63,Right,64.55131336777274,49.70959345259189,3.227565668388637,0.7808364680179898,Left,Incorrect,0.0,0.0,-45,45,661,-1,-1
"{'cat': 'RB', 'resp': 'button'}",49,64,Right,64.64390379861601,41.62266216571092,3.2321951899308003,0.6538072484132363,Right,Correct,0.0,0.0,-45,45,2531,-1,-1
"{'cat': 'RB', 'resp': 'button'}",49,65,Left,34.829129820384665,60.57608937442856,1.7414564910192332,0.9515269868095176,Left,Correct,0.0,0.0,-45,45,1250,-1,-1
"{'cat': 'RB', 'resp': 'button'}",49,66,Left,38.57271336599331,21.22084906524836,1.9286356682996655,0.33333631763161037,Left,Correct,0.0,0.0,-45,45,750,-1,-1
"{'cat': 'RB', 'resp': 'button'}",49,67,Right,64.54107081474874,70.69420558302548,3.227053540737437,1.110461984554997,Left,Incorrect,0.0,0.0,-45,45,883,-1,-1
"{'cat': 'RB', 'resp': 'button'}",49,68,Right,65.99546446535498,70.60251443616019,3.2997732232677492,1.109021703388041,Right,Correct,0.0,0.0,-45,45,787,-1,-1
"{'cat': 'RB', 'resp': 'button'}",49,69,Right,58.0080947761627,81.26036672992555,2.900404738808135,1.2764348557337326,Right,Correct,0.0,0.0,-45,45,1272,-1,-1
"{'cat': 'RB', 'resp': 'button'}",49,70,Left,35.31749970386384,70.81468605313465,1.7658749851931919,1.112354487353977,Right,Incorrect,0.0,0.0,-45,45,571,-1,-1
"{'cat': 'RB', 'resp': 'button'}",49,71,Right,54.2690045977447,49.68113206740254,2.713450229887235,0.7803893976248806,Left,Incorrect,0.0,0.0,-45,45,775,-1,-1
"{'cat': 'RB', 'resp': 'button'}",49,72,Right,60.45525739788614,47.42868805778955,3.0227628698943074,0.7450080898587681,Left,Incorrect,0.0,0.0,-45,45,500,-1,-1
"{'cat': 'RB', 'resp': 'button'}",49,73,Left,46.3070473563147,43.77267419703539,2.3153523678157346,0.6875795584269295,Right,Incorrect,0.0,0.0,-45,45,1155,-1,-1
"{'cat': 'RB', 'resp': 'button'}",49,74,Left,37.78334832714555,69.31482152924197,1.8891674163572776,1.088794670505771,Left,Correct,0.0,0.0,-45,45,1188,-1,-1
"{'cat': 'RB', 'resp': 'button'}",49,75,Right,56.13136542451345,20.744731003577993,2.806568271225672,0.32585747260768516,Left,Incorrect,0.0,0.0,-45,45,2850,-1,-1
"{'cat': 'RB', 'resp': 'button'}",49,76,Right,56.68775142368982,23.01996370251106,2.834387571184491,0.36159674426856225,Right,Correct,0.0,0.0,-45,45,3128,-1,-1
"{'cat': 'RB', 'resp': 'button'}",49,77,Left,47.07788824348506,57.83476256648808,2.3538944121742533,0.9084663260049445,Right,Incorrect,0.0,0.0,-45,45,1122,-1,-1
"{'cat': 'RB', 'resp': 'button'}",49,78,Left,44.84837740651811,52.77068505364232,2.242418870325906,0.8289199824471171,Right,Incorrect,0.0,0.0,-45,45,2205,-1,-1
"{'cat': 'RB', 'resp': 'button'}",49,79,Left,41.60949624089714,42.96480517238612,2.080474812044857,0.674889581462425,Right,Incorrect,0.0,0.0,-45,45,2826,-1,-1
"{'cat': 'RB', 'resp': 'button'}",49,80,Left,48.040609743815274,30.464997523415725,2.4020304871907636,0.4785430620559704,Left,Correct,0.0,0.0,-45,45,1299,-1,-1
"{'cat': 'RB', 'resp': 'button'}",49,81,Right,60.883669411448054,30.114338004487987,3.0441834705724027,0.4730349152130969,Left,Incorrect,0.0,0.0,-45,45,910,-1,-1
"{'cat': 'RB', 'resp': 'button'}",49,82,Right,60.798158422249806,14.171931647981587,3.0399079211124906,0.22261218176237818,Left,Incorrect,0.0,0.0,-45,45,721,-1,-1
"{'cat': 'RB', 'resp': 'button'}",49,83,Right,57.017019653421386,36.00460966736306,2.850850982671069,0.5655590861317792,Right,Correct,0.0,0.0,-45,45,2919,-1,-1
"{'cat': 'RB', 'resp': 'button'}",49,84,Right,65.93915168958371,70.08038067670041,3.2969575844791854,1.1008200454734907,Right,Correct,0.0,0.0,-45,45,4846,-1,-1
"{'cat': 'RB', 'resp': 'button'}",49,85,Right,62.133068697570344,62.91646784755902,3.1066534348785173,0.9882895658985493,Right,Correct,0.0,0.0,-45,45,3602,-1,-1
"{'cat': 'RB', 'resp': 'button'}",49,86,Right,51.39252548320006,34.4253417684708,2.569626274160003,0.5407520039857286,Right,Correct,0.0,0.0,-45,45,3767,-1,-1
"{'cat': 'RB', 'resp': 'button'}",49,87,Left,41.46800661475892,70.30548322188423,2.073400330737946,1.1043559479847598,Right,Incorrect,0.0,0.0,-45,45,1645,-1,-1
"{'cat': 'RB', 'resp': 'button'}",49,88,Right,57.156247587758415,74.59029926948182,2.8578123793879207,1.1716616810703409,Left,Incorrect,0.0,0.0,-45,45,1382,-1,-1
"{'cat': 'RB', 'resp': 'button'}",49,89,Right,55.28115786527313,57.04545116992064,2.7640578932636566,0.8960678515806897,Right,Correct,0.0,0.0,-45,45,1204,-1,-1
"{'cat': 'RB', 'resp': 'button'}",49,90,Left,44.47678443561002,84.3837722966355,2.223839221780501,1.32549719564652,Right,Incorrect,0.0,0.0,-45,45,1118,-1,-1
"{'cat': 'RB', 'resp': 'button'}",49,91,Right,56.91614191139615,32.262645963195055,2.845807095569808,0.5067804577167099,Left,Incorrect,0.0,0.0,-45,45,598,-1,-1
"{'cat': 'RB', 'resp': 'button'}",49,92,Right,67.3959947143118,71.49269173082138,3.3697997357155898,1.123004575634541,Right,Correct,0.0,0.0,-45,45,2276,-1,-1
"{'cat': 'RB', 'resp': 'button'}",49,93,Right,59.15485741156335,89.00777192888961,2.9577428705781674,1.3981308120209772,Right,Correct,0.0,0.0,-45,45,585,-1,-1
"{'cat': 'RB', 'resp': 'button'}",49,94,Left,42.191009596750504,75.25835816610379,2.1095504798375253,1.1821555256793053,Right,Incorrect,0.0,0.0,-45,45,981,-1,-1
"{'cat': 'RB', 'resp': 'button'}",49,95,Right,57.94286195463399,47.23073314679338,2.8971430977316994,0.7418986213881301,Left,Incorrect,0.0,0.0,-45,45,4154,-1,-1
"{'cat': 'RB', 'resp': 'button'}",49,96,Right,61.92329660297955,88.68547557055977,3.0961648301489775,1.3930681926629382,Right,Correct,0.0,0.0,-45,45,672,-1,-1
"{'cat': 'RB', 'resp': 'button'}",49,97,Right,59.75843485651379,81.55230360810236,2.987921742825689,1.2810205894926938,Right,Correct,0.0,0.0,-45,45,758,-1,-1
"{'cat': 'RB', 'resp': 'button'}",49,98,Left,44.68279479677193,45.34903639101591,2.2341397398385965,0.7123409978669588,Right,Incorrect,0.0,0.0,-45,45,733,-1,-1
"{'cat': 'RB', 'resp': 'button'}",49,99,Left,43.76260050996723,26.28544635300027,2.1881300254983613,0.4128908257945713,Right,Incorrect,0.0,0.0,-45,45,1492,-1,-1
"{'cat': 'RB', 'resp': 'button'}",49,100,Right,54.85264594678247,32.32951433189416,2.7426322973391235,0.507830823596023,Left,Incorrect,0.0,0.0,-45,45,2863,-1,-1
"{'cat': 'RB', 'resp': 'button'}",49,101,Left,38.804758108617854,62.6069437031948,1.9402379054308927,0.9834275720083328,Left,Correct,0.0,0.0,-45,45,1048,-1,-1
"{'cat': 'RB', 'resp': 'button'}",49,102,Right,56.51654871819003,81.97499071136852,2.8258274359095013,1.2876601429846342,Right,Correct,0.0,0.0,-45,45,4150,-1,-1
"{'cat': 'RB', 'resp': 'button'}",49,103,Right,54.63803056963634,54.22608087850397,2.731901528481817,0.8517812866043702,Left,Incorrect,0.0,0.0,-45,45,3023,-1,-1
"{'cat': 'RB', 'resp': 'button'}",49,104,Left,45.91763969529929,41.86954904941094,2.2958819847649647,0.6576853385137346,Left,Correct,0.0,0.0,-45,45,1629,-1,-1
"{'cat': 'RB', 'resp': 'button'}",49,105,Left,34.66898757804228,83.54848895963204,1.733449378902114,1.3123765956705398,Left,Correct,0.0,0.0,-45,45,1390,-1,-1
"{'cat': 'RB', 'resp': 'button'}",49,106,Left,45.664670961443434,56.242567597884545,2.2832335480721717,0.8834561859227071,Left,Correct,0.0,0.0,-45,45,2211,-1,-1
"{'cat': 'RB', 'resp': 'button'}",49,107,Left,37.05203407528742,65.5284014499366,1.8526017037643712,1.029317722983018,Right,Incorrect,0.0,0.0,-45,45,2180,-1,-1
"{'cat': 'RB', 'resp': 'button'}",49,108,Left,31.189920643483106,45.34786188390645,1.5594960321741553,0.7123225487524255,Left,Correct,0.0,0.0,-45,45,1193,-1,-1
"{'cat': 'RB', 'resp': 'button'}",49,109,Left,45.899745176458865,73.03662849411158,2.294987258822943,1.1472566776003397,Left,Correct,0.0,0.0,-45,45,1227,-1,-1
"{'cat': 'RB', 'resp': 'button'}",49,110,Right,59.30947985318794,23.785542117885093,2.965473992659397,0.37362242189599204,Left,Incorrect,0.0,0.0,-45,45,1016,-1,-1
"{'cat': 'RB', 'resp': 'button'}",49,111,Left,39.00736606074192,73.38181602323561,1.9503683030370962,1.152678870628374,Left,Correct,0.0,0.0,-45,45,3706,-1,-1
"{'cat': 'RB', 'resp': 'button'}",49,112,Left,42.40912096797084,23.962268297604616,2.120456048398542,0.3763984302355114,Left,Correct,0.0,0.0,-45,45,1087,-1,-1
"{'cat': 'RB', 'resp': 'button'}",49,113,Right,61.075288416677644,91.04966167475061,3.053764420833882,1.4302047411461634,Right,Correct,0.0,0.0,-45,45,1712,-1,-1
"{'cat': 'RB', 'resp': 'button'}",49,114,Left,38.514981524294335,16.614515256695718,1.925749076214717,0.260980195366954,Left,Correct,0.0,0.0,-45,45,3585,-1,-1
"{'cat': 'RB', 'resp': 'button'}",49,115,Left,39.67715942384488,50.83996041248169,1.9838579711922437,0.798592230703242,Left,Correct,0.0,0.0,-45,45,1044,-1,-1
"{'cat': 'RB', 'resp': 'button'}",49,116,Right,67.68634082822199,43.354395942207475,3.3843170414110997,0.6810092589643107,Left,Incorrect,0.0,0.0,-45,45,782,-1,-1
"{'cat': 'RB', 'resp': 'button'}",49,117,Right,67.47067702938878,57.160865857367696,3.3735338514694386,0.8978807812516899,Left,Incorrect,0.0,0.0,-45,45,1162,-1,-1
"{'cat': 'RB', 'resp': 'button'}",49,118,Left,33.08262673934768,64.15059427052526,1.6541313369673842,1.0076751784185083,Right,Incorrect,0.0,0.0,-45,45,999,-1,-1
"{'cat': 'RB', 'resp': 'button'}",49,119,Left,43.82980935744118,74.51853171620671,2.191490467872059,1.170534358979665,Left,Correct,0.0,0.0,-45,45,902,-1,-1
"{'cat': 'RB', 'resp': 'button'}",49,120,Right,50.84422755808567,40.38456857962008,2.5422113779042834,0.6343593198406381,Left,Incorrect,0.0,0.0,-45,45,1345,-1,-1
"{'cat': 'RB', 'resp': 'button'}",49,121,Right,56.31612417627821,31.338094631672714,2.8158062088139104,0.4922576393618237,Right,Correct,0.0,0.0,-45,45,4348,-1,-1
"{'cat': 'RB', 'resp': 'button'}",49,122,Right,56.84093717704241,70.93224083293225,2.842046858852121,1.1142010335170094,Left,Incorrect,0.0,0.0,-45,45,1256,-1,-1
"{'cat': 'RB', 'resp': 'button'}",49,123,Right,57.44897043384479,83.4859761166527,2.87244852169224,1.3113946462292452,Left,Incorrect,0.0,0.0,-45,45,831,-1,-1
"{'cat': 'RB', 'resp': 'button'}",49,124,Right,60.22171632140033,11.723904555232124,3.0110858160700165,0.18415866211052573,Left,Incorrect,0.0,0.0,-45,45,801,-1,-1
"{'cat': 'RB', 'resp': 'button'}",49,125,Left,43.040499491807026,37.762868034666916,2.1520249745903515,0.5931777439809521,Right,Incorrect,0.0,0.0,-45,45,832,-1,-1
"{'cat': 'RB', 'resp': 'button'}",49,126,Left,33.40453809940701,58.64298143487825,1.6702269049703506,0.9211617983020806,Left,Correct,0.0,0.0,-45,45,1221,-1,-1
"{'cat': 'RB', 'resp': 'button'}",49,127,Left,43.9527037765658,37.86504675173303,2.19763518882829,0.5947827635153927,Left,Correct,0.0,0.0,-45,45,818,-1,-1
"{'cat': 'RB', 'resp': 'button'}",49,128,Left,35.139339769493766,67.3858668972216,1.7569669884746884,1.058494722000455,Left,Correct,0.0,0.0,-45,45,1570,-1,-1
"{'cat': 'RB', 'resp': 'button'}",49,129,Right,58.04606235177643,20.725804516161464,2.902303117588821,0.325560176038555,Left,Incorrect,0.0,0.0,-45,45,3362,-1,-1
"{'cat': 'RB', 'resp': 'button'}",49,130,Left,48.02726273901449,41.904709770146425,2.4013631369507245,0.6582376418235222,Right,Incorrect,0.0,0.0,-45,45,2788,-1,-1
"{'cat': 'RB', 'resp': 'button'}",49,131,Left,48.02439185437798,70.15415670069723,2.401219592718899,1.101978916548488,Left,Correct,0.0,0.0,-45,45,4097,-1,-1
"{'cat': 'RB', 'resp': 'button'}",49,132,Left,45.37337042950229,59.14804087064798,2.2686685214751146,0.9290952533672827,Right,Incorrect,0.0,0.0,-45,45,2071,-1,-1
"{'cat': 'RB', 'resp': 'button'}",49,133,Left,38.574835315269304,10.702411796324341,1.9287417657634651,0.16811309137512645,Right,Incorrect,0.0,0.0,-45,45,1108,-1,-1
"{'cat': 'RB', 'resp': 'button'}",49,134,Right,64.35796072659332,15.09784874018952,3.217898036329666,0.23715645343594652,Left,Incorrect,0.0,0.0,-45,45,924,-1,-1
"{'cat': 'RB', 'resp': 'button'}",49,135,Right,59.206306841957115,18.74776453927778,2.960315342097856,0.29448919673913154,Left,Incorrect,0.0,0.0,-45,45,1200,-1,-1
"{'cat': 'RB', 'resp': 'button'}",49,136,Left,33.46436031933292,33.33611388903093,1.6732180159666459,0.5236424524650612,Left,Correct,0.0,0.0,-45,45,2092,-1,-1
"{'cat': 'RB', 'resp': 'button'}",49,137,Right,66.60731414610609,34.48170318712834,3.3303657073053046,0.5416373270797308,Left,Incorrect,0.0,0.0,-45,45,4483,-1,-1
"{'cat': 'RB', 'resp': 'button'}",49,138,Left,48.41366471821998,60.30617292726048,2.420683235910999,0.9472871491719859,Right,Incorrect,0.0,0.0,-45,45,1049,-1,-1
"{'cat': 'RB', 'resp': 'button'}",49,139,Right,63.38110101490769,28.637300496391585,3.1690550507453845,0.44983366429053573,Left,Incorrect,0.0,0.0,-45,45,1416,-1,-1
"{'cat': 'RB', 'resp': 'button'}",49,140,Left,38.97118223947026,59.54883774336726,1.948559111973513,0.9353909559218659,Left,Correct,0.0,0.0,-45,45,1675,-1,-1
"{'cat': 'RB', 'resp': 'button'}",49,141,Left,37.168014514992706,49.920196044249934,1.8584007257496353,0.7841446057918892,Left,Correct,0.0,0.0,-45,45,1343,-1,-1
"{'cat': 'RB', 'resp': 'button'}",49,142,Left,37.87254606214782,85.28961508340991,1.893627303107391,1.3397261408677088,Left,Correct,0.0,0.0,-45,45,3654,-1,-1
"{'cat': 'RB', 'resp': 'button'}",49,143,Right,67.84267563997096,43.37908338538431,3.392133781998548,0.6813970484149121,Left,Incorrect,0.0,0.0,-45,45,7036,-1,-1
"{'cat': 'RB', 'resp': 'button'}",49,144,Right,55.61194961714173,64.7142990448226,2.7805974808570864,1.0165298323071381,Left,Incorrect,0.0,0.0,-45,45,1634,-1,-1
"{'cat': 'RB', 'resp': 'button'}",49,145,Left,45.15003614925734,20.650128818261415,2.257501807462867,0.32437146495566466,Right,Incorrect,0.0,0.0,-45,45,1030,-1,-1
"{'cat': 'RB', 'resp': 'button'}",49,146,Right,52.22213949781496,65.463266726082,2.6111069748907476,1.028294589133242,Left,Incorrect,0.0,0.0,-45,45,705,-1,-1
"{'cat': 'RB', 'resp': 'button'}",49,147,Left,42.62337076033334,87.45363740512506,2.131168538016667,1.3737185240082324,Right,Incorrect,0.0,0.0,-45,45,1344,-1,-1
"{'cat': 'RB', 'resp': 'button'}",49,148,Right,53.92254682802887,67.26749740646548,2.6961273414014437,1.0566353783876121,Left,Incorrect,0.0,0.0,-45,45,728,-1,-1
"{'cat': 'RB', 'resp': 'button'}",49,149,Right,65.96391754391455,68.71095831735423,3.2981958771957274,1.0793092093545726,Left,Incorrect,0.0,0.0,-45,45,1404,-1,-1
"{'cat': 'RB', 'resp': 'button'}",49,150,Right,62.95045948514121,24.202577581784023,3.1475229742570603,0.38017319964434854,Right,Correct,0.0,0.0,-45,45,1310,-1,-1
"{'cat': 'RB', 'resp': 'button'}",49,151,Right,64.25976675632917,86.44833218928875,3.2129883378164585,1.3579272266047977,Left,Incorrect,0.0,0.0,-45,45,2325,-1,-1
"{'cat': 'RB', 'resp': 'button'}",49,152,Left,38.795209497590065,22.02313522865281,1.9397604748795032,0.34593859921675113,Left,Correct,0.0,0.0,-45,45,1189,-1,-1
"{'cat': 'RB', 'resp': 'button'}",49,153,Left,43.81421158399985,65.7949371451009,2.1907105791999926,1.033504455892256,Left,Correct,0.0,0.0,-45,45,1381,-1,-1
"{'cat': 'RB', 'resp': 'button'}",49,154,Right,68.48517561494018,59.94801214832137,3.424258780747009,0.9416611728123903,Left,Incorrect,0.0,0.0,-45,45,3861,-1,-1
"{'cat': 'RB', 'resp': 'button'}",49,155,Right,61.60773745476699,49.40521111775333,3.08038687273835,0.7760552414829333,Left,Incorrect,0.0,0.0,-45,45,7897,-1,-1
"{'cat': 'RB', 'resp': 'button'}",49,156,Right,55.37267549017282,32.642049387124885,2.768633774508641,0.5127401127635338,Right,Correct,0.0,0.0,-45,45,2661,-1,-1
"{'cat': 'RB', 'resp': 'button'}",49,157,Right,64.11650119935125,54.34841642272171,3.2058250599675624,0.853702928839307,Left,Incorrect,0.0,0.0,-45,45,715,-1,-1
"{'cat': 'RB', 'resp': 'button'}",49,158,Left,47.29987978761976,25.000840004658816,2.364993989380988,0.3927122764610498,Right,Incorrect,0.0,0.0,-45,45,838,-1,-1
"{'cat': 'RB', 'resp': 'button'}",49,159,Left,46.49726731570661,53.29897126072596,2.3248633657853306,0.837218282782951,Left,Correct,0.0,0.0,-45,45,849,-1,-1
"{'cat': 'RB', 'resp': 'button'}",49,160,Left,43.89576272946651,86.43809290913279,2.194788136473326,1.3577663883682178,Left,Correct,0.0,0.0,-45,45,853,-1,-1
"{'cat': 'RB', 'resp': 'button'}",49,161,Right,60.64839977345418,82.741372911268,3.032419988672709,1.299698446429865,Left,Incorrect,0.0,0.0,-45,45,1188,-1,-1
"{'cat': 'RB', 'resp': 'button'}",49,162,Right,60.78353960289,30.175745281046567,3.0391769801445,0.47399949845766376,Left,Incorrect,0.0,0.0,-45,45,645,-1,-1
"{'cat': 'RB', 'resp': 'button'}",49,163,Left,34.22686416656646,50.15808551466666,1.7113432083283229,0.7878813648550269,Left,Correct,0.0,0.0,-45,45,1380,-1,-1
"{'cat': 'RB', 'resp': 'button'}",49,164,Left,41.96125434666325,12.49590237488573,2.0980627173331627,0.19628517550458133,Left,Correct,0.0,0.0,-45,45,1629,-1,-1
"{'cat': 'RB', 'resp': 'button'}",49,165,Right,61.77222229457664,83.32462238799909,3.0886111147288324,1.3088601077864077,Right,Correct,0.0,0.0,-45,45,1008,-1,-1
"{'cat': 'RB', 'resp': 'button'}",49,166,Left,38.911295663349264,77.47397074633068,1.9455647831674634,1.216958286705515,Left,Correct,0.0,0.0,-45,45,2143,-1,-1
"{'cat': 'RB', 'resp': 'button'}",49,167,Left,45.306810020851046,16.71468818807037,2.2653405010425525,0.26255370809342976,Right,Incorrect,0.0,0.0,-45,45,822,-1,-1
"{'cat': 'RB', 'resp': 'button'}",49,168,Right,57.902773909984006,48.54464934327014,2.8951386954992007,0.7625375687395503,Left,Incorrect,0.0,0.0,-45,45,945,-1,-1
"{'cat': 'RB', 'resp': 'button'}",49,169,Left,42.657753384548364,60.717772436208406,2.132887669227418,0.9537525391396457,Left,Correct,0.0,0.0,-45,45,634,-1,-1
"{'cat': 'RB', 'resp': 'button'}",49,170,Left,38.483808566763486,69.37605156072797,1.9241904283381743,1.0897564695912487,Left,Correct,0.0,0.0,-45,45,683,-1,-1
"{'cat': 'RB', 'resp': 'button'}",49,171,Right,62.12309194192132,38.27366005019624,3.1061545970960656,0.6012012461984484,Right,Correct,0.0,0.0,-45,45,2794,-1,-1
"{'cat': 'RB', 'resp': 'button'}",49,172,Left,46.26846430704326,71.4365978663983,2.313423215352163,1.122123455272626,Left,Correct,0.0,0.0,-45,45,625,-1,-1
"{'cat': 'RB', 'resp': 'button'}",49,173,Right,55.52818663256941,25.351936198059928,2.77640933162847,0.39822728257051104,Left,Incorrect,0.0,0.0,-45,45,691,-1,-1
"{'cat': 'RB', 'resp': 'button'}",49,174,Left,34.68794633864724,20.071158030365833,1.7343973169323619,0.3152770130861854,Left,Correct,0.0,0.0,-45,45,965,-1,-1
"{'cat': 'RB', 'resp': 'button'}",49,175,Right,55.327203850388806,48.17545482229791,2.7663601925194405,0.7567382747653905,Left,Incorrect,0.0,0.0,-45,45,1078,-1,-1
"{'cat': 'RB', 'resp': 'button'}",49,176,Left,37.24153849019753,50.304452480396684,1.8620769245098763,0.7901804917763553,Left,Correct,0.0,0.0,-45,45,977,-1,-1
"{'cat': 'RB', 'resp': 'button'}",49,177,Right,66.26961797582418,43.14995542232641,3.3134808987912088,0.6777979147875384,Left,Incorrect,0.0,0.0,-45,45,1743,-1,-1
"{'cat': 'RB', 'resp': 'button'}",49,178,Right,56.52601006961572,48.29178757930151,2.826300503480786,0.7585656254392622,Left,Incorrect,0.0,0.0,-45,45,2481,-1,-1
"{'cat': 'RB', 'resp': 'button'}",49,179,Left,35.0249442087579,58.31851890688327,1.751247210437895,0.9160651528305097,Right,Incorrect,0.0,0.0,-45,45,778,-1,-1
"{'cat': 'RB', 'resp': 'button'}",49,180,Right,65.65803364660223,69.7046313792678,3.282901682330112,1.0949177893114614,Right,Correct,0.0,0.0,-45,45,869,-1,-1
"{'cat': 'RB', 'resp': 'button'}",49,181,Right,56.67950906859515,21.861140624262678,2.833975453429758,0.3433939939213851,Left,Incorrect,0.0,0.0,-45,45,1472,-1,-1
"{'cat': 'RB', 'resp': 'button'}",49,182,Right,65.13613314446707,21.432472905743968,3.256806657223353,0.33666049714473767,Left,Incorrect,0.0,0.0,-45,45,1380,-1,-1
"{'cat': 'RB', 'resp': 'button'}",49,183,Right,53.346082652278895,29.269283742367445,2.6673041326139444,0.45976083390428363,Right,Correct,0.0,0.0,-45,45,823,-1,-1
"{'cat': 'RB', 'resp': 'button'}",49,184,Left,37.44598785149684,68.08060729878753,1.8722993925748421,1.0694076787090128,Left,Correct,0.0,0.0,-45,45,2187,-1,-1
"{'cat': 'RB', 'resp': 'button'}",49,185,Left,42.64950066752502,68.51901556366107,2.132475033376251,1.0762941796300116,Right,Incorrect,0.0,0.0,-45,45,2626,-1,-1
"{'cat': 'RB', 'resp': 'button'}",49,186,Right,57.58055795349341,35.251542304817136,2.879027897674671,0.5537299316626165,Right,Correct,0.0,0.0,-45,45,628,-1,-1
"{'cat': 'RB', 'resp': 'button'}",49,187,Right,52.91372501185717,69.08799841307489,2.6456862505928584,1.0852317413286967,Right,Correct,0.0,0.0,-45,45,1498,-1,-1
"{'cat': 'RB', 'resp': 'button'}",49,188,Left,37.83427205503886,26.016938843265887,1.891713602751943,0.40867311969449516,Right,Incorrect,0.0,0.0,-45,45,963,-1,-1
"{'cat': 'RB', 'resp': 'button'}",49,189,Right,54.245374554103094,58.686437065615294,2.7122687277051547,0.9218443977534837,Left,Incorrect,0.0,0.0,-45,45,706,-1,-1
"{'cat': 'RB', 'resp': 'button'}",49,190,Left,42.84877224455882,59.99683567496011,2.142438612227941,0.9424280909754434,Left,Correct,0.0,0.0,-45,45,1479,-1,-1
"{'cat': 'RB', 'resp': 'button'}",49,191,Right,54.86324315338956,28.54682914175157,2.7431621576694782,0.4484125435750487,Left,Incorrect,0.0,0.0,-45,45,2345,-1,-1
"{'cat': 'RB', 'resp': 'button'}",49,192,Left,46.410048804072446,41.081687319291646,2.3205024402036223,0.6453096353967981,Right,Incorrect,0.0,0.0,-45,45,5350,-1,-1
"{'cat': 'RB', 'resp': 'button'}",49,193,Right,54.18887549207611,57.725266535430904,2.709443774603806,0.9067463663711122,Left,Incorrect,0.0,0.0,-45,45,1166,-1,-1
"{'cat': 'RB', 'resp': 'button'}",49,194,Left,48.56745459906681,63.3704162108242,2.4283727299533404,0.9954201701142643,Right,Incorrect,0.0,0.0,-45,45,747,-1,-1
"{'cat': 'RB', 'resp': 'button'}",49,195,Right,55.44913274243419,79.78058218856444,2.772456637121709,1.2531904545135537,Left,Incorrect,0.0,0.0,-45,45,1721,-1,-1
"{'cat': 'RB', 'resp': 'button'}",49,196,Left,39.623260892624394,89.2337506686064,1.9811630446312196,1.401680477763786,Left,Correct,0.0,0.0,-45,45,5253,-1,-1
"{'cat': 'RB', 'resp': 'button'}",49,197,Right,57.28686628645594,31.420600751950335,2.864343314322797,0.49355364246852557,Left,Incorrect,0.0,0.0,-45,45,947,-1,-1
"{'cat': 'RB', 'resp': 'button'}",49,198,Left,47.378434271422535,65.11690285789497,2.3689217135711265,1.0228539182144152,Left,Correct,0.0,0.0,-45,45,1122,-1,-1
"{'cat': 'RB', 'resp': 'button'}",49,199,Right,59.78707816421644,63.714138157078736,2.989353908210822,1.0008193418204183,Left,Incorrect,0.0,0.0,-45,45,2850,-1,-1
"{'cat': 'RB', 'resp': 'button'}",49,200,Right,65.00637838725183,26.09782269615639,3.250318919362592,0.4099436402846694,Left,Incorrect,0.0,0.0,-45,45,1207,-1,-1
"{'cat': 'RB', 'resp': 'button'}",49,201,Right,53.52270331464191,73.39002163278977,2.6761351657320955,1.1528077640418417,Right,Correct,0.0,0.0,-45,45,4981,-1,-1
"{'cat': 'RB', 'resp': 'button'}",49,202,Left,40.908890951806264,42.03008299072113,2.045444547590313,0.6602069997670941,Left,Correct,0.0,0.0,-45,45,1174,-1,-1
"{'cat': 'RB', 'resp': 'button'}",49,203,Left,44.84625165711138,74.57020434963438,2.2423125828555692,1.171346030807505,Left,Correct,0.0,0.0,-45,45,1241,-1,-1
"{'cat': 'RB', 'resp': 'button'}",49,204,Left,39.16925268425285,84.44097215653585,1.9584626342126423,1.3263956889447666,Left,Correct,0.0,0.0,-45,45,2983,-1,-1
"{'cat': 'RB', 'resp': 'button'}",49,205,Left,41.150828942186415,56.42247856233983,2.0575414471093207,0.8862822207438721,Left,Correct,0.0,0.0,-45,45,1878,-1,-1
"{'cat': 'RB', 'resp': 'button'}",49,206,Right,65.62182961588573,69.24894681683564,3.2810914807942866,1.0877599129430058,Left,Incorrect,0.0,0.0,-45,45,1767,-1,-1
"{'cat': 'RB', 'resp': 'button'}",49,207,Left,30.908207087508494,53.44270185382707,1.5454103543754245,0.8394759976598637,Left,Correct,0.0,0.0,-45,45,1327,-1,-1
"{'cat': 'RB', 'resp': 'button'}",49,208,Right,55.152593232494944,50.471979844436724,2.757629661624747,0.7928120054570726,Left,Incorrect,0.0,0.0,-45,45,2399,-1,-1
"{'cat': 'RB', 'resp': 'button'}",49,209,Left,48.38704305721309,47.26084035039563,2.4193521528606543,0.7423715442364149,Left,Correct,0.0,0.0,-45,45,9551,-1,-1
"{'cat': 'RB', 'resp': 'button'}",49,210,Right,60.08534716740735,70.41957296041376,3.0042673583703676,1.1061480654068316,Left,Incorrect,0.0,0.0,-45,45,4567,-1,-1
"{'cat': 'RB', 'resp': 'button'}",49,211,Left,43.680003050551306,23.756319822902412,2.1840001525275654,0.37316339915979896,Left,Correct,0.0,0.0,-45,45,4388,-1,-1
"{'cat': 'RB', 'resp': 'button'}",49,212,Right,62.43069655232496,42.97548411714093,3.121534827616248,0.6750573259343738,Left,Incorrect,0.0,0.0,-45,45,1294,-1,-1
"{'cat': 'RB', 'resp': 'button'}",49,213,Right,60.5359380506692,10.05187298716298,3.02679690253346,0.15789445165644456,Right,Correct,0.0,0.0,-45,45,770,-1,-1
"{'cat': 'RB', 'resp': 'button'}",49,214,Left,32.29073143053589,42.63676317357991,1.6145365715267945,0.6697367097948324,Right,Incorrect,0.0,0.0,-45,45,2110,-1,-1
"{'cat': 'RB', 'resp': 'button'}",49,215,Left,44.00139759538344,74.77573202211812,2.200069879769172,1.1745744519374266,Right,Incorrect,0.0,0.0,-45,45,2263,-1,-1
"{'cat': 'RB', 'resp': 'button'}",49,216,Right,58.87743272965257,46.22217907255389,2.9438716364826285,0.7260562910362359,Left,Incorrect,0.0,0.0,-45,45,864,-1,-1
"{'cat': 'RB', 'resp': 'button'}",49,217,Left,45.21616757646076,16.963119699054026,2.2608083788230378,0.26645606114256215,Right,Incorrect,0.0,0.0,-45,45,910,-1,-1
"{'cat': 'RB', 'resp': 'button'}",49,218,Left,33.82506015490589,43.14100773910134,1.6912530077452945,0.6776573649081059,Left,Correct,0.0,0.0,-45,45,1429,-1,-1
"{'cat': 'RB', 'resp': 'button'}",49,219,Right,58.3000004363212,10.348930675254849,2.9150000218160597,0.16256062290945344,Left,Incorrect,0.0,0.0,-45,45,1335,-1,-1
"{'cat': 'RB', 'resp': 'button'}",49,220,Left,33.28142429723881,29.92121352603173,1.6640712148619403,0.47000132299936415,Right,Incorrect,0.0,0.0,-45,45,8933,-1,-1
"{'cat': 'RB', 'resp': 'button'}",49,221,Left,36.74456363778697,47.964520805797946,1.8372281818893483,0.7534249309822482,Left,Correct,0.0,0.0,-45,45,1113,-1,-1
"{'cat': 'RB', 'resp': 'button'}",49,222,Right,58.93838412050095,73.9255405812052,2.9469192060250475,1.1612196760128417,Right,Correct,0.0,0.0,-45,45,1500,-1,-1
"{'cat': 'RB', 'resp': 'button'}",49,223,Left,45.44359101949492,62.06028031138533,2.272179550974746,0.974840603529857,Left,Correct,0.0,0.0,-45,45,1035,-1,-1
"{'cat': 'RB', 'resp': 'button'}",49,224,Right,61.35651679702726,68.4848741541921,3.0678258398513627,1.075757887624157,Right,Correct,0.0,0.0,-45,45,938,-1,-1
"{'cat': 'RB', 'resp': 'button'}",49,225,Left,38.899808590869995,31.254959598118823,1.9449904295434999,0.4909517573084795,Left,Correct,0.0,0.0,-45,45,796,-1,-1
"{'cat': 'RB', 'resp': 'button'}",49,226,Right,54.47651665511134,48.0199953489555,2.7238258327555673,0.754296323068473,Right,Correct,0.0,0.0,-45,45,1686,-1,-1
"{'cat': 'RB', 'resp': 'button'}",49,227,Right,52.67115254488555,69.22725393721973,2.6335576272442776,1.087419161986823,Left,Incorrect,0.0,0.0,-45,45,1908,-1,-1
"{'cat': 'RB', 'resp': 'button'}",49,228,Left,47.13099714524788,50.64666148340634,2.356549857262394,0.7955558982255925,Right,Incorrect,0.0,0.0,-45,45,871,-1,-1
"{'cat': 'RB', 'resp': 'button'}",49,229,Left,40.2570637448318,58.04178597617462,2.0128531872415896,0.9117182421199063,Left,Correct,0.0,0.0,-45,45,1311,-1,-1
"{'cat': 'RB', 'resp': 'button'}",49,230,Right,57.5757593316057,66.70389635087597,2.878787966580285,1.0477823537086346,Left,Incorrect,0.0,0.0,-45,45,1284,-1,-1
"{'cat': 'RB', 'resp': 'button'}",49,231,Left,43.80519228496552,27.40908368919849,2.190259614248276,0.43054087979806904,Left,Correct,0.0,0.0,-45,45,1081,-1,-1
"{'cat': 'RB', 'resp': 'button'}",49,232,Left,44.70760681556681,42.175330742617845,2.2353803407783404,0.6624885461186398,Left,Correct,0.0,0.0,-45,45,1676,-1,-1
"{'cat': 'RB', 'resp': 'button'}",49,233,Left,36.03609987788244,52.42707388455777,1.801804993894122,0.82352255082468,Left,Correct,0.0,0.0,-45,45,1014,-1,-1
"{'cat': 'RB', 'resp': 'button'}",49,234,Right,65.08563522203369,70.83575057113262,3.2542817611016845,1.1126853680289461,Left,Incorrect,0.0,0.0,-45,45,1932,-1,-1
"{'cat': 'RB', 'resp': 'button'}",49,235,Left,45.22217366630377,83.26013894822881,2.2611086833151886,1.3078472042831053,Left,Correct,0.0,0.0,-45,45,1341,-1,-1
"{'cat': 'RB', 'resp': 'button'}",49,236,Right,60.74840671634696,62.228468130182776,3.037420335817348,0.9774824916096438,Right,Correct,0.0,0.0,-45,45,578,-1,-1
"{'cat': 'RB', 'resp': 'button'}",49,237,Left,38.45966196464383,65.49953460932397,1.9229830982321914,1.028864283711013,Left,Correct,0.0,0.0,-45,45,1054,-1,-1
"{'cat': 'RB', 'resp': 'button'}",49,238,Right,63.721037138039875,45.749151477968574,3.1860518569019938,0.7186259909557634,Right,Correct,0.0,0.0,-45,45,753,-1,-1
"{'cat': 'RB', 'resp': 'button'}",49,239,Right,53.811554565782124,76.7044847417232,2.690577728289106,1.2048712288099401,Left,Incorrect,0.0,0.0,-45,45,1046,-1,-1
"{'cat': 'RB', 'resp': 'button'}",49,240,Left,32.60938334219072,60.368637168707814,1.6304691671095357,0.948268335182201,Left,Correct,0.0,0.0,-45,45,843,-1,-1
"{'cat': 'RB', 'resp': 'button'}",49,241,Left,40.13893709559376,30.123772208590005,2.006946854779688,0.4731831073445936,Left,Correct,0.0,0.0,-45,45,1150,-1,-1
"{'cat': 'RB', 'resp': 'button'}",49,242,Left,47.46243972574068,60.97637649868124,2.373121986287034,0.9578146822539115,Right,Incorrect,0.0,0.0,-45,45,428,-1,-1
"{'cat': 'RB', 'resp': 'button'}",49,243,Right,62.624505392467256,35.248318549231875,3.131225269623363,0.5536792930282985,Right,Correct,0.0,0.0,-45,45,1163,-1,-1
"{'cat': 'RB', 'resp': 'button'}",49,244,Right,61.04015261926965,70.44366690676776,3.052007630963482,1.1065265322311402,Right,Correct,0.0,0.0,-45,45,1013,-1,-1
"{'cat': 'RB', 'resp': 'button'}",49,245,Left,43.489442619261894,31.111283996593468,2.1744721309630948,0.4886949062372186,Left,Correct,0.0,0.0,-45,45,945,-1,-1
"{'cat': 'RB', 'resp': 'button'}",49,246,Left,39.47309661473316,65.5466712943586,1.973654830736658,1.0296047050281099,Left,Correct,0.0,0.0,-45,45,681,-1,-1
"{'cat': 'RB', 'resp': 'button'}",49,247,Left,36.580848002354614,55.38116830680093,1.8290424001177308,0.8699253574993283,Left,Correct,0.0,0.0,-45,45,591,-1,-1
"{'cat': 'RB', 'resp': 'button'}",49,248,Right,66.73142348089326,29.150428872713935,3.3365711740446624,0.4578938659775495,Right,Correct,0.0,0.0,-45,45,788,-1,-1
"{'cat': 'RB', 'resp': 'button'}",49,249,Right,65.32924028946138,57.8381646971848,3.266462014473069,0.9085197665489616,Right,Correct,0.0,0.0,-45,45,908,-1,-1
"{'cat': 'RB', 'resp': 'button'}",49,250,Right,60.738948562596654,41.22524422968925,3.036947428129833,0.6475646220721839,Right,Correct,0.0,0.0,-45,45,1176,-1,-1
"{'cat': 'RB', 'resp': 'button'}",49,251,Right,62.410566537131494,55.06539225761797,3.1205283268565744,0.8649651589178646,Left,Incorrect,0.0,0.0,-45,45,1104,-1,-1
"{'cat': 'RB', 'resp': 'button'}",49,252,Right,59.171619421021745,26.947626380486348,2.9585809710510875,0.4232923253430921,Right,Correct,0.0,0.0,-45,45,578,-1,-1
"{'cat': 'RB', 'resp': 'button'}",49,253,Right,63.501351727415205,52.390685988549436,3.1750675863707603,0.8229509710907831,Right,Correct,0.0,0.0,-45,45,513,-1,-1
"{'cat': 'RB', 'resp': 'button'}",49,254,Left,43.18418888223391,67.40173295359673,2.1592094441116956,1.058743945431203,Left,Correct,0.0,0.0,-45,45,922,-1,-1
"{'cat': 'RB', 'resp': 'button'}",49,255,Left,47.06912762026395,47.31123548847158,2.3534563810131974,0.7431631492141951,Right,Incorrect,0.0,0.0,-45,45,504,-1,-1
"{'cat': 'RB', 'resp': 'button'}",49,256,Right,61.88366749428233,53.27474292862532,3.0941833747141163,0.8368377050322705,Left,Incorrect,0.0,0.0,-45,45,581,-1,-1
"{'cat': 'RB', 'resp': 'button'}",49,257,Right,59.681281256990495,10.744825159737822,2.9840640628495247,0.16877931892969558,Left,Incorrect,0.0,0.0,-45,45,1660,-1,-1
"{'cat': 'RB', 'resp': 'button'}",49,258,Left,36.41648201832382,72.71270607542652,1.820824100916191,1.1421685161459696,Left,Correct,0.0,0.0,-45,45,803,-1,-1
"{'cat': 'RB', 'resp': 'button'}",49,259,Left,35.32685013391752,20.815139936033994,1.7663425066958758,0.3269634535324396,Left,Correct,0.0,0.0,-45,45,2208,-1,-1
"{'cat': 'RB', 'resp': 'button'}",49,260,Left,45.31713981146322,43.08194672188592,2.265856990573161,0.6767296366191183,Left,Correct,0.0,0.0,-45,45,1213,-1,-1
"{'cat': 'RB', 'resp': 'button'}",49,261,Left,33.968633165719645,26.537757413703496,1.6984316582859822,0.41685411866819494,Right,Incorrect,0.0,0.0,-45,45,2548,-1,-1
"{'cat': 'RB', 'resp': 'button'}",49,262,Right,59.67054641639395,12.658577955232374,2.9835273208196975,0.19884047754525866,Right,Correct,0.0,0.0,-45,45,1302,-1,-1
"{'cat': 'RB', 'resp': 'button'}",49,263,Left,34.937315455027615,29.609797071778466,1.7468657727513806,0.46510960477491897,Left,Correct,0.0,0.0,-45,45,2299,-1,-1
"{'cat': 'RB', 'resp': 'button'}",49,264,Left,49.10019441636354,46.36119816878164,2.455009720818177,0.7282399978933248,Right,Incorrect,0.0,0.0,-45,45,1012,-1,-1
"{'cat': 'RB', 'resp': 'button'}",49,265,Left,37.11408346482345,31.016875565711043,1.8557041732411728,0.48721194207273283,Left,Correct,0.0,0.0,-45,45,1479,-1,-1
"{'cat': 'RB', 'resp': 'button'}",49,266,Right,56.58643830515786,87.3976275969057,2.8293219152578932,1.3728387239980777,Right,Correct,0.0,0.0,-45,45,553,-1,-1
"{'cat': 'RB', 'resp': 'button'}",49,267,Left,43.76035091040772,60.92393426288497,2.1880175455203865,0.9569909215403344,Left,Correct,0.0,0.0,-45,45,1079,-1,-1
"{'cat': 'RB', 'resp': 'button'}",49,268,Left,45.6756483729104,18.521071899181624,2.2837824186455205,0.29092831707538674,Right,Incorrect,0.0,0.0,-45,45,1618,-1,-1
"{'cat': 'RB', 'resp': 'button'}",49,269,Right,58.41475268200269,79.98879029546177,2.9207376341001345,1.2564609798087862,Right,Correct,0.0,0.0,-45,45,513,-1,-1
"{'cat': 'RB', 'resp': 'button'}",49,270,Right,62.01289974725817,65.38283441760926,3.1006449873629083,1.0270311613861958,Right,Correct,0.0,0.0,-45,45,1148,-1,-1
"{'cat': 'RB', 'resp': 'button'}",49,271,Left,38.05908097255139,68.82753987766753,1.9029540486275696,1.0811404682216943,Left,Correct,0.0,0.0,-45,45,1112,-1,-1
"{'cat': 'RB', 'resp': 'button'}",49,272,Right,56.09134185733989,17.870928145120253,2.8045670928669946,0.28071588286770427,Right,Correct,0.0,0.0,-45,45,1037,-1,-1
"{'cat': 'RB', 'resp': 'button'}",49,273,Right,58.55488710789441,17.621475967318666,2.9277443553947204,0.2767974972216871,Right,Correct,0.0,0.0,-45,45,710,-1,-1
"{'cat': 'RB', 'resp': 'button'}",49,274,Right,56.93325358552901,44.53570258281825,2.8466626792764504,0.699565180283209,Left,Incorrect,0.0,0.0,-45,45,1373,-1,-1
"{'cat': 'RB', 'resp': 'button'}",49,275,Right,68.9949828004083,41.168045065841824,3.449749140020415,0.6466661397075111,Right,Correct,0.0,0.0,-45,45,582,-1,-1
"{'cat': 'RB', 'resp': 'button'}",49,276,Left,31.44778856709241,56.817059874575705,1.5723894283546205,0.8924802895026922,Left,Correct,0.0,0.0,-45,45,630,-1,-1
"{'cat': 'RB', 'resp': 'button'}",49,277,Right,57.01123940983717,12.57376551801238,2.8505619704918583,0.19750824689674173,Right,Correct,0.0,0.0,-45,45,856,-1,-1
"{'cat': 'RB', 'resp': 'button'}",49,278,Left,44.79614229364694,48.543106826880184,2.239807114682347,0.7625133389487566,Right,Incorrect,0.0,0.0,-45,45,789,-1,-1
"{'cat': 'RB', 'resp': 'button'}",49,279,Left,40.49862271679267,63.8364315748845,2.0249311358396334,1.0027403223352234,Left,Correct,0.0,0.0,-45,45,655,-1,-1
"{'cat': 'RB', 'resp': 'button'}",49,280,Right,56.19852483015596,60.252710551727624,2.809926241507798,0.9464473641408986,Left,Incorrect,0.0,0.0,-45,45,1298,-1,-1
"{'cat': 'RB', 'resp': 'button'}",49,281,Right,60.27199671761475,46.560719849494696,3.0135998358807377,0.731374077125125,Right,Correct,0.0,0.0,-45,45,1092,-1,-1
"{'cat': 'RB', 'resp': 'button'}",49,282,Right,64.96513474983712,77.65610423478839,3.248256737491856,1.2198192328520723,Left,Incorrect,0.0,0.0,-45,45,1232,-1,-1
"{'cat': 'RB', 'resp': 'button'}",49,283,Right,66.82864042441165,60.583995015447506,3.3414320212205824,0.9516511683282526,Right,Correct,0.0,0.0,-45,45,1171,-1,-1
"{'cat': 'RB', 'resp': 'button'}",49,284,Left,31.864053723089008,60.26009229493276,1.5932026861544504,0.9465633162920182,Left,Correct,0.0,0.0,-45,45,650,-1,-1
"{'cat': 'RB', 'resp': 'button'}",49,285,Right,59.028670894058344,68.56358961886558,2.951433544702917,1.0769943472518675,Right,Correct,0.0,0.0,-45,45,948,-1,-1
"{'cat': 'RB', 'resp': 'button'}",49,286,Right,57.89252866443283,14.617840543672749,2.8946264332216414,0.22961650231674666,Right,Correct,0.0,0.0,-45,45,742,-1,-1
"{'cat': 'RB', 'resp': 'button'}",49,287,Right,52.64611389712931,31.156688460046265,2.632305694856466,0.4894081178813361,Right,Correct,0.0,0.0,-45,45,607,-1,-1
"{'cat': 'RB', 'resp': 'button'}",49,288,Right,58.57097003667966,43.352842052717996,2.928548501833983,0.6809848505252876,Right,Correct,0.0,0.0,-45,45,660,-1,-1
"{'cat': 'RB', 'resp': 'button'}",49,289,Right,53.042271516771955,67.80199676547522,2.6521135758385976,1.0650312746856796,Right,Correct,0.0,0.0,-45,45,578,-1,-1
"{'cat': 'RB', 'resp': 'button'}",49,290,Right,61.70057440151243,22.58987595250488,3.0850287200756212,0.35484094168947033,Right,Correct,0.0,0.0,-45,45,720,-1,-1
"{'cat': 'RB', 'resp': 'button'}",49,291,Right,60.36007074432155,57.454777264550344,3.018003537216077,0.9024975308397462,Right,Correct,0.0,0.0,-45,45,419,-1,-1
"{'cat': 'RB', 'resp': 'button'}",49,292,Right,58.173369029774264,70.91422789323131,2.9086684514887136,1.1139180869218397,Right,Correct,0.0,0.0,-45,45,624,-1,-1
"{'cat': 'RB', 'resp': 'button'}",49,293,Left,35.50701363066579,29.444726833597894,1.7753506815332896,0.46251668753694697,Left,Correct,0.0,0.0,-45,45,603,-1,-1
"{'cat': 'RB', 'resp': 'button'}",49,294,Left,38.8934973832447,16.168683624741142,1.9446748691622349,0.2539770884685218,Left,Correct,0.0,0.0,-45,45,702,-1,-1
"{'cat': 'RB', 'resp': 'button'}",49,295,Right,60.086017242315776,83.36290642586452,3.004300862115789,1.3094614720469466,Right,Correct,0.0,0.0,-45,45,655,-1,-1
"{'cat': 'RB', 'resp': 'button'}",49,296,Left,43.09207791113115,49.89279650633443,2.1546038955565576,0.7837142148567537,Left,Correct,0.0,0.0,-45,45,568,-1,-1
"{'cat': 'RB', 'resp': 'button'}",49,297,Right,54.869703439590026,81.2480310041905,2.743485171979501,1.276241086607003,Right,Correct,0.0,0.0,-45,45,458,-1,-1
"{'cat': 'RB', 'resp': 'button'}",49,298,Right,62.156371358644556,62.88164536373149,3.107818567932228,0.9877425756016874,Right,Correct,0.0,0.0,-45,45,547,-1,-1
"{'cat': 'RB', 'resp': 'button'}",49,299,Left,40.62466690018974,21.376745194953713,2.031233345009487,0.3357851283106375,Left,Correct,0.0,0.0,-45,45,510,-1,-1
"{'cat': 'RB', 'resp': 'button'}",49,300,Right,60.32837248642965,48.82905622802213,3.0164186243214823,0.7670050216383862,Right,Correct,0.0,0.0,-45,45,629,-1,-1
"{'cat': 'RB', 'resp': 'button'}",49,301,Left,33.46649452964088,28.652850730987332,1.6733247264820443,0.4500779268043737,Left,Correct,0.0,0.0,-45,45,483,-1,-1
"{'cat': 'RB', 'resp': 'button'}",49,302,Right,56.83015292222687,80.39514283779266,2.841507646111344,1.2628439506175573,Right,Correct,0.0,0.0,-45,45,401,-1,-1
"{'cat': 'RB', 'resp': 'button'}",49,303,Right,54.24400770467706,74.00577082891965,2.712200385233853,1.1624799297969193,Right,Correct,0.0,0.0,-45,45,651,-1,-1
"{'cat': 'RB', 'resp': 'button'}",49,304,Right,51.83305517328567,51.08634716950391,2.5916527586642837,0.8024624648322559,Right,Correct,0.0,0.0,-45,45,392,-1,-1
"{'cat': 'RB', 'resp': 'button'}",49,305,Left,31.863605128153132,61.479376017783764,1.5931802564076565,0.9657157802237699,Left,Correct,0.0,0.0,-45,45,544,-1,-1
"{'cat': 'RB', 'resp': 'button'}",49,306,Left,32.25807274232966,61.26874602377453,1.6129036371164829,0.9624072120147448,Left,Correct,0.0,0.0,-45,45,609,-1,-1
"{'cat': 'RB', 'resp': 'button'}",49,307,Right,65.05207868749488,36.81260890290125,3.2526039343747444,0.578251108444144,Right,Correct,0.0,0.0,-45,45,552,-1,-1
"{'cat': 'RB', 'resp': 'button'}",49,308,Right,52.664678099051464,61.24534037125364,2.6332339049525735,0.9620395568846841,Left,Incorrect,0.0,0.0,-45,45,544,-1,-1
"{'cat': 'RB', 'resp': 'button'}",49,309,Right,62.75844067532136,59.81839727860609,3.137922033766068,0.9396251871999229,Right,Correct,0.0,0.0,-45,45,403,-1,-1
"{'cat': 'RB', 'resp': 'button'}",49,310,Right,52.33977315421271,61.49746267470265,2.6169886577106354,0.965999884766292,Left,Incorrect,0.0,0.0,-45,45,889,-1,-1
"{'cat': 'RB', 'resp': 'button'}",49,311,Left,33.56687789813078,21.94295540316654,1.6783438949065388,0.34467913746318235,Left,Correct,0.0,0.0,-45,45,556,-1,-1
"{'cat': 'RB', 'resp': 'button'}",49,312,Left,43.010073325122,85.25452628382759,2.1505036662561,1.3391749672927533,Right,Incorrect,0.0,0.0,-45,45,1031,-1,-1
"{'cat': 'RB', 'resp': 'button'}",49,313,Left,45.66120320186558,54.20995926600644,2.2830601600932794,0.8515280489074388,Left,Correct,0.0,0.0,-45,45,1954,-1,-1
"{'cat': 'RB', 'resp': 'button'}",49,314,Right,50.86634001438814,60.73930175967276,2.543317000719407,0.9540907209618076,Right,Correct,0.0,0.0,-45,45,774,-1,-1
"{'cat': 'RB', 'resp': 'button'}",49,315,Left,45.06476122182778,31.153159645092135,2.253238061091389,0.48935268738565735,Left,Correct,0.0,0.0,-45,45,2444,-1,-1
"{'cat': 'RB', 'resp': 'button'}",49,316,Right,57.47876506483086,81.14280202322138,2.873938253241543,1.2745881536392165,Right,Correct,0.0,0.0,-45,45,758,-1,-1
"{'cat': 'RB', 'resp': 'button'}",49,317,Left,37.6267666403071,84.10864984708917,1.8813383320153552,1.3211755823148579,Left,Correct,0.0,0.0,-45,45,616,-1,-1
"{'cat': 'RB', 'resp': 'button'}",49,318,Left,35.708452740837075,21.224017490908533,1.7854226370418536,0.3333860871454976,Left,Correct,0.0,0.0,-45,45,714,-1,-1
"{'cat': 'RB', 'resp': 'button'}",49,319,Right,64.610191774536,76.44823363511523,3.2305095887268003,1.2008460458399708,Right,Correct,0.0,0.0,-45,45,607,-1,-1
"{'cat': 'RB', 'resp': 'button'}",49,320,Right,65.37709186060052,23.36215553100154,3.2688545930300257,0.3669718809410829,Right,Correct,0.0,0.0,-45,45,659,-1,-1
"{'cat': 'RB', 'resp': 'button'}",49,321,Right,58.95029406059887,29.98649656916825,2.9475147030299436,0.47102678664297254,Right,Correct,0.0,0.0,-45,45,699,-1,-1
"{'cat': 'RB', 'resp': 'button'}",49,322,Left,42.09908445375211,89.2629539848796,2.1049542226876055,1.4021392023831074,Left,Correct,0.0,0.0,-45,45,824,-1,-1
"{'cat': 'RB', 'resp': 'button'}",49,323,Left,41.73707056232299,49.44378058916297,2.0868535281161495,0.7766610893231,Left,Correct,0.0,0.0,-45,45,808,-1,-1
"{'cat': 'RB', 'resp': 'button'}",49,324,Left,44.59317013268441,58.34349355043515,2.2296585066342205,0.9164574536140526,Right,Incorrect,0.0,0.0,-45,45,1418,-1,-1
"{'cat': 'RB', 'resp': 'button'}",49,325,Left,38.04840003019069,72.82498364197248,1.9024200015095345,1.143932168037088,Left,Correct,0.0,0.0,-45,45,1224,-1,-1
"{'cat': 'RB', 'resp': 'button'}",49,326,Right,59.77160492346176,59.684495147035214,2.988580246173088,0.9375218574357073,Right,Correct,0.0,0.0,-45,45,673,-1,-1
"{'cat': 'RB', 'resp': 'button'}",49,327,Right,65.38673035671701,63.354859685045504,3.2693365178358507,0.9951758087787554,Right,Correct,0.0,0.0,-45,45,620,-1,-1
"{'cat': 'RB', 'resp': 'button'}",49,328,Right,54.93925838504121,35.615402784771724,2.74696291925206,0.5594454387164016,Right,Correct,0.0,0.0,-45,45,1262,-1,-1
"{'cat': 'RB', 'resp': 'button'}",49,329,Right,57.63618673039264,68.36013860543322,2.881809336519632,1.073798546206045,Right,Correct,0.0,0.0,-45,45,1142,-1,-1
"{'cat': 'RB', 'resp': 'button'}",49,330,Left,45.58288248854622,83.01469573562274,2.2791441244273107,1.3039917913151216,Left,Correct,0.0,0.0,-45,45,1881,-1,-1
"{'cat': 'RB', 'resp': 'button'}",49,331,Left,43.53293253652242,38.59055224412833,2.176646626826121,0.6061789771406333,Left,Correct,0.0,0.0,-45,45,621,-1,-1
"{'cat': 'RB', 'resp': 'button'}",49,332,Right,58.78488928559204,63.02072238625581,2.939244464279602,0.9899271923629155,Right,Correct,0.0,0.0,-45,45,863,-1,-1
"{'cat': 'RB', 'resp': 'button'}",49,333,Right,57.876659972613936,32.366074775325615,2.893832998630697,0.5084051136985043,Right,Correct,0.0,0.0,-45,45,1938,-1,-1
"{'cat': 'RB', 'resp': 'button'}",49,334,Right,60.59355370263796,29.59949283347804,3.0296776851318983,0.4649477461781916,Right,Correct,0.0,0.0,-45,45,505,-1,-1
"{'cat': 'RB', 'resp': 'button'}",49,335,Right,55.50489251933839,18.45481909940216,2.7752446259669195,0.2898876205300522,Right,Correct,0.0,0.0,-45,45,585,-1,-1
"{'cat': 'RB', 'resp': 'button'}",49,336,Right,67.94561982870911,50.93845087920226,3.397280991435456,0.8001393153367318,Right,Correct,0.0,0.0,-45,45,548,-1,-1
"{'cat': 'RB', 'resp': 'button'}",49,337,Right,64.65595656695297,66.1606362670649,3.2327978283476484,1.0392488442671877,Right,Correct,0.0,0.0,-45,45,783,-1,-1
"{'cat': 'RB', 'resp': 'button'}",49,338,Right,61.55454055252435,45.824601205779366,3.0777270276262176,0.7198111525087922,Right,Correct,0.0,0.0,-45,45,581,-1,-1
"{'cat': 'RB', 'resp': 'button'}",49,339,Right,59.545815461805496,86.64838729093256,2.977290773090275,1.3610696847929848,Right,Correct,0.0,0.0,-45,45,1331,-1,-1
"{'cat': 'RB', 'resp': 'button'}",49,340,Right,59.03389366642977,39.31199179751495,2.951694683321488,0.6175113231452758,Right,Correct,0.0,0.0,-45,45,439,-1,-1
"{'cat': 'RB', 'resp': 'button'}",49,341,Left,40.103141484426445,23.351696534703798,2.005157074221322,0.36680759141141844,Left,Correct,0.0,0.0,-45,45,644,-1,-1
"{'cat': 'RB', 'resp': 'button'}",49,342,Right,51.903782886564926,71.15420983054973,2.5951891443282467,1.1176877143782085,Right,Correct,0.0,0.0,-45,45,837,-1,-1
"{'cat': 'RB', 'resp': 'button'}",49,343,Left,43.84222130799965,24.478341238299276,2.1921110653999825,0.38450488503152547,Left,Correct,0.0,0.0,-45,45,605,-1,-1
"{'cat': 'RB', 'resp': 'button'}",49,344,Right,57.03589284291814,29.514591410998488,2.8517946421459066,0.4636141177524863,Right,Correct,0.0,0.0,-45,45,440,-1,-1
"{'cat': 'RB', 'resp': 'button'}",49,345,Left,33.36232395393524,69.58735308476673,1.6681161976967618,1.0930755861693109,100,Incorrect,0.0,0.0,-45,45,362,-1,-1
"{'cat': 'RB', 'resp': 'button'}",49,346,Right,64.2749583826276,36.07428334942097,3.21374791913138,0.5666535177702876,Right,Correct,0.0,0.0,-45,45,514,-1,-1
"{'cat': 'RB', 'resp': 'button'}",49,347,Right,53.18665941558795,25.97327560597749,2.6593329707793973,0.4079872591670093,Right,Correct,0.0,0.0,-45,45,663,-1,-1
"{'cat': 'RB', 'resp': 'button'}",49,348,Left,34.767496225151916,60.44300964449307,1.7383748112575959,0.9494365752999823,Left,Correct,0.0,0.0,-45,45,578,-1,-1
"{'cat': 'RB', 'resp': 'button'}",49,349,Right,67.81168728044386,35.77989865301238,3.390584364022193,0.5620293337724552,Right,Correct,0.0,0.0,-45,45,576,-1,-1
"{'cat': 'RB', 'resp': 'button'}",49,350,Left,41.27211364537197,47.38892235739925,2.0636056822685984,0.7443834516977129,Left,Correct,0.0,0.0,-45,45,1235,-1,-1
"{'cat': 'RB', 'resp': 'button'}",49,351,Left,39.77154602927967,88.22573995424813,1.9885773014639836,1.385846682488947,Left,Correct,0.0,0.0,-45,45,646,-1,-1
"{'cat': 'RB', 'resp': 'button'}",49,352,Left,40.002562873714986,62.34485783863539,2.000128143685749,0.9793107368747849,Left,Correct,0.0,0.0,-45,45,783,-1,-1
"{'cat': 'RB', 'resp': 'button'}",49,353,Right,60.481660468160634,81.60327196885812,3.0240830234080316,1.281821198631273,Right,Correct,0.0,0.0,-45,45,726,-1,-1
"{'cat': 'RB', 'resp': 'button'}",49,354,Left,41.24847716535218,53.45371183528497,2.062423858267609,0.8396489420441852,Left,Correct,0.0,0.0,-45,45,719,-1,-1
"{'cat': 'RB', 'resp': 'button'}",49,355,Left,32.37425777197862,34.173779417439725,1.618712888598931,0.5368004718161336,Left,Correct,0.0,0.0,-45,45,663,-1,-1
"{'cat': 'RB', 'resp': 'button'}",49,356,Right,62.26376702860924,33.43404115975672,3.1131883514304617,0.5251806904365524,Right,Correct,0.0,0.0,-45,45,586,-1,-1
"{'cat': 'RB', 'resp': 'button'}",49,357,Right,66.68606582157987,78.48645601551344,3.3343032910789936,1.2328623681231774,Right,Correct,0.0,0.0,-45,45,684,-1,-1
"{'cat': 'RB', 'resp': 'button'}",49,358,Left,32.29033838407287,70.48257739559678,1.6145169192036435,1.107137736760404,Left,Correct,0.0,0.0,-45,45,545,-1,-1
"{'cat': 'RB', 'resp': 'button'}",49,359,Left,32.10104637397822,28.622263725263313,1.605052318698911,0.4495974672419842,Left,Correct,0.0,0.0,-45,45,663,-1,-1
"{'cat': 'RB', 'resp': 'button'}",49,360,Right,62.218065327727366,18.399989842232802,3.1109032663863685,0.2890263645724269,Right,Correct,0.0,0.0,-45,45,518,-1,-1
"{'cat': 'RB', 'resp': 'button'}",49,361,Left,39.819999876908966,26.076773711684545,1.9909999938454483,0.409613003609758,Left,Correct,0.0,0.0,-45,45,1181,-1,-1
"{'cat': 'RB', 'resp': 'button'}",49,362,Left,46.679302409884095,68.94567704960187,2.3339651204942045,1.082996162579018,Left,Correct,0.0,0.0,-45,45,647,-1,-1
"{'cat': 'RB', 'resp': 'button'}",49,363,Right,55.9036374935463,81.32775792070964,2.795181874677315,1.2774934340831525,Right,Correct,0.0,0.0,-45,45,506,-1,-1
"{'cat': 'RB', 'resp': 'button'}",49,364,Left,31.619231466245274,50.37775239882902,1.5809615733122637,0.7913318842026341,Left,Correct,0.0,0.0,-45,45,578,-1,-1
"{'cat': 'RB', 'resp': 'button'}",49,365,Left,45.74639629471975,39.17094799838726,2.2873198147359877,0.6152958123294061,Right,Incorrect,0.0,0.0,-45,45,1157,-1,-1
"{'cat': 'RB', 'resp': 'button'}",49,366,Right,57.353957381427875,34.75978969920258,2.867697869071394,0.546005499796705,Right,Correct,0.0,0.0,-45,45,729,-1,-1
"{'cat': 'RB', 'resp': 'button'}",49,367,Left,42.63222062800173,75.90445410928808,2.1316110314000865,1.192304377022415,Left,Correct,0.0,0.0,-45,45,1069,-1,-1
"{'cat': 'RB', 'resp': 'button'}",49,368,Right,63.318882034066775,64.15990199339502,3.1659441017033383,1.0078213837874546,Right,Correct,0.0,0.0,-45,45,723,-1,-1
"{'cat': 'RB', 'resp': 'button'}",49,369,Right,62.46352764705954,48.96922933788253,3.123176382352977,0.7692068556992276,Right,Correct,0.0,0.0,-45,45,463,-1,-1
"{'cat': 'RB', 'resp': 'button'}",49,370,Right,62.58518901693843,39.23177124889489,3.129259450846922,0.6162512217142171,Right,Correct,0.0,0.0,-45,45,623,-1,-1
"{'cat': 'RB', 'resp': 'button'}",49,371,Left,35.4455340711554,84.50259769732695,1.77227670355777,1.3273637006758805,Left,Correct,0.0,0.0,-45,45,546,-1,-1
"{'cat': 'RB', 'resp': 'button'}",49,372,Right,52.746074333342534,76.30797396014843,2.637303716667127,1.1986428520176178,Right,Correct,0.0,0.0,-45,45,516,-1,-1
"{'cat': 'RB', 'resp': 'button'}",49,373,Left,37.73040028707201,15.758855618708061,1.8865200143536003,0.24753952520357742,Left,Correct,0.0,0.0,-45,45,563,-1,-1
"{'cat': 'RB', 'resp': 'button'}",49,374,Left,39.15112860525025,9.98964522963972,1.9575564302625126,0.15691698032702234,Left,Correct,0.0,0.0,-45,45,619,-1,-1
"{'cat': 'RB', 'resp': 'button'}",49,375,Right,66.83262019082878,67.83566844260842,3.3416310095414388,1.0655601881532581,Right,Correct,0.0,0.0,-45,45,631,-1,-1
"{'cat': 'RB', 'resp': 'button'}",49,376,Right,65.87662816035726,26.04456348746245,3.293831408017863,0.40910704659082503,Right,Correct,0.0,0.0,-45,45,841,-1,-1
"{'cat': 'RB', 'resp': 'button'}",49,377,Left,38.32785444952911,17.44951139062553,1.9163927224764559,0.2740962839676029,Left,Correct,0.0,0.0,-45,45,784,-1,-1
"{'cat': 'RB', 'resp': 'button'}",49,378,Left,38.741197864571625,82.8185661605365,1.9370598932285814,1.3009109951539088,Left,Correct,0.0,0.0,-45,45,665,-1,-1
"{'cat': 'RB', 'resp': 'button'}",49,379,Right,60.25869250910705,28.065661986765964,3.0129346254553524,0.4408543875787914,Right,Correct,0.0,0.0,-45,45,800,-1,-1
"{'cat': 'RB', 'resp': 'button'}",49,380,Left,42.87335441857257,67.38413001614208,2.1436677209286286,1.0584674391362572,Left,Correct,0.0,0.0,-45,45,517,-1,-1
"{'cat': 'RB', 'resp': 'button'}",49,381,Left,44.548071392449316,62.519338282410516,2.227403569622466,0.9820514692765799,Left,Correct,0.0,0.0,-45,45,467,-1,-1
"{'cat': 'RB', 'resp': 'button'}",49,382,Left,34.971222097051374,17.97483090250502,1.7485611048525687,0.2823479835641428,Left,Correct,0.0,0.0,-45,45,543,-1,-1
"{'cat': 'RB', 'resp': 'button'}",49,383,Left,45.64585155973572,34.34408174290049,2.282292577986786,0.5394755744889177,Left,Correct,0.0,0.0,-45,45,508,-1,-1
"{'cat': 'RB', 'resp': 'button'}",49,384,Left,49.409361109966746,52.93580850976767,2.4704680554983374,0.8315137356306108,Left,Correct,0.0,0.0,-45,45,504,-1,-1
"{'cat': 'RB', 'resp': 'button'}",49,385,Left,34.34848729147758,73.80593032378319,1.717424364573879,1.1593408424827871,Left,Correct,0.0,0.0,-45,45,762,-1,-1
"{'cat': 'RB', 'resp': 'button'}",49,386,Left,43.541947570236964,44.49214210675531,2.1770973785118484,0.6988809339252778,Left,Correct,0.0,0.0,-45,45,572,-1,-1
"{'cat': 'RB', 'resp': 'button'}",49,387,Left,33.37545759052365,38.14955079052737,1.6687728795261825,0.5992517425063574,Left,Correct,0.0,0.0,-45,45,434,-1,-1
"{'cat': 'RB', 'resp': 'button'}",49,388,Right,64.61487324617183,53.67981609326266,3.2307436623085914,0.8432005794232257,Right,Correct,0.0,0.0,-45,45,469,-1,-1
"{'cat': 'RB', 'resp': 'button'}",49,389,Left,38.37692174400476,66.49425459933428,1.918846087200238,1.0444893087759894,Left,Correct,0.0,0.0,-45,45,605,-1,-1
"{'cat': 'RB', 'resp': 'button'}",49,390,Right,57.85274940949498,80.33390107440849,2.892637470474749,1.2618819672478543,Right,Correct,0.0,0.0,-45,45,537,-1,-1
"{'cat': 'RB', 'resp': 'button'}",49,391,Right,57.59261093243619,38.285219781690415,2.8796305466218093,0.6013828260361461,Right,Correct,0.0,0.0,-45,45,445,-1,-1
"{'cat': 'RB', 'resp': 'button'}",49,392,Right,57.08120821564518,28.204184094583955,2.854060410782259,0.4430302877601952,Right,Correct,0.0,0.0,-45,45,365,-1,-1
"{'cat': 'RB', 'resp': 'button'}",49,393,Left,46.105595871748314,65.63801457154342,2.3052797935874154,1.031039521870903,Left,Correct,0.0,0.0,-45,45,1245,-1,-1
"{'cat': 'RB', 'resp': 'button'}",49,394,Right,53.68599587660711,20.006038727752625,2.684299793830355,0.3142541214727027,Right,Correct,0.0,0.0,-45,45,631,-1,-1
"{'cat': 'RB', 'resp': 'button'}",49,395,Right,53.49684078235219,79.82652247637297,2.674842039117609,1.2539120828669692,Right,Correct,0.0,0.0,-45,45,398,-1,-1
"{'cat': 'RB', 'resp': 'button'}",49,396,Left,33.0982360613594,22.453523886135393,1.65491180306797,0.35269912843942947,Left,Correct,0.0,0.0,-45,45,902,-1,-1
"{'cat': 'RB', 'resp': 'button'}",49,397,Right,52.10671588580899,39.84858429318807,2.6053357942904496,0.6259400983571664,Right,Correct,0.0,0.0,-45,45,1019,-1,-1
"{'cat': 'RB', 'resp': 'button'}",49,398,Left,44.024586193917145,23.65183084879005,2.201229309695857,0.37152209019253624,Right,Incorrect,0.0,0.0,-45,45,659,-1,-1
"{'cat': 'RB', 'resp': 'button'}",49,399,Right,59.09655062524203,33.27055722201195,2.9548275312621013,0.5226126907475579,Right,Correct,0.0,0.0,-45,45,368,-1,-1
