condition,subject,trial,cat,x,y,xt,yt,resp,fb,rotation,su,target_angle_left,target_angle_right,rt,mt,ep
"{'cat': 'RB', 'resp': 'button'}",29,0,Left,47.855458415037546,69.5265352983152,2.3927729207518773,1.0921202626136923,Right,Incorrect,0.0,0.0,-45,45,4280,-1,-1
"{'cat': 'RB', 'resp': 'button'}",29,1,Right,64.7214992490643,16.45250503125329,3.236074962453215,0.25843534469667223,Right,Correct,0.0,0.0,-45,45,5768,-1,-1
"{'cat': 'RB', 'resp': 'button'}",29,2,Left,41.02102245592042,59.81942230647351,2.051051122796021,0.9396412883000129,Left,Correct,0.0,0.0,-45,45,4073,-1,-1
"{'cat': 'RB', 'resp': 'button'}",29,3,Left,33.83047435983336,79.5034110906655,1.6915237179916682,1.24883666108882,Left,Correct,0.0,0.0,-45,45,4734,-1,-1
"{'cat': 'RB', 'resp': 'button'}",29,4,Left,42.20071878257657,82.88694814872477,2.110035939128829,1.301985136912559,Right,Incorrect,0.0,0.0,-45,45,5020,-1,-1
"{'cat': 'RB', 'resp': 'button'}",29,5,Left,47.731495141149054,31.439780126355082,2.3865747570574527,0.4938549113771776,Left,Correct,0.0,0.0,-45,45,3178,-1,-1
"{'cat': 'RB', 'resp': 'button'}",29,6,Right,64.10552716764731,82.35460909207947,3.2052763583823656,1.2936231745646802,Right,Correct,0.0,0.0,-45,45,4863,-1,-1
"{'cat': 'RB', 'resp': 'button'}",29,7,Left,36.05908989362488,24.453316663020722,1.802954494681244,0.3841117999222539,Left,Correct,0.0,0.0,-45,45,4490,-1,-1
"{'cat': 'RB', 'resp': 'button'}",29,8,Left,41.23387586242461,63.990243474539625,2.0616937931212305,1.0051563940051793,Left,Correct,0.0,0.0,-45,45,4447,-1,-1
"{'cat': 'RB', 'resp': 'button'}",29,9,Right,65.01440784603,18.431034696062067,3.2507203923015,0.2895140159960359,Left,Incorrect,0.0,0.0,-45,45,4139,-1,-1
"{'cat': 'RB', 'resp': 'button'}",29,10,Right,62.38900581463501,38.74021230126166,3.1194502907317507,0.6085298318207627,Right,Correct,0.0,0.0,-45,45,2651,-1,-1
"{'cat': 'RB', 'resp': 'button'}",29,11,Left,44.58674290659552,32.05840852216815,2.229337145329776,0.5035723034951194,Left,Correct,0.0,0.0,-45,45,2561,-1,-1
"{'cat': 'RB', 'resp': 'button'}",29,12,Right,65.46056481078229,44.85360506901472,3.273028240539114,0.7045587808591727,Right,Correct,0.0,0.0,-45,45,3397,-1,-1
"{'cat': 'RB', 'resp': 'button'}",29,13,Left,35.270844995938276,83.8487279182868,1.7635422497969138,1.317092738204696,Left,Correct,0.0,0.0,-45,45,3066,-1,-1
"{'cat': 'RB', 'resp': 'button'}",29,14,Right,52.78370353848742,33.757094004759956,2.639185176924371,0.5302551926594697,Right,Correct,0.0,0.0,-45,45,2729,-1,-1
"{'cat': 'RB', 'resp': 'button'}",29,15,Right,57.42505906484807,42.387775445202365,2.871252953242404,0.665825619703308,Right,Correct,0.0,0.0,-45,45,3150,-1,-1
"{'cat': 'RB', 'resp': 'button'}",29,16,Left,46.75327597088885,26.46032132299264,2.3376637985444426,0.41563775539969516,Right,Incorrect,0.0,0.0,-45,45,3571,-1,-1
"{'cat': 'RB', 'resp': 'button'}",29,17,Right,62.418617324103984,68.09937016481811,3.120930866205199,1.0697024051194226,Right,Correct,0.0,0.0,-45,45,2426,-1,-1
"{'cat': 'RB', 'resp': 'button'}",29,18,Right,65.63409632208285,58.85988666327489,3.281704816104143,0.9245689376623611,Right,Correct,0.0,0.0,-45,45,2337,-1,-1
"{'cat': 'RB', 'resp': 'button'}",29,19,Left,35.660559394427175,77.14660953175031,1.7830279697213587,1.2118161087715356,Left,Correct,0.0,0.0,-45,45,2404,-1,-1
"{'cat': 'RB', 'resp': 'button'}",29,20,Left,40.55106714417776,17.120317294273285,2.027553357208888,0.26892531519407614,Left,Correct,0.0,0.0,-45,45,2556,-1,-1
"{'cat': 'RB', 'resp': 'button'}",29,21,Left,43.74908492597256,60.44095594806443,2.187454246298628,0.9494043159119178,Left,Correct,0.0,0.0,-45,45,2234,-1,-1
"{'cat': 'RB', 'resp': 'button'}",29,22,Left,33.10051798329896,28.463430243613942,1.655025899164948,0.4471025167465155,Left,Correct,0.0,0.0,-45,45,4090,-1,-1
"{'cat': 'RB', 'resp': 'button'}",29,23,Right,59.439330025277194,38.747907696982615,2.97196650126386,0.60865071081408,Right,Correct,0.0,0.0,-45,45,2176,-1,-1
"{'cat': 'RB', 'resp': 'button'}",29,24,Right,63.67476093959835,66.48175653450147,3.1837380469799177,1.0442929896326751,Right,Correct,0.0,0.0,-45,45,2052,-1,-1
"{'cat': 'RB', 'resp': 'button'}",29,25,Right,55.184849879630974,26.217467822167,2.7592424939815485,0.41182302152923317,Right,Correct,0.0,0.0,-45,45,2375,-1,-1
"{'cat': 'RB', 'resp': 'button'}",29,26,Right,69.29215854733266,52.302205725501445,3.464607927366633,0.8215611263688868,Right,Correct,0.0,0.0,-45,45,2166,-1,-1
"{'cat': 'RB', 'resp': 'button'}",29,27,Right,62.38067360265275,65.30095159091714,3.1190336801326373,1.0257449489522399,Right,Correct,0.0,0.0,-45,45,1871,-1,-1
"{'cat': 'RB', 'resp': 'button'}",29,28,Left,41.52176237930171,67.8014863064862,2.0760881189650857,1.06502325641463,Left,Correct,0.0,0.0,-45,45,1491,-1,-1
"{'cat': 'RB', 'resp': 'button'}",29,29,Right,59.82815139135972,21.379372208931223,2.9914075695679863,0.3358263933497006,Right,Correct,0.0,0.0,-45,45,1665,-1,-1
"{'cat': 'RB', 'resp': 'button'}",29,30,Left,37.68444296048384,36.92465317235567,1.884222148024192,0.580011095713118,Left,Correct,0.0,0.0,-45,45,1460,-1,-1
"{'cat': 'RB', 'resp': 'button'}",29,31,Left,34.74355794109475,80.76024226672682,1.7371778970547376,1.2685789190364043,Left,Correct,0.0,0.0,-45,45,1242,-1,-1
"{'cat': 'RB', 'resp': 'button'}",29,32,Left,36.19788444566592,76.55686856742304,1.809894222283296,1.2025524793662778,Left,Correct,0.0,0.0,-45,45,828,-1,-1
"{'cat': 'RB', 'resp': 'button'}",29,33,Left,45.788688276677576,80.80509412074896,2.289434413833879,1.2692834503118835,Left,Correct,0.0,0.0,-45,45,836,-1,-1
"{'cat': 'RB', 'resp': 'button'}",29,34,Left,40.06459216129329,48.96555993058721,2.0032296080646645,0.7691492167842175,Left,Correct,0.0,0.0,-45,45,568,-1,-1
"{'cat': 'RB', 'resp': 'button'}",29,35,Right,62.462882217776254,86.66108201405788,3.1231441108888127,1.361269093037534,Right,Correct,0.0,0.0,-45,45,768,-1,-1
"{'cat': 'RB', 'resp': 'button'}",29,36,Left,45.83446486520475,63.37051209805205,2.2917232432602375,0.995421676307317,Right,Incorrect,0.0,0.0,-45,45,2835,-1,-1
"{'cat': 'RB', 'resp': 'button'}",29,37,Left,40.212503223798706,74.51482111903674,2.0106251611899353,1.170476073055617,Left,Correct,0.0,0.0,-45,45,947,-1,-1
"{'cat': 'RB', 'resp': 'button'}",29,38,Right,55.917634371621126,47.05221694705958,2.795881718581056,0.7390944954799776,Right,Correct,0.0,0.0,-45,45,1085,-1,-1
"{'cat': 'RB', 'resp': 'button'}",29,39,Left,44.652436952304306,41.157991881759436,2.2326218476152153,0.646508224661219,Left,Correct,0.0,0.0,-45,45,1038,-1,-1
"{'cat': 'RB', 'resp': 'button'}",29,40,Left,38.77849489792672,20.43401989635473,1.938924744896336,0.3209768339484784,Left,Correct,0.0,0.0,-45,45,581,-1,-1
"{'cat': 'RB', 'resp': 'button'}",29,41,Left,41.88159750780494,25.069902834494883,2.094079875390247,0.39379711285529523,Left,Correct,0.0,0.0,-45,45,471,-1,-1
"{'cat': 'RB', 'resp': 'button'}",29,42,Right,53.32482973690512,60.577932921166465,2.666241486845256,0.9515559451739591,Right,Correct,0.0,0.0,-45,45,870,-1,-1
"{'cat': 'RB', 'resp': 'button'}",29,43,Right,65.39713582846505,81.12506253266072,3.2698567914232526,1.2743095023730975,Right,Correct,0.0,0.0,-45,45,1051,-1,-1
"{'cat': 'RB', 'resp': 'button'}",29,44,Right,59.96692690060694,10.969057476508219,2.998346345030347,0.17230155192501206,Right,Correct,0.0,0.0,-45,45,1489,-1,-1
"{'cat': 'RB', 'resp': 'button'}",29,45,Right,61.23181861962717,85.07321209566751,3.0615909309813585,1.3363268906851768,Right,Correct,0.0,0.0,-45,45,712,-1,-1
"{'cat': 'RB', 'resp': 'button'}",29,46,Right,60.931170046966415,33.40515204395133,3.046558502348321,0.5247269012666378,Right,Correct,0.0,0.0,-45,45,780,-1,-1
"{'cat': 'RB', 'resp': 'button'}",29,47,Right,62.96497570155766,66.9174795143985,3.148248785077883,1.051137310195899,Right,Correct,0.0,0.0,-45,45,526,-1,-1
"{'cat': 'RB', 'resp': 'button'}",29,48,Left,40.31639864105547,89.4964625764623,2.015819932052773,1.4058071467624391,Left,Correct,0.0,0.0,-45,45,538,-1,-1
"{'cat': 'RB', 'resp': 'button'}",29,49,Left,39.25429177425376,47.26803483076502,1.962714588712688,0.7424845548697891,Left,Correct,0.0,0.0,-45,45,518,-1,-1
"{'cat': 'RB', 'resp': 'button'}",29,50,Left,43.35945049167257,51.54364168667138,2.1679725245836283,0.809645630310557,Left,Correct,0.0,0.0,-45,45,709,-1,-1
"{'cat': 'RB', 'resp': 'button'}",29,51,Left,38.55013909955271,41.403026913254465,1.9275069549776356,0.6503572259353037,Left,Correct,0.0,0.0,-45,45,610,-1,-1
"{'cat': 'RB', 'resp': 'button'}",29,52,Left,36.6583704526943,87.48266226089939,1.8329185226347149,1.3741744453765927,Left,Correct,0.0,0.0,-45,45,472,-1,-1
"{'cat': 'RB', 'resp': 'button'}",29,53,Right,62.325057421597215,42.07749962536927,3.116252871079861,0.6609518185224368,Right,Correct,0.0,0.0,-45,45,703,-1,-1
"{'cat': 'RB', 'resp': 'button'}",29,54,Left,37.01847777696405,84.45841773104326,1.8509238888482025,1.3266697233883171,Left,Correct,0.0,0.0,-45,45,629,-1,-1
"{'cat': 'RB', 'resp': 'button'}",29,55,Left,41.16883384190058,89.46491747030906,2.058441692095029,1.4053116373937005,Left,Correct,0.0,0.0,-45,45,608,-1,-1
"{'cat': 'RB', 'resp': 'button'}",29,56,Right,53.5346441587674,75.98975678775957,2.67673220793837,1.193644308362503,Right,Correct,0.0,0.0,-45,45,1719,-1,-1
"{'cat': 'RB', 'resp': 'button'}",29,57,Right,69.0634679166574,62.02473431127143,3.4531733958328696,0.9742822482657455,Right,Correct,0.0,0.0,-45,45,744,-1,-1
"{'cat': 'RB', 'resp': 'button'}",29,58,Left,41.50234433546789,66.35676981147861,2.0751172167733944,1.0423297027784508,Left,Correct,0.0,0.0,-45,45,803,-1,-1
"{'cat': 'RB', 'resp': 'button'}",29,59,Right,64.01710033805186,34.21767742188983,3.2008550169025933,0.5374900200575721,Right,Correct,0.0,0.0,-45,45,594,-1,-1
"{'cat': 'RB', 'resp': 'button'}",29,60,Right,62.02674485053667,20.182866421591797,3.1013372425268333,0.31703172439228455,Right,Correct,0.0,0.0,-45,45,644,-1,-1
"{'cat': 'RB', 'resp': 'button'}",29,61,Right,57.489716475140234,74.7621733613,2.8744858237570114,1.174361472991333,Right,Correct,0.0,0.0,-45,45,683,-1,-1
"{'cat': 'RB', 'resp': 'button'}",29,62,Left,33.89394363276791,60.745993257055495,1.6946971816383953,0.9541958307569033,Left,Correct,0.0,0.0,-45,45,709,-1,-1
"{'cat': 'RB', 'resp': 'button'}",29,63,Left,46.96817140926419,49.264511569321314,2.348408570463209,0.7738451381443461,Left,Correct,0.0,0.0,-45,45,521,-1,-1
"{'cat': 'RB', 'resp': 'button'}",29,64,Right,57.21811684934252,23.320777020738245,2.8609058424671265,0.36632190882178467,Right,Correct,0.0,0.0,-45,45,1105,-1,-1
"{'cat': 'RB', 'resp': 'button'}",29,65,Left,34.03003568690101,55.435239940197384,1.7015017843450506,0.870774712730558,Left,Correct,0.0,0.0,-45,45,571,-1,-1
"{'cat': 'RB', 'resp': 'button'}",29,66,Left,32.100266560250674,47.74301012582382,1.6050133280125336,0.7499454493577561,Left,Correct,0.0,0.0,-45,45,1153,-1,-1
"{'cat': 'RB', 'resp': 'button'}",29,67,Left,47.16863203131009,59.94301725907106,2.3584316015655045,0.9415827132755191,Right,Incorrect,0.0,0.0,-45,45,1486,-1,-1
"{'cat': 'RB', 'resp': 'button'}",29,68,Right,56.08236503760255,51.75289072456747,2.8041182518801278,0.8129325065116826,Right,Correct,0.0,0.0,-45,45,1240,-1,-1
"{'cat': 'RB', 'resp': 'button'}",29,69,Right,65.00846630172009,54.174449267665835,3.2504233150860045,0.8509702591578597,Right,Correct,0.0,0.0,-45,45,629,-1,-1
"{'cat': 'RB', 'resp': 'button'}",29,70,Left,39.23272689222223,24.382270242347204,1.9616363446111114,0.382995805355995,Left,Correct,0.0,0.0,-45,45,556,-1,-1
"{'cat': 'RB', 'resp': 'button'}",29,71,Right,52.78679388350298,74.83488427264706,2.639339694175149,1.1755036133159518,Right,Correct,0.0,0.0,-45,45,846,-1,-1
"{'cat': 'RB', 'resp': 'button'}",29,72,Left,37.0374777657493,76.25009412541951,1.8518738882874652,1.197733677699741,Left,Correct,0.0,0.0,-45,45,630,-1,-1
"{'cat': 'RB', 'resp': 'button'}",29,73,Right,68.66166488285094,39.009688494414135,3.433083244142547,0.6127627539643886,Right,Correct,0.0,0.0,-45,45,662,-1,-1
"{'cat': 'RB', 'resp': 'button'}",29,74,Right,52.22855980037627,60.0678286019342,2.611427990018813,0.9435432452646367,Right,Correct,0.0,0.0,-45,45,717,-1,-1
"{'cat': 'RB', 'resp': 'button'}",29,75,Left,43.122654345177,42.47471705594962,2.15613271725885,0.6671912953313821,Left,Correct,0.0,0.0,-45,45,645,-1,-1
"{'cat': 'RB', 'resp': 'button'}",29,76,Right,60.26456974439329,62.363083627783354,3.013228487219665,0.9795970269012505,Right,Correct,0.0,0.0,-45,45,2241,-1,-1
"{'cat': 'RB', 'resp': 'button'}",29,77,Right,55.317858548865885,39.89507062299466,2.7658929274432946,0.62667030391823,Right,Correct,0.0,0.0,-45,45,1264,-1,-1
"{'cat': 'RB', 'resp': 'button'}",29,78,Left,42.80925096408735,68.36801576784032,2.140462548204367,1.0739222803837913,Left,Correct,0.0,0.0,-45,45,698,-1,-1
"{'cat': 'RB', 'resp': 'button'}",29,79,Right,62.79084579854266,79.39257896455919,3.139542289927133,1.2470957141230334,Right,Correct,0.0,0.0,-45,45,897,-1,-1
"{'cat': 'RB', 'resp': 'button'}",29,80,Left,44.629070040917725,14.649702669093152,2.2314535020458863,0.23011699141248912,Left,Correct,0.0,0.0,-45,45,628,-1,-1
"{'cat': 'RB', 'resp': 'button'}",29,81,Left,33.877203640711436,24.16892389426209,1.6938601820355716,0.379644568756923,Left,Correct,0.0,0.0,-45,45,661,-1,-1
"{'cat': 'RB', 'resp': 'button'}",29,82,Right,64.41047666220095,83.96189633786796,3.2205238331100476,1.3188703835825686,Right,Correct,0.0,0.0,-45,45,796,-1,-1
"{'cat': 'RB', 'resp': 'button'}",29,83,Left,40.68709324721599,23.473121740500243,2.0343546623607995,0.3687149340838722,Left,Correct,0.0,0.0,-45,45,641,-1,-1
"{'cat': 'RB', 'resp': 'button'}",29,84,Left,40.97264595519335,13.641462077954372,2.0486322977596676,0.21427958524162605,Left,Correct,0.0,0.0,-45,45,667,-1,-1
"{'cat': 'RB', 'resp': 'button'}",29,85,Left,47.14592625117889,66.72630783613414,2.3572963125589443,1.0481343924958502,Left,Correct,0.0,0.0,-45,45,733,-1,-1
"{'cat': 'RB', 'resp': 'button'}",29,86,Left,39.132589892709866,45.57898775735675,1.9566294946354932,0.7159530654828554,Left,Correct,0.0,0.0,-45,45,691,-1,-1
"{'cat': 'RB', 'resp': 'button'}",29,87,Right,57.617031192404745,56.06062733944142,2.8808515596202375,0.8805982750261211,Right,Correct,0.0,0.0,-45,45,697,-1,-1
"{'cat': 'RB', 'resp': 'button'}",29,88,Right,56.30144918582075,86.5856190538382,2.8150724592910374,1.3600837236303125,Right,Correct,0.0,0.0,-45,45,981,-1,-1
"{'cat': 'RB', 'resp': 'button'}",29,89,Right,59.259437889218255,31.363440293831783,2.962971894460913,0.49265576809202016,Right,Correct,0.0,0.0,-45,45,780,-1,-1
"{'cat': 'RB', 'resp': 'button'}",29,90,Left,36.550405236580666,56.018766904369805,1.8275202618290334,0.8799407328496359,Left,Correct,0.0,0.0,-45,45,992,-1,-1
"{'cat': 'RB', 'resp': 'button'}",29,91,Right,66.79011927321528,39.9879085845455,3.339505963660764,0.6281285992081417,Right,Correct,0.0,0.0,-45,45,851,-1,-1
"{'cat': 'RB', 'resp': 'button'}",29,92,Left,45.47485699649181,42.24557845614305,2.2737428498245906,0.6635919946223512,Left,Correct,0.0,0.0,-45,45,1369,-1,-1
"{'cat': 'RB', 'resp': 'button'}",29,93,Left,37.7585328960004,28.567842273686278,1.8879266448000203,0.4487426170796237,Left,Correct,0.0,0.0,-45,45,844,-1,-1
"{'cat': 'RB', 'resp': 'button'}",29,94,Right,66.66600000437738,48.24355595801817,3.3333000002188693,0.7578080049037899,Right,Correct,0.0,0.0,-45,45,1051,-1,-1
"{'cat': 'RB', 'resp': 'button'}",29,95,Left,43.698442009119255,22.242380572603473,2.1849221004559625,0.349382497026197,Left,Correct,0.0,0.0,-45,45,799,-1,-1
"{'cat': 'RB', 'resp': 'button'}",29,96,Right,62.247592303679454,23.202594287253913,3.1123796151839724,0.36446549878530693,Right,Correct,0.0,0.0,-45,45,970,-1,-1
"{'cat': 'RB', 'resp': 'button'}",29,97,Left,44.94209808680168,36.289567899100675,2.247104904340084,0.5700351995688133,Left,Correct,0.0,0.0,-45,45,607,-1,-1
"{'cat': 'RB', 'resp': 'button'}",29,98,Left,42.20467935466961,36.8203856116395,2.1102339677334805,0.5783732646993499,Left,Correct,0.0,0.0,-45,45,619,-1,-1
"{'cat': 'RB', 'resp': 'button'}",29,99,Right,56.88758569166422,45.741503745783056,2.8443792845832108,0.7185058606595103,Right,Correct,0.0,0.0,-45,45,775,-1,-1
"{'cat': 'RB', 'resp': 'button'}",29,100,Right,65.8539557199165,59.883866454337024,3.292697785995825,0.9406535746074872,Right,Correct,0.0,0.0,-45,45,721,-1,-1
"{'cat': 'RB', 'resp': 'button'}",29,101,Right,64.99347785913008,30.786107114412346,3.249673892956504,0.48358703971633143,Right,Correct,0.0,0.0,-45,45,709,-1,-1
"{'cat': 'RB', 'resp': 'button'}",29,102,Right,66.10877552630436,71.41296440763266,3.305438776315218,1.1217522217704405,Right,Correct,0.0,0.0,-45,45,559,-1,-1
"{'cat': 'RB', 'resp': 'button'}",29,103,Right,53.57731571374852,27.52001779958032,2.6788657856874263,0.43228342872910935,Right,Correct,0.0,0.0,-45,45,1350,-1,-1
"{'cat': 'RB', 'resp': 'button'}",29,104,Right,60.62624739449227,42.874906053873595,3.0313123697246134,0.6734774494110092,Right,Correct,0.0,0.0,-45,45,926,-1,-1
"{'cat': 'RB', 'resp': 'button'}",29,105,Left,44.78848456821126,67.83084326681825,2.239424228410563,1.0654843944691845,Left,Correct,0.0,0.0,-45,45,1034,-1,-1
"{'cat': 'RB', 'resp': 'button'}",29,106,Left,36.737516108036345,46.18117168310407,1.8368758054018173,0.7254121484690436,Left,Correct,0.0,0.0,-45,45,568,-1,-1
"{'cat': 'RB', 'resp': 'button'}",29,107,Left,34.107844387657856,49.50004949685038,1.7053922193828928,0.7775449592581813,Left,Correct,0.0,0.0,-45,45,661,-1,-1
"{'cat': 'RB', 'resp': 'button'}",29,108,Right,59.798435505260365,83.11971162357963,2.989921775263018,1.3056413770256996,Right,Correct,0.0,0.0,-45,45,631,-1,-1
"{'cat': 'RB', 'resp': 'button'}",29,109,Right,51.78832697189003,31.94158656162995,2.589416348594501,0.5017372684300956,Left,Incorrect,0.0,0.0,-45,45,996,-1,-1
"{'cat': 'RB', 'resp': 'button'}",29,110,Right,56.13593187167851,54.5566741767185,2.8067965935839254,0.856974233989354,Right,Correct,0.0,0.0,-45,45,786,-1,-1
"{'cat': 'RB', 'resp': 'button'}",29,111,Left,42.72464779743308,54.438098088005106,2.1362323898716538,0.855111645143387,Left,Correct,0.0,0.0,-45,45,940,-1,-1
"{'cat': 'RB', 'resp': 'button'}",29,112,Left,37.09907457335765,40.23703058330772,1.8549537286678826,0.6320417984139368,Left,Correct,0.0,0.0,-45,45,606,-1,-1
"{'cat': 'RB', 'resp': 'button'}",29,113,Right,53.47519866874174,67.62657250019524,2.673759933437087,1.0622757167703545,Right,Correct,0.0,0.0,-45,45,737,-1,-1
"{'cat': 'RB', 'resp': 'button'}",29,114,Left,39.010066974014016,83.75000466536926,1.9505033487007009,1.3155419969741748,Left,Correct,0.0,0.0,-45,45,818,-1,-1
"{'cat': 'RB', 'resp': 'button'}",29,115,Right,52.80180071604899,58.79369538955561,2.6400900358024497,0.9235292075661199,Right,Correct,0.0,0.0,-45,45,881,-1,-1
"{'cat': 'RB', 'resp': 'button'}",29,116,Right,58.0643087879054,40.483609974050374,2.90321543939527,0.6359150584263555,Right,Correct,0.0,0.0,-45,45,1008,-1,-1
"{'cat': 'RB', 'resp': 'button'}",29,117,Left,46.79668274581613,38.19275161363946,2.3398341372908065,0.5999303394489471,Left,Correct,0.0,0.0,-45,45,1064,-1,-1
"{'cat': 'RB', 'resp': 'button'}",29,118,Right,68.76195179656216,38.977990677939914,3.4380975898281076,0.6122648458275374,Right,Correct,0.0,0.0,-45,45,783,-1,-1
"{'cat': 'RB', 'resp': 'button'}",29,119,Right,54.89210547205431,35.69889715315037,2.7446052736027156,0.5607569651879739,Right,Correct,0.0,0.0,-45,45,1342,-1,-1
"{'cat': 'RB', 'resp': 'button'}",29,120,Left,33.23379619250988,59.64177855543831,1.661689809625494,0.9368508667839712,Left,Correct,0.0,0.0,-45,45,710,-1,-1
"{'cat': 'RB', 'resp': 'button'}",29,121,Right,62.57599080620358,27.50383101123204,3.1287995403101787,0.4320291672523086,Right,Correct,0.0,0.0,-45,45,1643,-1,-1
"{'cat': 'RB', 'resp': 'button'}",29,122,Right,58.80095872984591,32.571116340145224,2.9400479364922956,0.5116258990670934,Right,Correct,0.0,0.0,-45,45,1225,-1,-1
"{'cat': 'RB', 'resp': 'button'}",29,123,Left,39.910037857569286,87.76789058971548,1.9955018928784642,1.3786548014886144,Left,Correct,0.0,0.0,-45,45,930,-1,-1
"{'cat': 'RB', 'resp': 'button'}",29,124,Right,54.568470715117144,18.703407175724507,2.7284235357558573,0.2937924329017737,Left,Incorrect,0.0,0.0,-45,45,928,-1,-1
"{'cat': 'RB', 'resp': 'button'}",29,125,Left,39.389396167068426,88.26159144510865,1.9694698083534212,1.3864098363904853,Left,Correct,0.0,0.0,-45,45,788,-1,-1
"{'cat': 'RB', 'resp': 'button'}",29,126,Right,58.22131662653747,78.18255738983927,2.911065831326874,1.2280887396739073,Right,Correct,0.0,0.0,-45,45,785,-1,-1
"{'cat': 'RB', 'resp': 'button'}",29,127,Left,48.940553911000414,38.65013079174774,2.447027695550021,0.6071148347781968,Right,Incorrect,0.0,0.0,-45,45,1072,-1,-1
"{'cat': 'RB', 'resp': 'button'}",29,128,Left,36.268360930849475,50.23390128900674,1.8134180465424736,0.789072276253492,Left,Correct,0.0,0.0,-45,45,909,-1,-1
"{'cat': 'RB', 'resp': 'button'}",29,129,Left,34.069166300132935,62.99306605429073,1.7034583150066467,0.9894927677162817,Left,Correct,0.0,0.0,-45,45,807,-1,-1
"{'cat': 'RB', 'resp': 'button'}",29,130,Left,40.29343718050559,74.39572654825541,2.0146718590252792,1.1686053399123717,Left,Correct,0.0,0.0,-45,45,922,-1,-1
"{'cat': 'RB', 'resp': 'button'}",29,131,Right,65.4831074856892,45.75162623859197,3.27415537428446,0.7186648644047329,Right,Correct,0.0,0.0,-45,45,1250,-1,-1
"{'cat': 'RB', 'resp': 'button'}",29,132,Left,38.81802870563859,72.55147079138861,1.9409014352819296,1.1396358382268044,Left,Correct,0.0,0.0,-45,45,548,-1,-1
"{'cat': 'RB', 'resp': 'button'}",29,133,Left,44.124630175860005,64.38145622384981,2.2062315087930005,1.0113015495012971,Left,Correct,0.0,0.0,-45,45,1256,-1,-1
"{'cat': 'RB', 'resp': 'button'}",29,134,Right,54.779662219860306,76.1421988667815,2.738983110993015,1.1960388629402692,Right,Correct,0.0,0.0,-45,45,1200,-1,-1
"{'cat': 'RB', 'resp': 'button'}",29,135,Left,48.11399623951427,44.99572181788962,2.4056998119757136,0.70679114553026,Left,Correct,0.0,0.0,-45,45,668,-1,-1
"{'cat': 'RB', 'resp': 'button'}",29,136,Right,61.41734764569141,25.772493703873927,3.07086738228457,0.40483338442389766,Right,Correct,0.0,0.0,-45,45,844,-1,-1
"{'cat': 'RB', 'resp': 'button'}",29,137,Left,46.24544855947781,75.19415196653694,2.31227242797389,1.1811469770549345,Left,Correct,0.0,0.0,-45,45,971,-1,-1
"{'cat': 'RB', 'resp': 'button'}",29,138,Right,62.50231360328955,78.2331703932658,3.1251156801644777,1.2288837668726116,Right,Correct,0.0,0.0,-45,45,716,-1,-1
"{'cat': 'RB', 'resp': 'button'}",29,139,Right,64.78396408617812,61.021361750851284,3.239198204308906,0.9585213089425979,Right,Correct,0.0,0.0,-45,45,715,-1,-1
"{'cat': 'RB', 'resp': 'button'}",29,140,Right,58.31112801090142,88.10617888365705,2.915556400545071,1.3839686215838256,Right,Correct,0.0,0.0,-45,45,741,-1,-1
"{'cat': 'RB', 'resp': 'button'}",29,141,Right,58.991986580380754,27.916162109711458,2.9495993290190374,0.4385060490014563,Right,Correct,0.0,0.0,-45,45,1055,-1,-1
"{'cat': 'RB', 'resp': 'button'}",29,142,Right,62.659979748579524,49.31891607745214,3.132998987428976,0.7746997221596759,Right,Correct,0.0,0.0,-45,45,662,-1,-1
"{'cat': 'RB', 'resp': 'button'}",29,143,Right,54.90573529193008,79.07325351726922,2.745286764596504,1.2420797617264812,Right,Correct,0.0,0.0,-45,45,1152,-1,-1
"{'cat': 'RB', 'resp': 'button'}",29,144,Right,56.851298912019416,35.9434922855299,2.8425649456009707,0.5645990565429106,Right,Correct,0.0,0.0,-45,45,1015,-1,-1
"{'cat': 'RB', 'resp': 'button'}",29,145,Right,56.520366891915195,39.96126903929055,2.82601834459576,0.6277101462098023,Right,Correct,0.0,0.0,-45,45,1243,-1,-1
"{'cat': 'RB', 'resp': 'button'}",29,146,Right,61.534804982481894,13.357098996511304,3.0767402491240947,0.20981282040355756,Right,Correct,0.0,0.0,-45,45,1161,-1,-1
"{'cat': 'RB', 'resp': 'button'}",29,147,Left,40.48734229386812,20.697320728772713,2.024367114693406,0.3251127537525205,Left,Correct,0.0,0.0,-45,45,804,-1,-1
"{'cat': 'RB', 'resp': 'button'}",29,148,Right,59.06827440633506,59.97007419988573,2.9534137203167528,0.9420077227079788,Right,Correct,0.0,0.0,-45,45,1231,-1,-1
"{'cat': 'RB', 'resp': 'button'}",29,149,Right,65.67879888875689,69.18267466146514,3.2839399444378445,1.086718912360758,Right,Correct,0.0,0.0,-45,45,829,-1,-1
"{'cat': 'RB', 'resp': 'button'}",29,150,Right,56.20087827503971,28.217669199043822,2.8100439137519855,0.44324211128571533,Left,Incorrect,0.0,0.0,-45,45,1298,-1,-1
"{'cat': 'RB', 'resp': 'button'}",29,151,Right,50.991721524305866,53.233433483744115,2.5495860762152933,0.8361888177894571,Right,Correct,0.0,0.0,-45,45,1099,-1,-1
"{'cat': 'RB', 'resp': 'button'}",29,152,Right,55.834540890830525,48.56180336762075,2.791727044541526,0.762807023523947,Right,Correct,0.0,0.0,-45,45,933,-1,-1
"{'cat': 'RB', 'resp': 'button'}",29,153,Left,46.39216857405065,69.78068070065217,2.3196084287025327,1.0961123692583197,Left,Correct,0.0,0.0,-45,45,1019,-1,-1
"{'cat': 'RB', 'resp': 'button'}",29,154,Right,51.83084089864865,70.10798725713967,2.5915420449324325,1.101253688624984,Left,Incorrect,0.0,0.0,-45,45,1267,-1,-1
"{'cat': 'RB', 'resp': 'button'}",29,155,Left,40.53072028458724,49.56252317586968,2.026536014229362,0.7785262935134303,Left,Correct,0.0,0.0,-45,45,793,-1,-1
"{'cat': 'RB', 'resp': 'button'}",29,156,Left,47.93028433248119,34.353669436034004,2.39651421662406,0.5396261776204831,Right,Incorrect,0.0,0.0,-45,45,1692,-1,-1
"{'cat': 'RB', 'resp': 'button'}",29,157,Right,53.569784772578494,25.405718193930863,2.678489238628925,0.3990720881861287,Right,Correct,0.0,0.0,-45,45,1390,-1,-1
"{'cat': 'RB', 'resp': 'button'}",29,158,Right,59.41189472836673,69.52217769320364,2.9705947364183367,1.0920518135126638,Right,Correct,0.0,0.0,-45,45,1018,-1,-1
"{'cat': 'RB', 'resp': 'button'}",29,159,Left,43.29584354510104,25.25070684408004,2.1647921772550522,0.3966371755965568,Left,Correct,0.0,0.0,-45,45,703,-1,-1
"{'cat': 'RB', 'resp': 'button'}",29,160,Right,63.81718980103261,22.349541681054166,3.1908594900516305,0.3510657797814932,Right,Correct,0.0,0.0,-45,45,766,-1,-1
"{'cat': 'RB', 'resp': 'button'}",29,161,Right,61.92010880082089,72.27500559532595,3.0960054400410444,1.1352931330821858,Right,Correct,0.0,0.0,-45,45,596,-1,-1
"{'cat': 'RB', 'resp': 'button'}",29,162,Right,56.23943828569263,27.475905904237944,2.811971914284632,0.4315905206973918,Right,Correct,0.0,0.0,-45,45,724,-1,-1
"{'cat': 'RB', 'resp': 'button'}",29,163,Right,64.10092895349207,49.82208820580287,3.205046447674604,0.782603531469265,Right,Correct,0.0,0.0,-45,45,730,-1,-1
"{'cat': 'RB', 'resp': 'button'}",29,164,Right,57.43009957788476,54.10457573722706,2.8715049788942384,0.8498726883083255,Right,Correct,0.0,0.0,-45,45,574,-1,-1
"{'cat': 'RB', 'resp': 'button'}",29,165,Left,45.33021066378834,51.07705527341571,2.266510533189417,0.802316508069813,Left,Correct,0.0,0.0,-45,45,1659,-1,-1
"{'cat': 'RB', 'resp': 'button'}",29,166,Right,69.1838133336327,43.479278147789685,3.459190666681635,0.6829709040624165,Right,Correct,0.0,0.0,-45,45,608,-1,-1
"{'cat': 'RB', 'resp': 'button'}",29,167,Left,43.503592781266484,28.55853944243993,2.1751796390633245,0.4485964885481182,Left,Correct,0.0,0.0,-45,45,1216,-1,-1
"{'cat': 'RB', 'resp': 'button'}",29,168,Right,65.24427050843718,75.70455096062341,3.262213525421859,1.189164305706043,Right,Correct,0.0,0.0,-45,45,604,-1,-1
"{'cat': 'RB', 'resp': 'button'}",29,169,Right,55.405895738240474,40.89371954921292,2.770294786912024,0.642357044568843,Right,Correct,0.0,0.0,-45,45,1044,-1,-1
"{'cat': 'RB', 'resp': 'button'}",29,170,Left,38.52521332467719,51.71134250209484,1.9262606662338595,0.8122798685592338,Left,Correct,0.0,0.0,-45,45,599,-1,-1
"{'cat': 'RB', 'resp': 'button'}",29,171,Right,67.08668758508155,66.54211285999963,3.3543343792540776,1.0452410645765886,Right,Correct,0.0,0.0,-45,45,602,-1,-1
"{'cat': 'RB', 'resp': 'button'}",29,172,Right,51.25834189942108,45.50196476229121,2.5629170949710542,0.7147431911055785,Right,Correct,0.0,0.0,-45,45,776,-1,-1
"{'cat': 'RB', 'resp': 'button'}",29,173,Left,46.60099398149501,20.651473172208515,2.3300496990747503,0.32439258201808485,Left,Correct,0.0,0.0,-45,45,1231,-1,-1
"{'cat': 'RB', 'resp': 'button'}",29,174,Left,44.68828963369559,37.719135790674926,2.2344144816847797,0.5924907994987009,Left,Correct,0.0,0.0,-45,45,829,-1,-1
"{'cat': 'RB', 'resp': 'button'}",29,175,Left,42.62214494986759,80.03824206901382,2.1311072474933797,1.2572377664512766,Left,Correct,0.0,0.0,-45,45,767,-1,-1
"{'cat': 'RB', 'resp': 'button'}",29,176,Left,43.65926335831969,34.35610731157706,2.1829631679159847,0.5396644716799653,Left,Correct,0.0,0.0,-45,45,820,-1,-1
"{'cat': 'RB', 'resp': 'button'}",29,177,Left,36.38733519971085,21.094589452274285,1.8193667599855423,0.33135303626878815,Left,Correct,0.0,0.0,-45,45,669,-1,-1
"{'cat': 'RB', 'resp': 'button'}",29,178,Left,36.10784658958132,22.646347818984395,1.8053923294790661,0.3557279996938031,Left,Correct,0.0,0.0,-45,45,690,-1,-1
"{'cat': 'RB', 'resp': 'button'}",29,179,Right,55.261851041176314,75.64894511788938,2.763092552058816,1.1882908511708936,Right,Correct,0.0,0.0,-45,45,1114,-1,-1
"{'cat': 'RB', 'resp': 'button'}",29,180,Left,41.05553351962741,51.50923013539083,2.0527766759813706,0.8091050949270492,Left,Correct,0.0,0.0,-45,45,1173,-1,-1
"{'cat': 'RB', 'resp': 'button'}",29,181,Right,57.684821080399516,32.93008583312411,2.8842410540199754,0.5172645786771202,Right,Correct,0.0,0.0,-45,45,760,-1,-1
"{'cat': 'RB', 'resp': 'button'}",29,182,Right,55.98077483456736,45.58545460672597,2.7990387417283684,0.7160546465152064,Right,Correct,0.0,0.0,-45,45,812,-1,-1
"{'cat': 'RB', 'resp': 'button'}",29,183,Left,33.63348747888554,75.68304149807209,1.681674373944277,1.1888264358583738,Left,Correct,0.0,0.0,-45,45,878,-1,-1
"{'cat': 'RB', 'resp': 'button'}",29,184,Right,55.76858857714217,59.233150569726305,2.7884294288571083,0.9304321533941511,Right,Correct,0.0,0.0,-45,45,1033,-1,-1
"{'cat': 'RB', 'resp': 'button'}",29,185,Right,67.96465388347676,44.324150532132414,3.398232694173838,0.6962421284417766,Right,Correct,0.0,0.0,-45,45,754,-1,-1
"{'cat': 'RB', 'resp': 'button'}",29,186,Left,30.772544947425395,58.852170212134716,1.5386272473712697,0.9244477279312923,Left,Correct,0.0,0.0,-45,45,727,-1,-1
"{'cat': 'RB', 'resp': 'button'}",29,187,Left,38.7040298788026,76.68345940634453,1.93520149394013,1.2045409636141153,Left,Correct,0.0,0.0,-45,45,915,-1,-1
"{'cat': 'RB', 'resp': 'button'}",29,188,Right,60.966791373555104,34.71111833164309,3.048339568677755,0.5452409717428797,Right,Correct,0.0,0.0,-45,45,789,-1,-1
"{'cat': 'RB', 'resp': 'button'}",29,189,Left,46.220712923966396,29.777380798200568,2.3110356461983197,0.4677420037938634,Left,Correct,0.0,0.0,-45,45,2170,-1,-1
"{'cat': 'RB', 'resp': 'button'}",29,190,Left,35.74448481471833,55.638605023671545,1.7872242407359165,0.8739691639917534,Left,Correct,0.0,0.0,-45,45,1348,-1,-1
"{'cat': 'RB', 'resp': 'button'}",29,191,Right,53.23500993862099,57.62803125085575,2.6617504969310493,0.9052189980926572,Right,Correct,0.0,0.0,-45,45,1088,-1,-1
"{'cat': 'RB', 'resp': 'button'}",29,192,Right,57.79796918531376,42.59347656067613,2.8898984592656882,0.6690567652693459,Right,Correct,0.0,0.0,-45,45,1110,-1,-1
"{'cat': 'RB', 'resp': 'button'}",29,193,Left,35.59981086645118,32.08388523200507,1.779990543322559,0.503972490717426,Left,Correct,0.0,0.0,-45,45,861,-1,-1
"{'cat': 'RB', 'resp': 'button'}",29,194,Left,45.77508967919549,19.932474767630804,2.2887544839597744,0.3130985814892643,Left,Correct,0.0,0.0,-45,45,906,-1,-1
"{'cat': 'RB', 'resp': 'button'}",29,195,Left,38.4483744887673,90.35875913333561,1.9224187244383648,1.419352069403884,Left,Correct,0.0,0.0,-45,45,1368,-1,-1
"{'cat': 'RB', 'resp': 'button'}",29,196,Left,39.0030916284129,83.1313175392637,1.9501545814206451,1.3058236823229559,Left,Correct,0.0,0.0,-45,45,865,-1,-1
"{'cat': 'RB', 'resp': 'button'}",29,197,Left,36.6125191460736,58.88963550144132,1.83062595730368,0.9250362313195437,Left,Correct,0.0,0.0,-45,45,1413,-1,-1
"{'cat': 'RB', 'resp': 'button'}",29,198,Right,54.45023650877925,42.75134546079823,2.7225118254389624,0.6715365641536153,Right,Correct,0.0,0.0,-45,45,1909,-1,-1
"{'cat': 'RB', 'resp': 'button'}",29,199,Left,37.4817809297483,46.12211060841885,1.874089046487415,0.7244844192773228,Left,Correct,0.0,0.0,-45,45,2022,-1,-1
"{'cat': 'RB', 'resp': 'button'}",29,200,Left,46.434580550989004,46.110290063361205,2.32172902754945,0.7242987425897501,Right,Incorrect,0.0,0.0,-45,45,1503,-1,-1
"{'cat': 'RB', 'resp': 'button'}",29,201,Right,63.4457994454347,19.361244885551685,3.1722899722717353,0.3041257234840107,Right,Correct,0.0,0.0,-45,45,882,-1,-1
"{'cat': 'RB', 'resp': 'button'}",29,202,Left,48.54559784290858,64.30259545103578,2.427279892145429,1.0100628073786522,Right,Incorrect,0.0,0.0,-45,45,951,-1,-1
"{'cat': 'RB', 'resp': 'button'}",29,203,Left,40.09753233623881,89.25567859810312,2.00487661681194,1.4020249208748623,Left,Correct,0.0,0.0,-45,45,977,-1,-1
"{'cat': 'RB', 'resp': 'button'}",29,204,Left,45.22664964356977,72.0741475735754,2.2613324821784886,1.1321380626544555,Left,Correct,0.0,0.0,-45,45,1027,-1,-1
"{'cat': 'RB', 'resp': 'button'}",29,205,Left,43.8277727191023,28.40593621522548,2.191388635955115,0.4461994026604631,Left,Correct,0.0,0.0,-45,45,2295,-1,-1
"{'cat': 'RB', 'resp': 'button'}",29,206,Left,44.24918525466606,19.177589812407838,2.212459262733303,0.30124087634109464,Left,Correct,0.0,0.0,-45,45,852,-1,-1
"{'cat': 'RB', 'resp': 'button'}",29,207,Right,54.07032857858453,63.679500515741786,2.7035164289292264,1.000275255022609,Right,Correct,0.0,0.0,-45,45,1074,-1,-1
"{'cat': 'RB', 'resp': 'button'}",29,208,Right,51.35311422424653,40.645216476985475,2.5676557112123266,0.6384535674383218,Right,Correct,0.0,0.0,-45,45,1229,-1,-1
"{'cat': 'RB', 'resp': 'button'}",29,209,Right,60.33438966825243,56.069992776153995,3.016719483412621,0.8807453869619909,Right,Correct,0.0,0.0,-45,45,722,-1,-1
"{'cat': 'RB', 'resp': 'button'}",29,210,Right,60.28035084239776,69.8791512804999,3.014017542119888,1.0976591415095416,Right,Correct,0.0,0.0,-45,45,699,-1,-1
"{'cat': 'RB', 'resp': 'button'}",29,211,Left,35.659090282342575,80.05832932715514,1.7829545141171286,1.2575532963643143,Left,Correct,0.0,0.0,-45,45,580,-1,-1
"{'cat': 'RB', 'resp': 'button'}",29,212,Right,66.44694150298047,74.37274951908358,3.322347075149023,1.1682444175821338,Right,Correct,0.0,0.0,-45,45,912,-1,-1
"{'cat': 'RB', 'resp': 'button'}",29,213,Left,39.96103380010122,15.460600862588478,1.998051690005061,0.24285455044995996,Left,Correct,0.0,0.0,-45,45,837,-1,-1
"{'cat': 'RB', 'resp': 'button'}",29,214,Left,33.00385895904396,52.64138030800974,1.650192947952198,0.8268888682523488,Left,Correct,0.0,0.0,-45,45,799,-1,-1
"{'cat': 'RB', 'resp': 'button'}",29,215,Left,31.624073811547937,55.726331706917755,1.5812036905773967,0.8753471715098038,Left,Correct,0.0,0.0,-45,45,829,-1,-1
"{'cat': 'RB', 'resp': 'button'}",29,216,Right,66.88320192187467,63.05905125773515,3.3441600960937334,0.9905292608682146,Right,Correct,0.0,0.0,-45,45,768,-1,-1
"{'cat': 'RB', 'resp': 'button'}",29,217,Right,51.728127961528415,50.317431329850464,2.5864063980764205,0.7903843630668356,Right,Correct,0.0,0.0,-45,45,673,-1,-1
"{'cat': 'RB', 'resp': 'button'}",29,218,Left,44.4103112767576,79.246823747319,2.2205155638378797,1.2448061965245125,Left,Correct,0.0,0.0,-45,45,1197,-1,-1
"{'cat': 'RB', 'resp': 'button'}",29,219,Right,50.93835600244951,54.42506421484177,2.5469178001224755,0.8549069095424983,Left,Incorrect,0.0,0.0,-45,45,1264,-1,-1
"{'cat': 'RB', 'resp': 'button'}",29,220,Right,63.498263375063246,14.46448818560144,3.174913168753162,0.2272076491091092,Right,Correct,0.0,0.0,-45,45,1282,-1,-1
"{'cat': 'RB', 'resp': 'button'}",29,221,Right,51.930930950922054,60.73137169466813,2.5965465475461027,0.9539661557920024,Left,Incorrect,0.0,0.0,-45,45,1537,-1,-1
"{'cat': 'RB', 'resp': 'button'}",29,222,Left,38.44753527857566,67.91465580533247,1.9223767639287828,1.0668009187455596,Left,Correct,0.0,0.0,-45,45,736,-1,-1
"{'cat': 'RB', 'resp': 'button'}",29,223,Left,39.15027967061796,9.406775277048602,1.9575139835308983,0.1477612805217299,Left,Correct,0.0,0.0,-45,45,905,-1,-1
"{'cat': 'RB', 'resp': 'button'}",29,224,Right,68.89429702222681,50.5329418028349,3.4447148511113403,0.7937695936603335,Right,Correct,0.0,0.0,-45,45,666,-1,-1
"{'cat': 'RB', 'resp': 'button'}",29,225,Left,45.85922589822656,28.87022452055428,2.292961294911328,0.4534924263063062,Left,Correct,0.0,0.0,-45,45,1111,-1,-1
"{'cat': 'RB', 'resp': 'button'}",29,226,Right,60.85957759536072,80.36139409865274,3.0429788797680364,1.262313826662808,Right,Correct,0.0,0.0,-45,45,1182,-1,-1
"{'cat': 'RB', 'resp': 'button'}",29,227,Left,38.31146301840159,25.840062304554962,1.9155731509200793,0.405894749521462,Left,Correct,0.0,0.0,-45,45,758,-1,-1
"{'cat': 'RB', 'resp': 'button'}",29,228,Right,50.69714647824782,46.96267410220523,2.534857323912391,0.737687959762098,Left,Incorrect,0.0,0.0,-45,45,999,-1,-1
"{'cat': 'RB', 'resp': 'button'}",29,229,Left,36.972970057464124,71.52997063671765,1.8486485028732063,1.123590151319029,Left,Correct,0.0,0.0,-45,45,672,-1,-1
"{'cat': 'RB', 'resp': 'button'}",29,230,Left,36.55321733529596,83.99774317029258,1.827660866764798,1.3194334643095669,Left,Correct,0.0,0.0,-45,45,636,-1,-1
"{'cat': 'RB', 'resp': 'button'}",29,231,Right,59.505228769703066,14.119391588150421,2.9752614384851537,0.2217868844324544,Right,Correct,0.0,0.0,-45,45,845,-1,-1
"{'cat': 'RB', 'resp': 'button'}",29,232,Left,38.22100098510568,27.10083006207777,1.9110500492552842,0.4256988431460447,Left,Correct,0.0,0.0,-45,45,1537,-1,-1
"{'cat': 'RB', 'resp': 'button'}",29,233,Left,34.694443768616004,71.20916235184438,1.7347221884308002,1.1185509065641859,Left,Correct,0.0,0.0,-45,45,1206,-1,-1
"{'cat': 'RB', 'resp': 'button'}",29,234,Left,36.623407306210844,29.662922116885955,1.8311703653105422,0.46594409103207557,Left,Correct,0.0,0.0,-45,45,873,-1,-1
"{'cat': 'RB', 'resp': 'button'}",29,235,Right,60.238931403961445,75.51479859784217,3.011946570198072,1.1861836825614689,Right,Correct,0.0,0.0,-45,45,896,-1,-1
"{'cat': 'RB', 'resp': 'button'}",29,236,Left,35.049076234032604,74.65137733256823,1.7524538117016304,1.1726210930417797,Left,Correct,0.0,0.0,-45,45,1164,-1,-1
"{'cat': 'RB', 'resp': 'button'}",29,237,Right,59.79711881708219,9.145023067486527,2.9898559408541097,0.14364968642862433,Right,Correct,0.0,0.0,-45,45,1197,-1,-1
"{'cat': 'RB', 'resp': 'button'}",29,238,Left,37.25929530310013,78.30139411795253,1.8629647651550068,1.2299554226339935,Left,Correct,0.0,0.0,-45,45,1175,-1,-1
"{'cat': 'RB', 'resp': 'button'}",29,239,Left,39.00313015116942,77.01716204186036,1.950156507558471,1.2097827523552158,Left,Correct,0.0,0.0,-45,45,988,-1,-1
"{'cat': 'RB', 'resp': 'button'}",29,240,Left,38.166933315970375,82.25342204081355,1.9083466657985186,1.2920337320802031,Left,Correct,0.0,0.0,-45,45,862,-1,-1
"{'cat': 'RB', 'resp': 'button'}",29,241,Right,69.29817889957603,44.78654864944111,3.4649089449788018,0.7035054610836302,Right,Correct,0.0,0.0,-45,45,741,-1,-1
"{'cat': 'RB', 'resp': 'button'}",29,242,Right,51.280657551995695,44.57647351537452,2.5640328775997845,0.7002056085942029,Right,Correct,0.0,0.0,-45,45,1345,-1,-1
"{'cat': 'RB', 'resp': 'button'}",29,243,Right,66.18953577544582,40.84085544804908,3.309476788772291,0.6415266572095685,Right,Correct,0.0,0.0,-45,45,853,-1,-1
"{'cat': 'RB', 'resp': 'button'}",29,244,Left,34.75603049869106,33.23150292201466,1.737801524934553,0.5219992272377451,Left,Correct,0.0,0.0,-45,45,661,-1,-1
"{'cat': 'RB', 'resp': 'button'}",29,245,Right,55.944059541715546,53.69666631366033,2.797202977085777,0.8434652620662891,Right,Correct,0.0,0.0,-45,45,1148,-1,-1
"{'cat': 'RB', 'resp': 'button'}",29,246,Left,46.87730642748265,63.68290714562674,2.3438653213741327,1.0003287662397096,Right,Incorrect,0.0,0.0,-45,45,1431,-1,-1
"{'cat': 'RB', 'resp': 'button'}",29,247,Left,35.081541054322415,15.101009461802548,1.754077052716121,0.2372061019349442,Left,Correct,0.0,0.0,-45,45,764,-1,-1
"{'cat': 'RB', 'resp': 'button'}",29,248,Right,55.98363886025152,80.05421747524689,2.799181943012576,1.257488707545576,Right,Correct,0.0,0.0,-45,45,1004,-1,-1
"{'cat': 'RB', 'resp': 'button'}",29,249,Left,41.28566571445648,89.1445257472381,2.064283285722824,1.400278935976347,Left,Correct,0.0,0.0,-45,45,886,-1,-1
"{'cat': 'RB', 'resp': 'button'}",29,250,Left,37.81154004564263,15.878331114089534,1.8905770022821315,0.2494162418964496,Left,Correct,0.0,0.0,-45,45,1137,-1,-1
"{'cat': 'RB', 'resp': 'button'}",29,251,Right,66.08813876677551,59.38437186255074,3.3044069383387757,0.9328075319071691,Right,Correct,0.0,0.0,-45,45,558,-1,-1
"{'cat': 'RB', 'resp': 'button'}",29,252,Left,37.91130081254018,45.27133818266551,1.8955650406270093,0.7111205172642052,Left,Correct,0.0,0.0,-45,45,594,-1,-1
"{'cat': 'RB', 'resp': 'button'}",29,253,Right,69.33753488711145,48.51156455839523,3.4668767443555724,0.762017874154007,Right,Correct,0.0,0.0,-45,45,597,-1,-1
"{'cat': 'RB', 'resp': 'button'}",29,254,Left,45.84622773687188,23.031600151238475,2.292311386843594,0.36177952917774187,Left,Correct,0.0,0.0,-45,45,633,-1,-1
"{'cat': 'RB', 'resp': 'button'}",29,255,Left,30.710214788373424,54.696666585200255,1.5355107394186711,0.8591732295995772,Left,Correct,0.0,0.0,-45,45,527,-1,-1
"{'cat': 'RB', 'resp': 'button'}",29,256,Left,42.635735816574844,76.88785552525812,2.1317867908287425,1.2077516103421215,Left,Correct,0.0,0.0,-45,45,593,-1,-1
"{'cat': 'RB', 'resp': 'button'}",29,257,Left,41.518572902730675,84.17530585414312,2.0759286451365337,1.3222226124252496,Left,Correct,0.0,0.0,-45,45,643,-1,-1
"{'cat': 'RB', 'resp': 'button'}",29,258,Right,53.818825011312995,30.416123486750305,2.6909412505656496,0.4777753504832736,Right,Correct,0.0,0.0,-45,45,930,-1,-1
"{'cat': 'RB', 'resp': 'button'}",29,259,Right,54.45086613603612,26.253264224112204,2.722543306801806,0.4123853100961132,Right,Correct,0.0,0.0,-45,45,677,-1,-1
"{'cat': 'RB', 'resp': 'button'}",29,260,Left,41.54551693387979,90.3162730641591,2.0772758466939893,1.4186846997898597,Left,Correct,0.0,0.0,-45,45,913,-1,-1
"{'cat': 'RB', 'resp': 'button'}",29,261,Left,41.54253390749822,69.02814639670717,2.077126695374911,1.08429158805408,Left,Correct,0.0,0.0,-45,45,814,-1,-1
"{'cat': 'RB', 'resp': 'button'}",29,262,Left,47.978350000012476,58.12899473477292,2.398917500000624,0.9130881140966118,Left,Correct,0.0,0.0,-45,45,729,-1,-1
"{'cat': 'RB', 'resp': 'button'}",29,263,Right,57.873704577815815,36.01275457315799,2.893685228890791,0.5656870260128268,Left,Incorrect,0.0,0.0,-45,45,941,-1,-1
"{'cat': 'RB', 'resp': 'button'}",29,264,Left,43.30897548107081,29.73320966721424,2.1654487740535404,0.4670481652908263,Left,Correct,0.0,0.0,-45,45,1815,-1,-1
"{'cat': 'RB', 'resp': 'button'}",29,265,Right,61.19828957780659,71.50044676633682,3.059914478890329,1.1231263914475593,Right,Correct,0.0,0.0,-45,45,759,-1,-1
"{'cat': 'RB', 'resp': 'button'}",29,266,Right,54.74689135122897,83.24637503353793,2.7373445675614483,1.3076310012167176,Right,Correct,0.0,0.0,-45,45,658,-1,-1
"{'cat': 'RB', 'resp': 'button'}",29,267,Left,41.08947639518583,38.494382910357196,2.0544738197592913,0.6046683527782533,Left,Correct,0.0,0.0,-45,45,809,-1,-1
"{'cat': 'RB', 'resp': 'button'}",29,268,Left,44.944342018503775,20.387709897187555,2.247217100925189,0.3202493981826217,Left,Correct,0.0,0.0,-45,45,811,-1,-1
"{'cat': 'RB', 'resp': 'button'}",29,269,Right,53.55618784226414,74.70363490610904,2.6778093921132067,1.173441953087431,Right,Correct,0.0,0.0,-45,45,1311,-1,-1
"{'cat': 'RB', 'resp': 'button'}",29,270,Right,62.76174939107212,15.0498515158544,3.1380874695536063,0.236402514799127,Right,Correct,0.0,0.0,-45,45,1184,-1,-1
"{'cat': 'RB', 'resp': 'button'}",29,271,Left,40.35460746377154,44.736672172750396,2.017730373188577,0.7027220032198379,Left,Correct,0.0,0.0,-45,45,813,-1,-1
"{'cat': 'RB', 'resp': 'button'}",29,272,Left,36.818753062588186,47.245493317532244,1.8409376531294095,0.7421304736079248,Left,Correct,0.0,0.0,-45,45,666,-1,-1
"{'cat': 'RB', 'resp': 'button'}",29,273,Right,56.00895981638694,54.3845659134038,2.8004479908193467,0.8542707637110963,Right,Correct,0.0,0.0,-45,45,1305,-1,-1
"{'cat': 'RB', 'resp': 'button'}",29,274,Right,61.731379963113675,88.45071665039288,3.0865689981556836,1.3893806081681332,Right,Correct,0.0,0.0,-45,45,1091,-1,-1
"{'cat': 'RB', 'resp': 'button'}",29,275,Right,54.73500670594076,80.01666621343807,2.736750335297038,1.2568988537044183,Right,Correct,0.0,0.0,-45,45,715,-1,-1
"{'cat': 'RB', 'resp': 'button'}",29,276,Left,39.76424696056737,50.183324901912925,1.9882123480283684,0.7882778242227969,Left,Correct,0.0,0.0,-45,45,884,-1,-1
"{'cat': 'RB', 'resp': 'button'}",29,277,Right,56.489136853316516,46.81783369112301,2.824456842665826,0.7354128119051039,Right,Correct,0.0,0.0,-45,45,1001,-1,-1
"{'cat': 'RB', 'resp': 'button'}",29,278,Right,51.85604208338068,67.68850674311001,2.592802104169034,1.063248577583088,Right,Correct,0.0,0.0,-45,45,736,-1,-1
"{'cat': 'RB', 'resp': 'button'}",29,279,Left,34.02124967608108,38.75971836863997,1.701062483804054,0.6088362324106436,Left,Correct,0.0,0.0,-45,45,688,-1,-1
"{'cat': 'RB', 'resp': 'button'}",29,280,Left,46.00855000358247,19.267966998084162,2.3004275001791235,0.3026605178539589,Right,Incorrect,0.0,0.0,-45,45,1142,-1,-1
"{'cat': 'RB', 'resp': 'button'}",29,281,Right,59.40015840577106,52.969389276854415,2.970007920288553,0.832041221086519,Right,Correct,0.0,0.0,-45,45,3726,-1,-1
"{'cat': 'RB', 'resp': 'button'}",29,282,Right,55.18462429264562,21.511988632128027,2.759231214632281,0.3379095272540028,Right,Correct,0.0,0.0,-45,45,693,-1,-1
"{'cat': 'RB', 'resp': 'button'}",29,283,Right,58.520756374858884,87.7955865851865,2.9260378187429446,1.3790898491681425,Right,Correct,0.0,0.0,-45,45,614,-1,-1
"{'cat': 'RB', 'resp': 'button'}",29,284,Right,54.06335116203849,61.06887856975792,2.7031675581019243,0.9592677013885931,Right,Correct,0.0,0.0,-45,45,782,-1,-1
"{'cat': 'RB', 'resp': 'button'}",29,285,Right,65.34069787842033,41.02129830274921,3.267034893921016,0.6443610469431619,Right,Correct,0.0,0.0,-45,45,793,-1,-1
"{'cat': 'RB', 'resp': 'button'}",29,286,Left,39.90080803082405,61.327143030120055,1.9950404015412027,0.9633245100453783,Left,Correct,0.0,0.0,-45,45,959,-1,-1
"{'cat': 'RB', 'resp': 'button'}",29,287,Right,56.99110883127953,45.879919176323476,2.8495554415639766,0.7206800851581565,Left,Incorrect,0.0,0.0,-45,45,1629,-1,-1
"{'cat': 'RB', 'resp': 'button'}",29,288,Right,67.50762458426722,46.86416514164911,3.3753812292133607,0.7361405846281185,Right,Correct,0.0,0.0,-45,45,732,-1,-1
"{'cat': 'RB', 'resp': 'button'}",29,289,Left,34.042840367520576,37.582015782782555,1.7021420183760287,0.5903369234514267,Left,Correct,0.0,0.0,-45,45,603,-1,-1
"{'cat': 'RB', 'resp': 'button'}",29,290,Left,43.92364281957216,26.55086697789904,2.196182140978608,0.41706004322103735,Left,Correct,0.0,0.0,-45,45,1283,-1,-1
"{'cat': 'RB', 'resp': 'button'}",29,291,Left,40.05488610364166,65.78844514088163,2.0027443051820826,1.0334024797284445,Left,Correct,0.0,0.0,-45,45,580,-1,-1
"{'cat': 'RB', 'resp': 'button'}",29,292,Left,45.05359617681461,49.90148487391227,2.2526798088407305,0.7838506914155248,Left,Correct,0.0,0.0,-45,45,1479,-1,-1
"{'cat': 'RB', 'resp': 'button'}",29,293,Right,63.28640995665433,87.66666859545069,3.164320497832717,1.3770648101207945,Right,Correct,0.0,0.0,-45,45,717,-1,-1
"{'cat': 'RB', 'resp': 'button'}",29,294,Left,40.828567607852,75.18425184037184,2.0414283803926,1.1809914662367853,Left,Correct,0.0,0.0,-45,45,934,-1,-1
"{'cat': 'RB', 'resp': 'button'}",29,295,Left,39.54614143545156,31.16173589063582,1.9773070717725778,0.48948740273563446,Left,Correct,0.0,0.0,-45,45,625,-1,-1
"{'cat': 'RB', 'resp': 'button'}",29,296,Right,56.23887450241428,40.269076408742606,2.8119437251207144,0.6325451730627591,Right,Correct,0.0,0.0,-45,45,624,-1,-1
"{'cat': 'RB', 'resp': 'button'}",29,297,Left,42.56055824321404,35.86642574839399,2.128027912160702,0.5633884982083918,Left,Correct,0.0,0.0,-45,45,648,-1,-1
"{'cat': 'RB', 'resp': 'button'}",29,298,Left,41.39257353955262,16.221612879702967,2.069628676977631,0.25480849926126203,Left,Correct,0.0,0.0,-45,45,545,-1,-1
"{'cat': 'RB', 'resp': 'button'}",29,299,Left,31.305861190882926,57.5735295911241,1.5652930595441463,0.9043628880235502,Left,Correct,0.0,0.0,-45,45,533,-1,-1
"{'cat': 'RB', 'resp': 'button'}",29,300,Right,60.587818182529915,18.386395720606743,3.029390909126496,0.28881282860926477,Right,Correct,0.0,0.0,-45,45,719,-1,-1
"{'cat': 'RB', 'resp': 'button'}",29,301,Left,39.97239421885254,37.09920384870946,1.9986197109426271,0.5827529313256791,Left,Correct,0.0,0.0,-45,45,994,-1,-1
"{'cat': 'RB', 'resp': 'button'}",29,302,Right,55.58908184330771,63.28841309224265,2.779454092165386,0.9941320681397279,Right,Correct,0.0,0.0,-45,45,802,-1,-1
"{'cat': 'RB', 'resp': 'button'}",29,303,Right,55.77233144112586,26.542543487201392,2.7886165720562928,0.41692929813489754,Right,Correct,0.0,0.0,-45,45,631,-1,-1
"{'cat': 'RB', 'resp': 'button'}",29,304,Right,64.06276242332086,43.97321760494439,3.203138121166043,0.6907296869119933,Right,Correct,0.0,0.0,-45,45,538,-1,-1
"{'cat': 'RB', 'resp': 'button'}",29,305,Right,57.23392207652464,24.627218762455858,2.861696103826232,0.3868434477124002,Right,Correct,0.0,0.0,-45,45,1134,-1,-1
"{'cat': 'RB', 'resp': 'button'}",29,306,Left,38.18492149554757,45.051347830602374,1.9092460747773785,0.7076649168946945,Left,Correct,0.0,0.0,-45,45,600,-1,-1
"{'cat': 'RB', 'resp': 'button'}",29,307,Right,56.203627462499384,57.03379887400891,2.8101813731249696,0.895884817744521,Right,Correct,0.0,0.0,-45,45,613,-1,-1
"{'cat': 'RB', 'resp': 'button'}",29,308,Left,42.56805749797972,62.39235843599042,2.1284028748989865,0.9800568745132433,Left,Correct,0.0,0.0,-45,45,762,-1,-1
"{'cat': 'RB', 'resp': 'button'}",29,309,Left,43.76706187257426,22.58962226362736,2.188353093628713,0.3548369567539007,Left,Correct,0.0,0.0,-45,45,1145,-1,-1
"{'cat': 'RB', 'resp': 'button'}",29,310,Right,60.38673085817258,26.29864860875326,3.0193365429086287,0.4130982063429934,Right,Correct,0.0,0.0,-45,45,814,-1,-1
"{'cat': 'RB', 'resp': 'button'}",29,311,Left,35.83239254979124,75.87610197562775,1.7916196274895617,1.1918590227483106,Left,Correct,0.0,0.0,-45,45,1022,-1,-1
"{'cat': 'RB', 'resp': 'button'}",29,312,Right,67.5759214365374,68.4424368706235,3.3787960718268697,1.0750912843326696,Right,Correct,0.0,0.0,-45,45,616,-1,-1
"{'cat': 'RB', 'resp': 'button'}",29,313,Right,62.0276985228769,36.109539729995,3.1013849261438446,0.5672073237013052,Right,Correct,0.0,0.0,-45,45,755,-1,-1
"{'cat': 'RB', 'resp': 'button'}",29,314,Left,36.70331377481435,27.3631801769286,1.8351656887407173,0.4298198291134638,Left,Correct,0.0,0.0,-45,45,711,-1,-1
"{'cat': 'RB', 'resp': 'button'}",29,315,Right,68.62539809713955,47.527514252847645,3.4312699048569777,0.7465604481006518,Right,Correct,0.0,0.0,-45,45,692,-1,-1
"{'cat': 'RB', 'resp': 'button'}",29,316,Right,54.1993873503523,43.293493653250934,2.709969367517615,0.6800526080464474,Left,Incorrect,0.0,0.0,-45,45,1834,-1,-1
"{'cat': 'RB', 'resp': 'button'}",29,317,Right,55.55403096287489,40.11060225673441,2.7777015481437446,0.630055866904095,Right,Correct,0.0,0.0,-45,45,689,-1,-1
"{'cat': 'RB', 'resp': 'button'}",29,318,Left,34.108858128582696,59.33323888073099,1.705442906429135,0.9320043369069637,Left,Correct,0.0,0.0,-45,45,618,-1,-1
"{'cat': 'RB', 'resp': 'button'}",29,319,Left,39.90673429213142,28.599659408465854,1.995336714606571,0.4492423994640327,Left,Correct,0.0,0.0,-45,45,590,-1,-1
"{'cat': 'RB', 'resp': 'button'}",29,320,Right,63.72361124918987,73.81054213593241,3.1861805624594934,1.1594132846586256,Right,Correct,0.0,0.0,-45,45,643,-1,-1
"{'cat': 'RB', 'resp': 'button'}",29,321,Right,65.87452785000511,49.05941183194899,3.2937263925002553,0.7706234390034357,Right,Correct,0.0,0.0,-45,45,476,-1,-1
"{'cat': 'RB', 'resp': 'button'}",29,322,Right,59.903934469233675,67.66866938277062,2.9951967234616834,1.0629369730555436,Right,Correct,0.0,0.0,-45,45,525,-1,-1
"{'cat': 'RB', 'resp': 'button'}",29,323,Right,63.79448840536761,80.89509061287774,3.1897244202683805,1.2706971119044868,Right,Correct,0.0,0.0,-45,45,539,-1,-1
"{'cat': 'RB', 'resp': 'button'}",29,324,Right,61.679506820388006,27.587948725624155,3.0839753410194004,0.43335048522016373,Right,Correct,0.0,0.0,-45,45,676,-1,-1
"{'cat': 'RB', 'resp': 'button'}",29,325,Right,51.70948768879797,64.77426607933054,2.5854743844398986,1.017471792282477,Right,Correct,0.0,0.0,-45,45,686,-1,-1
"{'cat': 'RB', 'resp': 'button'}",29,326,Left,32.51754677399686,65.07924152552275,1.625877338699843,1.0222623353888902,Left,Correct,0.0,0.0,-45,45,598,-1,-1
"{'cat': 'RB', 'resp': 'button'}",29,327,Left,39.799307241022554,50.28519997235258,1.9899653620511275,0.7898780740871827,Left,Correct,0.0,0.0,-45,45,828,-1,-1
"{'cat': 'RB', 'resp': 'button'}",29,328,Left,33.95240959230211,71.46896918601534,1.6976204796151055,1.1226319427721054,Left,Correct,0.0,0.0,-45,45,540,-1,-1
"{'cat': 'RB', 'resp': 'button'}",29,329,Right,66.14561867518869,28.071348398976156,3.3072809337594347,0.4409437095329154,Right,Correct,0.0,0.0,-45,45,905,-1,-1
"{'cat': 'RB', 'resp': 'button'}",29,330,Left,43.47167306701602,61.79695525173615,2.173583653350801,0.9707043031653574,Left,Correct,0.0,0.0,-45,45,818,-1,-1
"{'cat': 'RB', 'resp': 'button'}",29,331,Right,59.5948074015377,14.514068083848635,2.9797403700768847,0.2279864483296048,Left,Incorrect,0.0,0.0,-45,45,1142,-1,-1
"{'cat': 'RB', 'resp': 'button'}",29,332,Left,38.639503971814015,86.21102415013817,1.9319751985907008,1.3541996006426316,Left,Correct,0.0,0.0,-45,45,599,-1,-1
"{'cat': 'RB', 'resp': 'button'}",29,333,Right,60.65960880554995,44.092968217135734,3.032980440277498,0.6926107251296093,Right,Correct,0.0,0.0,-45,45,667,-1,-1
"{'cat': 'RB', 'resp': 'button'}",29,334,Right,58.610681754555,52.1569025533318,2.93053408772775,0.8192787094777295,Right,Correct,0.0,0.0,-45,45,841,-1,-1
"{'cat': 'RB', 'resp': 'button'}",29,335,Right,53.44721542041698,72.88154918045635,2.672360771020849,1.1448206974378243,Right,Correct,0.0,0.0,-45,45,1142,-1,-1
"{'cat': 'RB', 'resp': 'button'}",29,336,Left,44.74999917452374,70.05719999807168,2.237499958726187,1.1004559242250642,Left,Correct,0.0,0.0,-45,45,1753,-1,-1
"{'cat': 'RB', 'resp': 'button'}",29,337,Right,68.32598537548388,64.23085309540295,3.416299268774194,1.0089358810916156,Right,Correct,0.0,0.0,-45,45,565,-1,-1
"{'cat': 'RB', 'resp': 'button'}",29,338,Right,60.54993626632281,43.5645649631882,3.0274968133161404,0.6843105862259367,Right,Correct,0.0,0.0,-45,45,592,-1,-1
"{'cat': 'RB', 'resp': 'button'}",29,339,Left,41.75316474454361,9.574234298793343,2.0876582372271804,0.15039172068418294,Left,Correct,0.0,0.0,-45,45,604,-1,-1
"{'cat': 'RB', 'resp': 'button'}",29,340,Left,39.90014771970403,37.20230616141451,1.9950073859852013,0.5843724586664907,Left,Correct,0.0,0.0,-45,45,850,-1,-1
"{'cat': 'RB', 'resp': 'button'}",29,341,Left,45.19508039548593,78.35379042925265,2.259754019774297,1.230778461967272,Left,Correct,0.0,0.0,-45,45,733,-1,-1
"{'cat': 'RB', 'resp': 'button'}",29,342,Right,55.90365872177745,23.234042677121742,2.7951829360888722,0.36495948893818697,Right,Correct,0.0,0.0,-45,45,843,-1,-1
"{'cat': 'RB', 'resp': 'button'}",29,343,Right,57.61779195216105,56.69855143261432,2.8808895976080526,0.890618763249421,Right,Correct,0.0,0.0,-45,45,567,-1,-1
"{'cat': 'RB', 'resp': 'button'}",29,344,Right,62.42146845353852,87.68878989128626,3.1210734226769263,1.3774122906232191,Right,Correct,0.0,0.0,-45,45,565,-1,-1
"{'cat': 'RB', 'resp': 'button'}",29,345,Left,33.42031553634558,63.17710196304819,1.671015776817279,0.9923835970110274,Left,Correct,0.0,0.0,-45,45,809,-1,-1
"{'cat': 'RB', 'resp': 'button'}",29,346,Right,55.57831644320388,18.793318705595123,2.778915822160194,0.29520475991034634,Left,Incorrect,0.0,0.0,-45,45,1035,-1,-1
"{'cat': 'RB', 'resp': 'button'}",29,347,Right,60.97192573822566,82.75088938682319,3.048596286911283,1.2998479308783266,Right,Correct,0.0,0.0,-45,45,763,-1,-1
"{'cat': 'RB', 'resp': 'button'}",29,348,Right,68.63898000010344,54.15595445923633,3.4319490000051722,0.8506797433864012,Right,Correct,0.0,0.0,-45,45,543,-1,-1
"{'cat': 'RB', 'resp': 'button'}",29,349,Right,56.20159612214091,57.92569219572844,2.810079806107046,0.9098946452810203,Right,Correct,0.0,0.0,-45,45,783,-1,-1
"{'cat': 'RB', 'resp': 'button'}",29,350,Left,43.47861113683485,87.81388657457074,2.1739305568417424,1.3793773047291942,Left,Correct,0.0,0.0,-45,45,661,-1,-1
"{'cat': 'RB', 'resp': 'button'}",29,351,Left,37.54220410091287,54.671061243817206,1.8771102050456434,0.858771021837669,Left,Correct,0.0,0.0,-45,45,772,-1,-1
"{'cat': 'RB', 'resp': 'button'}",29,352,Left,42.09230312278106,66.8301861371568,2.104615156139053,1.049766109032651,Left,Correct,0.0,0.0,-45,45,838,-1,-1
"{'cat': 'RB', 'resp': 'button'}",29,353,Right,60.5997841466255,10.811480981357604,3.0299892073312753,0.16982634612729405,Right,Correct,0.0,0.0,-45,45,678,-1,-1
"{'cat': 'RB', 'resp': 'button'}",29,354,Right,54.752997623167154,22.068739051653694,2.7376498811583576,0.3466549423933271,Left,Incorrect,0.0,0.0,-45,45,873,-1,-1
"{'cat': 'RB', 'resp': 'button'}",29,355,Right,64.08449876245317,25.949001861408636,3.204224938122658,0.4076059680789461,Right,Correct,0.0,0.0,-45,45,712,-1,-1
"{'cat': 'RB', 'resp': 'button'}",29,356,Left,45.295746401536206,84.17742075886537,2.2647873200768105,1.322255833270942,Right,Incorrect,0.0,0.0,-45,45,1560,-1,-1
"{'cat': 'RB', 'resp': 'button'}",29,357,Right,51.44283047040399,34.53460151559329,2.5721415235201994,0.542468252080194,Left,Incorrect,0.0,0.0,-45,45,2286,-1,-1
"{'cat': 'RB', 'resp': 'button'}",29,358,Right,62.754250444368715,89.48171094122458,3.1377125222184357,1.4055754286179827,Right,Correct,0.0,0.0,-45,45,721,-1,-1
"{'cat': 'RB', 'resp': 'button'}",29,359,Left,34.12828968721464,43.78447675904167,1.706414484360732,0.6877649526373916,Left,Correct,0.0,0.0,-45,45,632,-1,-1
"{'cat': 'RB', 'resp': 'button'}",29,360,Left,37.09758056352127,77.68533622562185,1.8548790281760634,1.2202784078903333,Left,Correct,0.0,0.0,-45,45,614,-1,-1
"{'cat': 'RB', 'resp': 'button'}",29,361,Left,32.79817382841878,57.41853688901983,1.639908691420939,0.9019282683520962,Left,Correct,0.0,0.0,-45,45,519,-1,-1
"{'cat': 'RB', 'resp': 'button'}",29,362,Right,63.9429911815796,60.80942433730236,3.19714955907898,0.9551922038354675,Right,Correct,0.0,0.0,-45,45,690,-1,-1
"{'cat': 'RB', 'resp': 'button'}",29,363,Right,57.593537413532104,28.654620066325766,2.879676870676605,0.4501057194588785,Right,Correct,0.0,0.0,-45,45,563,-1,-1
"{'cat': 'RB', 'resp': 'button'}",29,364,Left,44.25342417764998,69.20631618120615,2.212671208882499,1.0870902724844482,Left,Correct,0.0,0.0,-45,45,782,-1,-1
"{'cat': 'RB', 'resp': 'button'}",29,365,Left,45.32327717557946,70.7753565177366,2.266163858778973,1.1117367004565988,Left,Correct,0.0,0.0,-45,45,666,-1,-1
"{'cat': 'RB', 'resp': 'button'}",29,366,Left,34.7334335453545,80.18219322727819,1.736671677267725,1.2594989459576722,Left,Correct,0.0,0.0,-45,45,566,-1,-1
"{'cat': 'RB', 'resp': 'button'}",29,367,Right,51.63291443064104,69.20138328886964,2.581645721532052,1.0870127867928217,Right,Correct,0.0,0.0,-45,45,1061,-1,-1
"{'cat': 'RB', 'resp': 'button'}",29,368,Left,47.59105445641777,26.09530645376543,2.3795527228208884,0.40990411524161896,Right,Incorrect,0.0,0.0,-45,45,920,-1,-1
"{'cat': 'RB', 'resp': 'button'}",29,369,Right,54.03446547154672,27.20482857510727,2.7017232735773358,0.42733244796863346,Left,Incorrect,0.0,0.0,-45,45,1223,-1,-1
"{'cat': 'RB', 'resp': 'button'}",29,370,Left,45.29896377117236,25.72228506304229,2.264948188558618,0.40404470893798056,Left,Correct,0.0,0.0,-45,45,942,-1,-1
"{'cat': 'RB', 'resp': 'button'}",29,371,Left,46.80690353176979,62.80167965660435,2.3403451765884897,0.986486477211439,Left,Correct,0.0,0.0,-45,45,615,-1,-1
"{'cat': 'RB', 'resp': 'button'}",29,372,Right,64.23914783902089,66.40408890170562,3.2119573919510445,1.0430729893096096,Right,Correct,0.0,0.0,-45,45,542,-1,-1
"{'cat': 'RB', 'resp': 'button'}",29,373,Left,37.6143435091315,30.034593269477003,1.8807171754565752,0.47178228784473203,Left,Correct,0.0,0.0,-45,45,710,-1,-1
"{'cat': 'RB', 'resp': 'button'}",29,374,Right,62.29297632681738,11.93629270616897,3.114648816340869,0.1874948473839894,Right,Correct,0.0,0.0,-45,45,791,-1,-1
"{'cat': 'RB', 'resp': 'button'}",29,375,Left,39.53686106031821,51.74800523050193,1.9768430530159105,0.8128557653503553,Left,Correct,0.0,0.0,-45,45,614,-1,-1
"{'cat': 'RB', 'resp': 'button'}",29,376,Left,42.77478082475139,55.50243671545503,2.1387390412375695,0.8718302372080298,Left,Correct,0.0,0.0,-45,45,637,-1,-1
"{'cat': 'RB', 'resp': 'button'}",29,377,Left,46.53599280536929,37.955277593921274,2.3267996402684643,0.5962001062701219,Left,Correct,0.0,0.0,-45,45,611,-1,-1
"{'cat': 'RB', 'resp': 'button'}",29,378,Left,34.703508072321114,26.242940272062206,1.7351754036160556,0.41222314183653175,Left,Correct,0.0,0.0,-45,45,555,-1,-1
"{'cat': 'RB', 'resp': 'button'}",29,379,Left,44.77153839977943,16.30131071309468,2.238576919988972,0.25606038990071417,Right,Incorrect,0.0,0.0,-45,45,967,-1,-1
"{'cat': 'RB', 'resp': 'button'}",29,380,Right,54.52611222414389,66.52090731086689,2.7263056112071946,1.044907968589735,Right,Correct,0.0,0.0,-45,45,678,-1,-1
"{'cat': 'RB', 'resp': 'button'}",29,381,Right,56.614977530625374,87.72102134178763,2.8307488765312687,1.3779185810637673,Right,Correct,0.0,0.0,-45,45,866,-1,-1
"{'cat': 'RB', 'resp': 'button'}",29,382,Right,55.941595797259104,17.09544457072846,2.797079789862955,0.2685346153662602,Right,Correct,0.0,0.0,-45,45,617,-1,-1
"{'cat': 'RB', 'resp': 'button'}",29,383,Left,44.019567738278504,29.728481977342835,2.2009783869139254,0.4669739029119841,Left,Correct,0.0,0.0,-45,45,687,-1,-1
"{'cat': 'RB', 'resp': 'button'}",29,384,Left,31.366846069693263,54.50823205004279,1.5683423034846633,0.8562133068429109,Left,Correct,0.0,0.0,-45,45,604,-1,-1
"{'cat': 'RB', 'resp': 'button'}",29,385,Left,33.0522794456226,28.702810493689217,1.6526139722811302,0.4508626929217703,Left,Correct,0.0,0.0,-45,45,898,-1,-1
"{'cat': 'RB', 'resp': 'button'}",29,386,Left,37.487280434880184,28.108322077578666,1.8743640217440092,0.44152449071828465,Left,Correct,0.0,0.0,-45,45,1276,-1,-1
"{'cat': 'RB', 'resp': 'button'}",29,387,Left,47.33915125257469,50.30215863761405,2.3669575626287345,0.7901444601781833,Left,Correct,0.0,0.0,-45,45,1498,-1,-1
"{'cat': 'RB', 'resp': 'button'}",29,388,Right,59.54951539570781,20.736991465667924,2.97747576978539,0.32573590023048293,Right,Correct,0.0,0.0,-45,45,586,-1,-1
"{'cat': 'RB', 'resp': 'button'}",29,389,Left,38.83228969558559,82.19741122339414,1.9416144847792793,1.2911539162175711,Left,Correct,0.0,0.0,-45,45,591,-1,-1
"{'cat': 'RB', 'resp': 'button'}",29,390,Right,57.08827310951188,77.48325316816576,2.8544136554755943,1.2171040946467382,Right,Correct,0.0,0.0,-45,45,542,-1,-1
"{'cat': 'RB', 'resp': 'button'}",29,391,Left,38.48683402938778,30.754822410045698,1.9243417014693889,0.4830956207292916,Left,Correct,0.0,0.0,-45,45,525,-1,-1
"{'cat': 'RB', 'resp': 'button'}",29,392,Left,45.48763724927548,42.420433939678276,2.274381862463774,0.666338618134922,Right,Incorrect,0.0,0.0,-45,45,878,-1,-1
"{'cat': 'RB', 'resp': 'button'}",29,393,Left,43.05989212474902,18.36845676543501,2.152994606237451,0.2885310441603618,Left,Correct,0.0,0.0,-45,45,917,-1,-1
"{'cat': 'RB', 'resp': 'button'}",29,394,Right,55.61722018666933,30.846086843905795,2.7808610093334662,0.4845291991040361,Right,Correct,0.0,0.0,-45,45,642,-1,-1
"{'cat': 'RB', 'resp': 'button'}",29,395,Right,55.17200859652776,38.037559035763834,2.7586004298263878,0.5974925801362185,Right,Correct,0.0,0.0,-45,45,531,-1,-1
"{'cat': 'RB', 'resp': 'button'}",29,396,Right,63.653169355323186,43.265405580613816,3.1826584677661596,0.679611401633196,Right,Correct,0.0,0.0,-45,45,458,-1,-1
"{'cat': 'RB', 'resp': 'button'}",29,397,Right,52.5068892875416,36.64524338595941,2.6253444643770796,0.5756221370517002,Right,Correct,0.0,0.0,-45,45,670,-1,-1
"{'cat': 'RB', 'resp': 'button'}",29,398,Right,56.931973178025345,57.28195243612266,2.8465986589012675,0.8997828047830144,Right,Correct,0.0,0.0,-45,45,438,-1,-1
"{'cat': 'RB', 'resp': 'button'}",29,399,Left,45.275962798739265,20.073997127106015,2.2637981399369633,0.31532160951349436,Left,Correct,0.0,0.0,-45,45,570,-1,-1
