condition,subject,trial,cat,x,y,xt,yt,resp,fb,rotation,su,target_angle_left,target_angle_right,rt,mt,ep
"{'cat': 'RB', 'resp': 'reach'}",74,0,Left,45.101745748488824,50.633688405652585,2.255087287424441,0.7953521175967644,Right,Incorrect,0.0,0.0,-45,45,2002,1042,-1.03
"{'cat': 'RB', 'resp': 'reach'}",74,1,Left,43.124747810117626,63.01672038118459,2.1562373905058814,0.9898643290142584,Left,Correct,0.0,0.0,-45,45,2004,433,-2.26
"{'cat': 'RB', 'resp': 'reach'}",74,2,Left,35.07440116849963,63.625290129066194,1.7537200584249815,0.9994237202599676,Right,Incorrect,0.0,0.0,-45,45,2009,346,-1.1
"{'cat': 'RB', 'resp': 'reach'}",74,3,Right,64.84628134697373,67.53245988455993,3.2423140673486865,1.0607973992609045,Left,Incorrect,0.0,0.0,-45,45,2005,433,-2.32
"{'cat': 'RB', 'resp': 'reach'}",74,4,Right,61.05211640356106,27.597454337190715,3.052605820178053,0.4334997990174906,Left,Incorrect,0.0,0.0,-45,45,2012,387,-2.29
"{'cat': 'RB', 'resp': 'reach'}",74,5,Left,48.38725890153145,42.360569808846776,2.4193629450765726,0.665398274566753,Right,Incorrect,0.0,0.0,-45,45,2010,341,-0.99
"{'cat': 'RB', 'resp': 'reach'}",74,6,Right,61.29009910170311,88.69361318600767,3.0645049550851557,1.3931960180274825,Left,Incorrect,0.0,0.0,-45,45,2001,414,-2.33
"{'cat': 'RB', 'resp': 'reach'}",74,7,Left,41.68048405201821,74.48964214913794,2.0840242026009106,1.1700805627213218,Right,Incorrect,0.0,0.0,-45,45,2007,387,-1.06
"{'cat': 'RB', 'resp': 'reach'}",74,8,Right,54.608709437517284,75.94574021217315,2.730435471875864,1.1929528976100106,Left,Incorrect,0.0,0.0,-45,45,2010,498,-2.23
"{'cat': 'RB', 'resp': 'reach'}",74,9,Right,60.372526657807704,56.79796845606506,3.0186263328903853,0.8921804022019938,Left,Incorrect,0.0,0.0,-45,45,2006,386,-2.22
"{'cat': 'RB', 'resp': 'reach'}",74,10,Right,58.90243115904861,75.9308440093037,2.945121557952431,1.1927189086025054,Left,Incorrect,0.0,0.0,-45,45,2004,398,-2.37
"{'cat': 'RB', 'resp': 'reach'}",74,11,Left,41.72010414545546,85.01222847291741,2.086005207272773,1.3353689621790719,Right,Incorrect,0.0,0.0,-45,45,2002,2179,-0.89
"{'cat': 'RB', 'resp': 'reach'}",74,12,Left,45.82096579493033,69.02737050998945,2.2910482897465165,1.084279400454018,Left,Correct,0.0,0.0,-45,45,2011,2925,-2.23
"{'cat': 'RB', 'resp': 'reach'}",74,13,Right,67.74906147449109,42.01047365239141,3.3874530737245543,0.6598989770009022,Right,Correct,0.0,0.0,-45,45,2012,471,-1.05
"{'cat': 'RB', 'resp': 'reach'}",74,14,Left,32.18728647902925,38.04540911897614,1.6093643239514623,0.5976158889549679,Right,Incorrect,0.0,0.0,-45,45,2002,390,-0.93
"{'cat': 'RB', 'resp': 'reach'}",74,15,Right,61.46329988402473,87.34384468608974,3.0731649942012367,1.3719939040105371,Left,Incorrect,0.0,0.0,-45,45,2008,698,-2.29
"{'cat': 'RB', 'resp': 'reach'}",74,16,Left,41.83724410392061,63.35190526507094,2.0918622051960307,0.9951294008583169,Right,Incorrect,0.0,0.0,-45,45,2003,440,-0.92
"{'cat': 'RB', 'resp': 'reach'}",74,17,Left,35.91052515158287,59.080747361212566,1.7955262575791435,0.9280382093928997,Left,Correct,0.0,0.0,-45,45,2008,535,-2.26
"{'cat': 'RB', 'resp': 'reach'}",74,18,Right,61.587838658962895,30.975878679192853,3.0793919329481447,0.48656796448520484,Right,Correct,0.0,0.0,-45,45,2003,532,-0.91
"{'cat': 'RB', 'resp': 'reach'}",74,19,Right,62.22036439431629,77.29789040419757,3.1110182197158145,1.2141924231590804,Left,Incorrect,0.0,0.0,-45,45,2004,481,-2.27
"{'cat': 'RB', 'resp': 'reach'}",74,20,Right,61.17958801720121,87.62586972595247,3.058979400860061,1.3764239429773428,Right,Correct,0.0,0.0,-45,45,2006,2194,-0.92
"{'cat': 'RB', 'resp': 'reach'}",74,21,Right,60.64957686331624,70.99262452503385,3.0324788431658125,1.1151495383345247,Right,Correct,0.0,0.0,-45,45,2001,957,-0.87
"{'cat': 'RB', 'resp': 'reach'}",74,22,Right,53.452815187362546,22.144563470765284,2.6726407593681274,0.34784598958354557,Right,Correct,0.0,0.0,-45,45,2002,3933,-0.89
"{'cat': 'RB', 'resp': 'reach'}",74,23,Right,54.83599110015083,37.47775437999927,2.7417995550075416,0.588699189166242,Right,Correct,0.0,0.0,-45,45,2014,1222,-0.86
"{'cat': 'RB', 'resp': 'reach'}",74,24,Left,38.74223415102181,50.274865854517614,1.9371117075510906,0.7897157461438243,Left,Correct,0.0,0.0,-45,45,2008,1197,-2.21
"{'cat': 'RB', 'resp': 'reach'}",74,25,Left,32.87666551620337,37.882578074759664,1.6438332758101684,0.5950581448935337,Left,Correct,0.0,0.0,-45,45,2003,874,-2.36
"{'cat': 'RB', 'resp': 'reach'}",74,26,Right,55.30923974800075,22.900829727703584,2.765461987400038,0.35972539216832156,Right,Correct,0.0,0.0,-45,45,2001,990,-0.86
"{'cat': 'RB', 'resp': 'reach'}",74,27,Left,34.24789792205925,50.359508806796086,1.7123948961029627,0.7910453145291053,Left,Correct,0.0,0.0,-45,45,2006,1223,-2.26
"{'cat': 'RB', 'resp': 'reach'}",74,28,Left,34.63046384583432,38.873446792440134,1.731523192291716,0.6106226743142181,Left,Correct,0.0,0.0,-45,45,2012,815,-2.32
"{'cat': 'RB', 'resp': 'reach'}",74,29,Right,56.301643755734105,35.952004606037555,2.8150821877867056,0.56473276776077,Right,Correct,0.0,0.0,-45,45,2007,633,-0.86
"{'cat': 'RB', 'resp': 'reach'}",74,30,Right,53.3671980524699,28.338126375474815,2.668359902623495,0.4451342481884541,Left,Incorrect,0.0,0.0,-45,45,2001,999,-2.28
"{'cat': 'RB', 'resp': 'reach'}",74,31,Left,41.294549273824416,40.60634449551876,2.064727463691221,0.6378429677812905,Left,Correct,0.0,0.0,-45,45,2010,928,-2.52
"{'cat': 'RB', 'resp': 'reach'}",74,32,Right,59.64995884209547,80.47020738505277,2.9824979421047737,1.2640230617686445,Right,Correct,0.0,0.0,-45,45,2012,857,-0.88
"{'cat': 'RB', 'resp': 'reach'}",74,33,Right,58.35453862974793,22.740439557800105,2.917726931487396,0.35720598927093766,Right,Correct,0.0,0.0,-45,45,2007,3393,-0.75
"{'cat': 'RB', 'resp': 'reach'}",74,34,Right,54.45578512400036,28.993315750951606,2.722789256200018,0.455425938831994,Right,Correct,0.0,0.0,-45,45,2006,940,-0.92
"{'cat': 'RB', 'resp': 'reach'}",74,35,Left,37.73735410766655,42.798698566652554,1.8868677053833272,0.6722803850009983,Left,Correct,0.0,0.0,-45,45,2007,933,-2.28
"{'cat': 'RB', 'resp': 'reach'}",74,36,Right,58.75040656069605,58.26255916340066,2.937520328034802,0.9151861392354009,Right,Correct,0.0,0.0,-45,45,2012,4123,-0.81
"{'cat': 'RB', 'resp': 'reach'}",74,37,Right,57.24720434635608,62.09919976452167,2.862360217317804,0.9754519488701315,Right,Correct,0.0,0.0,-45,45,2001,959,-0.92
"{'cat': 'RB', 'resp': 'reach'}",74,38,Left,33.7353102710246,70.65984124682811,1.6867655135512303,1.1099221908242813,Left,Correct,0.0,0.0,-45,45,2002,1105,-2.2
"{'cat': 'RB', 'resp': 'reach'}",74,39,Left,43.988884872766604,62.05058626597075,2.1994442436383306,0.9746883298205672,Left,Correct,0.0,0.0,-45,45,2013,902,-2.38
"{'cat': 'RB', 'resp': 'reach'}",74,40,Right,53.61265927624049,30.8358862623234,2.6806329638120245,0.48436896874322805,Right,Correct,0.0,0.0,-45,45,2006,1264,-1.03
"{'cat': 'RB', 'resp': 'reach'}",74,41,Left,48.55195860524583,34.041589927022144,2.4275979302622916,0.5347240441562454,Right,Incorrect,0.0,0.0,-45,45,2012,1055,-0.99
"{'cat': 'RB', 'resp': 'reach'}",74,42,Right,59.389409204504794,79.29349552151263,2.96947046022524,1.245539315039196,Left,Incorrect,0.0,0.0,-45,45,2008,966,-2.41
"{'cat': 'RB', 'resp': 'reach'}",74,43,Left,40.3337410270348,23.50621859459371,2.01668705135174,0.36923481825225696,Left,Correct,0.0,0.0,-45,45,2006,1021,-2.21
"{'cat': 'RB', 'resp': 'reach'}",74,44,Left,33.76400112211218,49.610028178378066,1.6882000561056087,0.7792725003478759,Left,Correct,0.0,0.0,-45,45,2009,991,-2.3
"{'cat': 'RB', 'resp': 'reach'}",74,45,Right,68.19694578425663,57.43945255077472,3.4098472892128315,0.9022568107986667,Right,Correct,0.0,0.0,-45,45,2012,1229,-0.9
"{'cat': 'RB', 'resp': 'reach'}",74,46,Left,33.94727928357044,37.363720173790696,1.6973639641785219,0.5869079440438281,Left,Correct,0.0,0.0,-45,45,2004,967,-2.39
"{'cat': 'RB', 'resp': 'reach'}",74,47,Right,59.65868845958403,30.424820763785696,2.982934422979201,0.47791196699147676,Right,Correct,0.0,0.0,-45,45,2005,1015,-0.94
"{'cat': 'RB', 'resp': 'reach'}",74,48,Right,64.80131484843665,20.52994381652709,3.240065742421832,0.32248360336306353,Right,Correct,0.0,0.0,-45,45,2002,994,-0.91
"{'cat': 'RB', 'resp': 'reach'}",74,49,Right,51.13544623542058,51.23311991441295,2.556772311771029,0.8047679657180233,Right,Correct,0.0,0.0,-45,45,2007,953,-0.79
"{'cat': 'RB', 'resp': 'reach'}",74,50,Right,64.17387545449226,86.39381235602684,3.208693772724613,1.3570708310665451,Right,Correct,0.0,0.0,-45,45,2006,804,-0.86
"{'cat': 'RB', 'resp': 'reach'}",74,51,Right,67.07842763466554,46.534077226323184,3.3539213817332776,0.7309555757789851,Right,Correct,0.0,0.0,-45,45,2004,840,-0.89
"{'cat': 'RB', 'resp': 'reach'}",74,52,Right,59.60876240827085,60.95195400929095,2.9804381204135426,0.9574310546876569,Right,Correct,0.0,0.0,-45,45,2005,689,-0.81
"{'cat': 'RB', 'resp': 'reach'}",74,53,Right,62.049987710268375,32.29263082422939,3.102499385513419,0.5072514588124318,Right,Correct,0.0,0.0,-45,45,2005,940,-0.89
"{'cat': 'RB', 'resp': 'reach'}",74,54,Left,37.67228674385065,56.89311489886491,1.8836143371925322,0.8936749590305699,Left,Correct,0.0,0.0,-45,45,2003,778,-2.39
"{'cat': 'RB', 'resp': 'reach'}",74,55,Right,59.39821941742598,70.93187767576279,2.969910970871299,1.1141953290575313,Right,Correct,0.0,0.0,-45,45,2008,910,-0.87
"{'cat': 'RB', 'resp': 'reach'}",74,56,Left,31.64279327375224,62.77968525058439,1.582139663687612,0.9861409898895772,Left,Correct,0.0,0.0,-45,45,2012,950,-2.37
"{'cat': 'RB', 'resp': 'reach'}",74,57,Left,38.85897728872856,11.575359782439627,1.9429488644364281,0.18182532627585538,Left,Correct,0.0,0.0,-45,45,2010,971,-2.4
"{'cat': 'RB', 'resp': 'reach'}",74,58,Right,68.43901363743834,46.70966286038395,3.421950681871917,0.7337136684691912,Right,Correct,0.0,0.0,-45,45,2013,583,-0.8
"{'cat': 'RB', 'resp': 'reach'}",74,59,Left,48.44980822812112,54.34358134402092,2.422490411406056,0.8536269796006773,Right,Incorrect,0.0,0.0,-45,45,2005,2393,-0.82
"{'cat': 'RB', 'resp': 'reach'}",74,60,Left,35.723993897862535,56.59838467305796,1.7861996948931267,0.88904534746964,Left,Correct,0.0,0.0,-45,45,2006,848,-2.37
"{'cat': 'RB', 'resp': 'reach'}",74,61,Left,32.64441703882442,37.61888223078081,1.6322208519412211,0.5909160202624031,Left,Correct,0.0,0.0,-45,45,2002,931,-2.32
"{'cat': 'RB', 'resp': 'reach'}",74,62,Right,62.48783006829881,48.906653087500814,3.1243915034149405,0.7682239102567856,Right,Correct,0.0,0.0,-45,45,2004,617,-0.91
"{'cat': 'RB', 'resp': 'reach'}",74,63,Right,66.84876882818983,21.997168222910666,3.342438441409491,0.34553071044437494,Right,Correct,0.0,0.0,-45,45,2005,917,-0.9
"{'cat': 'RB', 'resp': 'reach'}",74,64,Right,68.66271746452517,47.991963071972435,3.4331358732262585,0.753855993091306,Right,Correct,0.0,0.0,-45,45,2003,684,-0.96
"{'cat': 'RB', 'resp': 'reach'}",74,65,Left,41.94967190761439,76.00779166588265,2.0974835953807194,1.1939275995656022,Left,Correct,0.0,0.0,-45,45,2007,916,-2.25
"{'cat': 'RB', 'resp': 'reach'}",74,66,Left,36.226761789834846,65.04697004452319,1.8113380894917424,1.021755416150747,Left,Correct,0.0,0.0,-45,45,2011,1124,-2.37
"{'cat': 'RB', 'resp': 'reach'}",74,67,Right,66.09145699797801,79.55909407213178,3.304572849898901,1.2497113273163425,Right,Correct,0.0,0.0,-45,45,2002,1137,-0.96
"{'cat': 'RB', 'resp': 'reach'}",74,68,Left,43.35270268453959,61.89654071017959,2.1676351342269795,0.9722685878886087,Left,Correct,0.0,0.0,-45,45,2009,1257,-2.34
"{'cat': 'RB', 'resp': 'reach'}",74,69,Left,35.11313354629021,78.92428915702227,1.7556566773145104,1.2397398350274886,Left,Correct,0.0,0.0,-45,45,2001,1673,-2.25
"{'cat': 'RB', 'resp': 'reach'}",74,70,Left,33.233505341213544,68.39964119573887,1.6616752670606771,1.074419051443555,Left,Correct,0.0,0.0,-45,45,2001,1881,-2.32
"{'cat': 'RB', 'resp': 'reach'}",74,71,Right,68.26666001681374,40.10484909094273,3.413333000840687,0.6299654963871648,Right,Correct,0.0,0.0,-45,45,2013,804,-0.95
"{'cat': 'RB', 'resp': 'reach'}",74,72,Left,33.73355869454959,61.82349211464692,1.6866779347274798,0.9711211432332064,Left,Correct,0.0,0.0,-45,45,2013,1010,-2.42
"{'cat': 'RB', 'resp': 'reach'}",74,73,Right,59.698866451579974,33.665332206047914,2.984943322578999,0.5288138016959,Right,Correct,0.0,0.0,-45,45,2002,823,-1.01
"{'cat': 'RB', 'resp': 'reach'}",74,74,Right,59.610912559001825,51.917361627115376,2.9805456279500913,0.8155160094075515,Right,Correct,0.0,0.0,-45,45,2010,785,-0.98
"{'cat': 'RB', 'resp': 'reach'}",74,75,Right,63.95637764050268,51.577639901980376,3.197818882025134,0.8101796730278066,Right,Correct,0.0,0.0,-45,45,2006,1159,-1.01
"{'cat': 'RB', 'resp': 'reach'}",74,76,Left,39.68481084808815,22.400818683412805,1.9842405424044074,0.3518712370510333,Left,Correct,0.0,0.0,-45,45,2012,777,-2.35
"{'cat': 'RB', 'resp': 'reach'}",74,77,Left,42.09598790797724,28.304513817925017,2.104799395398862,0.44460626336912007,Left,Correct,0.0,0.0,-45,45,2007,852,-2.22
"{'cat': 'RB', 'resp': 'reach'}",74,78,Right,59.740158258619765,17.38358128817429,2.987007912930988,0.2730606563400467,Right,Correct,0.0,0.0,-45,45,2003,722,-0.98
"{'cat': 'RB', 'resp': 'reach'}",74,79,Left,35.329637724443025,78.36518989400906,1.7664818862221512,1.2309575243409396,Left,Correct,0.0,0.0,-45,45,2004,791,-2.36
"{'cat': 'RB', 'resp': 'reach'}",74,80,Right,63.576554760533575,80.47641070682543,3.178827738026679,1.2641205033191887,Right,Correct,0.0,0.0,-45,45,2006,1628,-0.88
"{'cat': 'RB', 'resp': 'reach'}",74,81,Right,55.06548445484975,69.4825655932163,2.753274222742488,1.091429588101096,Left,Incorrect,0.0,0.0,-45,45,2009,1853,-2.27
"{'cat': 'RB', 'resp': 'reach'}",74,82,Left,45.34564821672669,55.77875803866305,2.2672824108363345,0.8761706824031323,Left,Correct,0.0,0.0,-45,45,2006,1470,-2.37
"{'cat': 'RB', 'resp': 'reach'}",74,83,Left,38.647091171402344,78.01482333544375,1.9323545585701172,1.2254539793086783,Left,Correct,0.0,0.0,-45,45,2005,804,-2.29
"{'cat': 'RB', 'resp': 'reach'}",74,84,Left,31.01356121082233,58.68878036206941,1.5506780605411166,0.9218812061681108,Left,Correct,0.0,0.0,-45,45,2001,3782,-2.49
"{'cat': 'RB', 'resp': 'reach'}",74,85,Right,62.35949362839461,82.24164392040433,3.1179746814197307,1.2918487217974495,Right,Correct,0.0,0.0,-45,45,2001,974,-0.82
"{'cat': 'RB', 'resp': 'reach'}",74,86,Right,68.95893147194819,53.295144933470546,3.4479465735974095,0.8371581789749718,Left,Incorrect,0.0,0.0,-45,45,2007,1087,-2.4
"{'cat': 'RB', 'resp': 'reach'}",74,87,Left,46.108827171538486,53.17527277417736,2.3054413585769242,0.8352752314999448,Right,Incorrect,0.0,0.0,-45,45,2005,632,-0.88
"{'cat': 'RB', 'resp': 'reach'}",74,88,Right,66.38879989970295,80.51723711680398,3.319439994985147,1.264761803067494,Right,Correct,0.0,0.0,-45,45,2007,1168,-0.89
"{'cat': 'RB', 'resp': 'reach'}",74,89,Left,43.557434993629805,39.01417849463941,2.1778717496814903,0.6128332827230003,Left,Correct,0.0,0.0,-45,45,2008,756,-2.3
"{'cat': 'RB', 'resp': 'reach'}",74,90,Right,56.98962399718724,12.726581551572906,2.8494811998593614,0.19990867553866418,Left,Incorrect,0.0,0.0,-45,45,2004,898,-2.31
"{'cat': 'RB', 'resp': 'reach'}",74,91,Left,32.86120596655933,30.870980393505413,1.6430602983279667,0.48492022606675567,Left,Correct,0.0,0.0,-45,45,2001,873,-2.38
"{'cat': 'RB', 'resp': 'reach'}",74,92,Right,57.282500158238044,88.00576798166205,2.8641250079119023,1.3823913708235867,Right,Correct,0.0,0.0,-45,45,2012,818,-0.98
"{'cat': 'RB', 'resp': 'reach'}",74,93,Left,40.22800277196024,85.44137359339524,2.011400138598012,1.3421099579681572,Left,Correct,0.0,0.0,-45,45,2008,895,-2.34
"{'cat': 'RB', 'resp': 'reach'}",74,94,Right,57.52756505949136,23.254957829796272,2.876378252974568,0.365288023388142,Right,Correct,0.0,0.0,-45,45,2002,732,-0.93
"{'cat': 'RB', 'resp': 'reach'}",74,95,Right,66.06677105327,37.4081269997074,3.3033385526635004,0.5876054848341739,Right,Correct,0.0,0.0,-45,45,2008,926,-0.98
"{'cat': 'RB', 'resp': 'reach'}",74,96,Left,43.19778776916079,67.37131433235686,2.1598893884580392,1.0582661308461052,Left,Correct,0.0,0.0,-45,45,2001,853,-2.32
"{'cat': 'RB', 'resp': 'reach'}",74,97,Right,56.94664740101567,21.63443473553208,2.847332370050783,0.3398329061485771,Right,Correct,0.0,0.0,-45,45,2004,659,-0.94
"{'cat': 'RB', 'resp': 'reach'}",74,98,Left,40.036384498554206,80.44282253188402,2.0018192249277105,1.2635929015009717,Left,Correct,0.0,0.0,-45,45,2005,1040,-2.32
"{'cat': 'RB', 'resp': 'reach'}",74,99,Left,36.353111141204984,76.73127763945344,1.817655557060249,1.2052920906633284,Left,Correct,0.0,0.0,-45,45,2011,807,-2.24
"{'cat': 'RB', 'resp': 'reach'}",74,100,Left,38.68875520154921,15.140511148562098,1.9344377600774607,0.23782659297958525,Left,Correct,0.0,0.0,-45,45,2007,831,-2.23
"{'cat': 'RB', 'resp': 'reach'}",74,101,Left,46.390976433928145,79.41274796979397,2.319548821696407,1.2474125281164123,Left,Correct,0.0,0.0,-45,45,2002,721,-2.27
"{'cat': 'RB', 'resp': 'reach'}",74,102,Left,32.52118015814242,35.851501771243875,1.6260590079071209,0.563154072923506,Left,Correct,0.0,0.0,-45,45,2012,707,-2.27
"{'cat': 'RB', 'resp': 'reach'}",74,103,Left,33.23574188813162,72.65704665227318,1.6617870944065811,1.1412942199715614,Left,Correct,0.0,0.0,-45,45,2004,1154,-2.4
"{'cat': 'RB', 'resp': 'reach'}",74,104,Right,61.57459888291743,59.25764325278764,3.0787299441458713,0.9308168835600121,Right,Correct,0.0,0.0,-45,45,2006,800,-0.9
"{'cat': 'RB', 'resp': 'reach'}",74,105,Left,47.01587463106078,65.51686265955519,2.3507937315530394,1.02913647208755,Right,Incorrect,0.0,0.0,-45,45,2010,1368,-0.95
"{'cat': 'RB', 'resp': 'reach'}",74,106,Left,37.96435581037369,74.5261725358812,1.8982177905186846,1.170654380694449,Left,Correct,0.0,0.0,-45,45,2007,1275,-2.38
"{'cat': 'RB', 'resp': 'reach'}",74,107,Left,38.0690743185431,38.88081814566224,1.9034537159271552,0.6107384632598661,Left,Correct,0.0,0.0,-45,45,2008,921,-2.4
"{'cat': 'RB', 'resp': 'reach'}",74,108,Left,30.631926123373116,54.714260626061126,1.5315963061686557,0.8594495961471547,Left,Correct,0.0,0.0,-45,45,2001,800,-2.34
"{'cat': 'RB', 'resp': 'reach'}",74,109,Right,50.8624469048686,59.56784254650221,2.5431223452434297,0.9356894826714244,Right,Correct,0.0,0.0,-45,45,2002,1518,-0.89
"{'cat': 'RB', 'resp': 'reach'}",74,110,Left,34.96286738963244,18.196826767743666,1.748143369481622,0.285835086460948,Left,Correct,0.0,0.0,-45,45,2012,848,-2.38
"{'cat': 'RB', 'resp': 'reach'}",74,111,Left,33.83823134766054,61.539600680221,1.6919115673830272,0.9666617870091586,Left,Correct,0.0,0.0,-45,45,2002,791,-2.48
"{'cat': 'RB', 'resp': 'reach'}",74,112,Right,58.312057220551424,14.779399099467703,2.9156028610275713,0.23215425817679672,Right,Correct,0.0,0.0,-45,45,2003,660,-0.9
"{'cat': 'RB', 'resp': 'reach'}",74,113,Left,37.91302215000938,53.596115330060506,1.8956511075004692,0.8418858109093468,Left,Correct,0.0,0.0,-45,45,2004,842,-2.28
"{'cat': 'RB', 'resp': 'reach'}",74,114,Right,55.62216114075626,85.27350649439504,2.781108057037813,1.3394731077431647,Right,Correct,0.0,0.0,-45,45,2003,736,-0.8
"{'cat': 'RB', 'resp': 'reach'}",74,115,Left,33.30581637403453,28.016642719697234,1.6652908187017263,0.44008439473225397,Left,Correct,0.0,0.0,-45,45,2003,930,-2.46
"{'cat': 'RB', 'resp': 'reach'}",74,116,Left,32.87375918453147,44.68903157679672,1.6436879592265736,0.7019736664885344,Left,Correct,0.0,0.0,-45,45,2005,860,-2.25
"{'cat': 'RB', 'resp': 'reach'}",74,117,Right,63.4137569832861,66.573572866516,3.170687849164305,1.0457352372033573,Right,Correct,0.0,0.0,-45,45,2007,994,-0.78
"{'cat': 'RB', 'resp': 'reach'}",74,118,Left,41.429680800215834,23.028020738769495,2.071484040010792,0.3617233038981582,Right,Incorrect,0.0,0.0,-45,45,2002,1905,-0.84
"{'cat': 'RB', 'resp': 'reach'}",74,119,Right,52.82745729703561,35.78406176135705,2.6413728648517805,0.5620947277254138,Left,Incorrect,0.0,0.0,-45,45,2004,1841,-2.37
"{'cat': 'RB', 'resp': 'reach'}",74,120,Right,63.47913434220185,70.9374300554893,3.1739567171100926,1.1142825456343248,Right,Correct,0.0,0.0,-45,45,2004,890,-0.91
"{'cat': 'RB', 'resp': 'reach'}",74,121,Right,65.23248024061012,26.917805672208317,3.261624012030506,0.4228239027528366,Left,Incorrect,0.0,0.0,-45,45,2001,1183,-2.44
"{'cat': 'RB', 'resp': 'reach'}",74,122,Left,44.38393983995021,65.86317846039597,2.2191969919975105,1.0345763879662675,Left,Correct,0.0,0.0,-45,45,2009,802,-2.37
"{'cat': 'RB', 'resp': 'reach'}",74,123,Left,40.2666065158092,70.95185830551677,2.0133303257904602,1.114509184055777,Left,Correct,0.0,0.0,-45,45,2004,898,-2.27
"{'cat': 'RB', 'resp': 'reach'}",74,124,Left,31.782329455647037,39.993515509973285,1.589116472782352,0.6282166725868076,Left,Correct,0.0,0.0,-45,45,2009,904,-2.45
"{'cat': 'RB', 'resp': 'reach'}",74,125,Right,65.31857140724182,75.86508523671637,3.265928570362091,1.1916859722181579,Right,Correct,0.0,0.0,-45,45,2003,1133,-0.85
"{'cat': 'RB', 'resp': 'reach'}",74,126,Left,40.59788481228895,44.26565451525613,2.0298942406144476,0.6953232751573626,Left,Correct,0.0,0.0,-45,45,2012,1011,-2.33
"{'cat': 'RB', 'resp': 'reach'}",74,127,Left,41.658582101412804,12.0432030701268,2.08292910507064,0.189174191454002,Left,Correct,0.0,0.0,-45,45,2010,834,-2.36
"{'cat': 'RB', 'resp': 'reach'}",74,128,Right,55.96568892093827,48.25747511120497,2.7982844460469134,0.758026646450769,Right,Correct,0.0,0.0,-45,45,2009,527,-0.76
"{'cat': 'RB', 'resp': 'reach'}",74,129,Right,57.301692441068916,33.293958420519104,2.865084622053446,0.5229802759141343,Right,Correct,0.0,0.0,-45,45,2005,928,-0.77
"{'cat': 'RB', 'resp': 'reach'}",74,130,Left,47.96085570672082,72.47007147097213,2.398042785336041,1.1383572206916663,Left,Correct,0.0,0.0,-45,45,2011,911,-2.36
"{'cat': 'RB', 'resp': 'reach'}",74,131,Left,37.27854614196685,44.522414063103064,1.8639273070983424,0.6993564447036373,Left,Correct,0.0,0.0,-45,45,2007,958,-2.27
"{'cat': 'RB', 'resp': 'reach'}",74,132,Right,54.40463201973432,49.96585672643666,2.720231600986716,0.7848618421104679,Right,Correct,0.0,0.0,-45,45,2009,527,-0.82
"{'cat': 'RB', 'resp': 'reach'}",74,133,Left,48.29835987980676,43.426398197181,2.414917993990338,0.6821402677406443,Right,Incorrect,0.0,0.0,-45,45,2008,966,-0.81
"{'cat': 'RB', 'resp': 'reach'}",74,134,Right,55.072276885703275,78.18992259167729,2.7536138442851636,1.2282044319938399,Right,Correct,0.0,0.0,-45,45,2007,994,-0.83
"{'cat': 'RB', 'resp': 'reach'}",74,135,Left,39.376143004721484,80.85835029095878,1.9688071502360742,1.270119996277331,Left,Correct,0.0,0.0,-45,45,2009,1136,-2.35
"{'cat': 'RB', 'resp': 'reach'}",74,136,Right,61.860662261031585,60.680318926906025,3.0930331130515794,0.9531642207912684,Right,Correct,0.0,0.0,-45,45,2008,880,-0.8
"{'cat': 'RB', 'resp': 'reach'}",74,137,Right,55.85798187354574,70.23483268515581,2.7928990936772866,1.1032461719489688,Left,Incorrect,0.0,0.0,-45,45,2005,948,-2.37
"{'cat': 'RB', 'resp': 'reach'}",74,138,Right,51.84128465169438,53.90590310394748,2.5920642325847187,0.8467519458824231,Right,Correct,0.0,0.0,-45,45,2003,1056,-0.94
"{'cat': 'RB', 'resp': 'reach'}",74,139,Right,57.878392615617976,36.06078649928748,2.8939196307808985,0.5664415097441577,Right,Correct,0.0,0.0,-45,45,2005,774,-0.94
"{'cat': 'RB', 'resp': 'reach'}",74,140,Right,65.32671594083487,64.74032401098177,3.266335797041744,1.016938631519616,Right,Correct,0.0,0.0,-45,45,2002,1071,-0.87
"{'cat': 'RB', 'resp': 'reach'}",74,141,Right,55.11139177735842,75.35242273127052,2.7555695888679215,1.18363308841376,Right,Correct,0.0,0.0,-45,45,2004,614,-0.83
"{'cat': 'RB', 'resp': 'reach'}",74,142,Left,41.7007797426032,57.14479431020813,2.0850389871301602,0.8976283299792484,Left,Correct,0.0,0.0,-45,45,2003,859,-2.33
"{'cat': 'RB', 'resp': 'reach'}",74,143,Left,49.03025185151842,56.43609076510218,2.451512592575921,0.8864960407248589,Right,Incorrect,0.0,0.0,-45,45,2009,931,-0.79
"{'cat': 'RB', 'resp': 'reach'}",74,144,Left,38.90144501021433,30.65271339618201,1.9450722505107165,0.4814916960901942,Left,Correct,0.0,0.0,-45,45,2002,1013,-2.31
"{'cat': 'RB', 'resp': 'reach'}",74,145,Left,39.07412097081979,51.368759295615,1.9537060485409896,0.8068985841356323,Left,Correct,0.0,0.0,-45,45,2005,2105,-2.41
"{'cat': 'RB', 'resp': 'reach'}",74,146,Left,36.707174067682395,83.60421673913632,1.8353587033841197,1.3132519655839974,Left,Correct,0.0,0.0,-45,45,2006,1089,-2.28
"{'cat': 'RB', 'resp': 'reach'}",74,147,Left,40.012868549558476,10.562029993996674,2.000643427477924,0.165907979180675,Left,Correct,0.0,0.0,-45,45,2003,716,-2.44
"{'cat': 'RB', 'resp': 'reach'}",74,148,Left,46.802306678833084,68.89196918632632,2.3401153339416543,1.082152521435486,Right,Incorrect,0.0,0.0,-45,45,2002,878,-0.83
"{'cat': 'RB', 'resp': 'reach'}",74,149,Left,34.81318969118891,57.10856940251345,1.7406594845594454,0.8970593104597956,Left,Correct,0.0,0.0,-45,45,2004,1093,-2.34
"{'cat': 'RB', 'resp': 'reach'}",74,150,Left,40.73753727312246,18.133583016234475,2.036876863656123,0.2848416559353143,Left,Correct,0.0,0.0,-45,45,2002,1002,-2.34
"{'cat': 'RB', 'resp': 'reach'}",74,151,Right,54.902380924926156,77.31814063908402,2.745119046246308,1.214510513104844,Right,Correct,0.0,0.0,-45,45,2001,855,-0.75
"{'cat': 'RB', 'resp': 'reach'}",74,152,Right,61.52341328510474,84.77831115731973,3.0761706642552373,1.3316945975779264,Right,Correct,0.0,0.0,-45,45,2009,763,-0.82
"{'cat': 'RB', 'resp': 'reach'}",74,153,Right,59.78618424969159,89.82611744449468,2.9893092124845793,1.4109853533205923,Right,Correct,0.0,0.0,-45,45,2002,769,-0.86
"{'cat': 'RB', 'resp': 'reach'}",74,154,Right,50.97787074730758,61.67187255037393,2.548893537365379,0.9687395086869036,Right,Correct,0.0,0.0,-45,45,2011,746,-0.8
"{'cat': 'RB', 'resp': 'reach'}",74,155,Right,55.48514456072208,65.83814829877205,2.7742572280361038,1.0341832151068882,Right,Correct,0.0,0.0,-45,45,2005,420,-0.85
"{'cat': 'RB', 'resp': 'reach'}",74,156,Left,31.775981791215983,46.68976848035202,1.5887990895607993,0.7334011682784111,Left,Correct,0.0,0.0,-45,45,2011,591,-2.3
"{'cat': 'RB', 'resp': 'reach'}",74,157,Left,31.610405594374058,47.17763723046352,1.580520279718703,0.7410645926847426,Left,Correct,0.0,0.0,-45,45,2006,689,-2.31
"{'cat': 'RB', 'resp': 'reach'}",74,158,Left,36.889496837131105,79.29646867889277,1.8444748418565553,1.245586017286113,Left,Correct,0.0,0.0,-45,45,2003,1030,-2.32
"{'cat': 'RB', 'resp': 'reach'}",74,159,Right,56.002888266427824,45.721526789362066,2.8001444133213913,0.718192063361844,Right,Correct,0.0,0.0,-45,45,2008,895,-0.82
"{'cat': 'RB', 'resp': 'reach'}",74,160,Right,51.277332205671144,41.12761301786436,2.563866610283557,0.6460310345830331,Right,Correct,0.0,0.0,-45,45,2007,1459,-0.87
"{'cat': 'RB', 'resp': 'reach'}",74,161,Left,36.65879545584289,20.770004904168974,1.8329397727921446,0.3262544741098061,Left,Correct,0.0,0.0,-45,45,2009,902,-2.33
"{'cat': 'RB', 'resp': 'reach'}",74,162,Left,40.42291678422998,81.89197062442966,2.021145839211499,1.286356066508497,Left,Correct,0.0,0.0,-45,45,2005,1632,-2.35
"{'cat': 'RB', 'resp': 'reach'}",74,163,Left,37.56774930768278,67.47497059932314,1.8783874653841393,1.0598943596801043,Left,Correct,0.0,0.0,-45,45,2009,987,-2.4
"{'cat': 'RB', 'resp': 'reach'}",74,164,Right,57.9209357441111,47.27462220862482,2.896046787205555,0.742588029159243,Right,Correct,0.0,0.0,-45,45,2008,822,-0.84
"{'cat': 'RB', 'resp': 'reach'}",74,165,Right,51.68069128027161,34.916298069435165,2.5840345640135802,0.548463927527445,Right,Correct,0.0,0.0,-45,45,2003,1230,-0.95
"{'cat': 'RB', 'resp': 'reach'}",74,166,Right,68.29776284714141,30.558585076835207,3.414888142357071,0.48001313190742084,Right,Correct,0.0,0.0,-45,45,2008,959,-0.88
"{'cat': 'RB', 'resp': 'reach'}",74,167,Left,38.64077798521129,20.37574865221122,1.9320388992605644,0.3200615113858945,Left,Correct,0.0,0.0,-45,45,2002,964,-2.3
"{'cat': 'RB', 'resp': 'reach'}",74,168,Right,56.648942201186706,58.800043552999874,2.8324471100593356,0.9236289242843213,Right,Correct,0.0,0.0,-45,45,2006,715,-0.81
"{'cat': 'RB', 'resp': 'reach'}",74,169,Right,60.42107766964383,77.86441768787381,3.0210538834821916,1.2230914129213575,Right,Correct,0.0,0.0,-45,45,2003,1409,-0.91
"{'cat': 'RB', 'resp': 'reach'}",74,170,Left,45.88414986208491,60.80267851020532,2.2942074931042455,0.955086240631215,Left,Correct,0.0,0.0,-45,45,2001,8206,-2.27
"{'cat': 'RB', 'resp': 'reach'}",74,171,Left,37.816049269277755,23.119654241652015,1.8908024634638878,0.3631626795955503,Left,Correct,0.0,0.0,-45,45,2010,1364,-2.23
"{'cat': 'RB', 'resp': 'reach'}",74,172,Right,60.18828375176241,32.10020436887027,3.0094141875881206,0.5042288311198693,Right,Correct,0.0,0.0,-45,45,2005,902,-0.88
"{'cat': 'RB', 'resp': 'reach'}",74,173,Left,37.09563660243404,41.697730384674315,1.854781830121702,0.6549864172393036,Left,Correct,0.0,0.0,-45,45,2005,2061,-2.36
"{'cat': 'RB', 'resp': 'reach'}",74,174,Right,66.78784563826537,24.910301282304985,3.3393922819132684,0.3912900975359887,Right,Correct,0.0,0.0,-45,45,2012,841,-0.87
"{'cat': 'RB', 'resp': 'reach'}",74,175,Left,31.757532115347423,36.339639982830015,1.5878766057673712,0.5708217300207835,Left,Correct,0.0,0.0,-45,45,2010,1075,-2.39
"{'cat': 'RB', 'resp': 'reach'}",74,176,Left,41.915292347476516,32.49397887523769,2.095764617373826,0.5104142266017432,Left,Correct,0.0,0.0,-45,45,2006,885,-2.32
"{'cat': 'RB', 'resp': 'reach'}",74,177,Right,52.385484888734084,62.140381581090544,2.619274244436704,0.9760988313321026,Right,Correct,0.0,0.0,-45,45,2008,2768,-0.96
"{'cat': 'RB', 'resp': 'reach'}",74,178,Right,60.597827624198494,12.852334008805649,3.029891381209925,0.20188399051773037,Right,Correct,0.0,0.0,-45,45,2004,722,-0.91
"{'cat': 'RB', 'resp': 'reach'}",74,179,Right,67.8446940888609,59.72257048382135,3.3922347044430454,0.9381199434273587,Right,Correct,0.0,0.0,-45,45,2008,682,-0.94
"{'cat': 'RB', 'resp': 'reach'}",74,180,Right,62.38446099777988,86.63487890270693,3.1192230498889946,1.360857495526927,Right,Correct,0.0,0.0,-45,45,2004,800,-0.76
"{'cat': 'RB', 'resp': 'reach'}",74,181,Left,41.5237834384915,81.26150589396175,2.076189171924575,1.2764527496805695,Left,Correct,0.0,0.0,-45,45,2009,630,-2.36
"{'cat': 'RB', 'resp': 'reach'}",74,182,Right,67.75704029701093,51.9189672393315,3.387852014850546,0.8155412303052649,Left,Incorrect,0.0,0.0,-45,45,2001,1190,-2.31
"{'cat': 'RB', 'resp': 'reach'}",74,183,Left,40.65663505050875,55.14733794941076,2.0328317525254374,0.8662523588345122,Left,Correct,0.0,0.0,-45,45,2002,916,-2.36
"{'cat': 'RB', 'resp': 'reach'}",74,184,Left,45.237813306997765,22.477502749263234,2.2618906653498883,0.3530757875406488,Left,Correct,0.0,0.0,-45,45,2004,1213,-2.48
"{'cat': 'RB', 'resp': 'reach'}",74,185,Right,66.07214188094817,49.49417610903316,3.303607094047408,0.7774527002980903,Right,Correct,0.0,0.0,-45,45,2011,525,-0.9
"{'cat': 'RB', 'resp': 'reach'}",74,186,Left,41.656952764152635,30.441495579363167,2.0828476382076317,0.47817389438206753,Left,Correct,0.0,0.0,-45,45,2005,805,-2.42
"{'cat': 'RB', 'resp': 'reach'}",74,187,Right,53.65977898829196,64.36130455712514,2.6829889494145984,1.010985007860598,Right,Correct,0.0,0.0,-45,45,2009,358,-0.74
"{'cat': 'RB', 'resp': 'reach'}",74,188,Right,53.185319852325435,26.953425324842726,2.659265992616272,0.423383414948035,Left,Incorrect,0.0,0.0,-45,45,2001,454,-2.39
"{'cat': 'RB', 'resp': 'reach'}",74,189,Left,38.3956946431883,84.77035884354908,1.919784732159415,1.3315696829253219,Left,Correct,0.0,0.0,-45,45,2002,562,-2.29
"{'cat': 'RB', 'resp': 'reach'}",74,190,Right,52.23265841261341,61.34433335387257,2.6116329206306705,0.9635945350194469,Right,Correct,0.0,0.0,-45,45,2002,306,-0.77
"{'cat': 'RB', 'resp': 'reach'}",74,191,Left,39.298358083675446,9.980113700594245,1.9649179041837723,0.1567672594188886,Left,Correct,0.0,0.0,-45,45,2003,423,-2.45
"{'cat': 'RB', 'resp': 'reach'}",74,192,Left,43.09273259611463,88.51107134878512,2.154636629805731,1.390328657553527,Left,Correct,0.0,0.0,-45,45,2007,442,-2.43
"{'cat': 'RB', 'resp': 'reach'}",74,193,Right,62.88644141611922,48.84112113679882,3.144322070805961,0.7671945367822817,Right,Correct,0.0,0.0,-45,45,2009,487,-0.8
"{'cat': 'RB', 'resp': 'reach'}",74,194,Right,61.6932908145367,76.16188438583538,3.0846645407268354,1.196348082350478,Left,Incorrect,0.0,0.0,-45,45,2001,386,-2.32
"{'cat': 'RB', 'resp': 'reach'}",74,195,Left,31.103316489503598,60.50476494841426,1.5551658244751798,0.9504066253455774,Left,Correct,0.0,0.0,-45,45,2013,1083,-2.3
"{'cat': 'RB', 'resp': 'reach'}",74,196,Right,60.15400552955325,44.02923973850152,3.0077002764776624,0.6916096805281009,Right,Correct,0.0,0.0,-45,45,2001,817,-0.89
"{'cat': 'RB', 'resp': 'reach'}",74,197,Left,46.525778113658106,39.282401124733,2.3262889056829055,0.6170465139441431,Right,Incorrect,0.0,0.0,-45,45,2002,1249,-0.79
"{'cat': 'RB', 'resp': 'reach'}",74,198,Right,59.543616689910834,39.98517931622612,2.9771808344955417,0.6280857279616328,Left,Incorrect,0.0,0.0,-45,45,2007,863,-2.62
"{'cat': 'RB', 'resp': 'reach'}",74,199,Right,61.37471996497411,63.62357940298779,3.0687359982487057,0.9993968482375665,Right,Correct,0.0,0.0,-45,45,2006,1664,-0.82
"{'cat': 'RB', 'resp': 'reach'}",74,200,Left,44.518721325851565,75.03769968266607,2.2259360662925785,1.1786894303267044,Left,Correct,0.0,0.0,-45,45,2004,1616,-2.34
"{'cat': 'RB', 'resp': 'reach'}",74,201,Right,57.97392937518477,25.536087953149586,2.8986964687592383,0.40111993157518777,Right,Correct,0.0,0.0,-45,45,2006,1346,-0.85
"{'cat': 'RB', 'resp': 'reach'}",74,202,Right,67.47121435382846,60.91900033719328,3.373560717691423,0.9569134196168027,Right,Correct,0.0,0.0,-45,45,2001,696,-0.89
"{'cat': 'RB', 'resp': 'reach'}",74,203,Left,38.94645596149886,14.26825494252239,1.947322798074943,0.224125224534873,Left,Correct,0.0,0.0,-45,45,2001,1095,-2.32
"{'cat': 'RB', 'resp': 'reach'}",74,204,Right,66.32831707418394,41.07974270057892,3.316415853709197,0.6452790893974883,Right,Correct,0.0,0.0,-45,45,2009,925,-0.9
"{'cat': 'RB', 'resp': 'reach'}",74,205,Right,59.210228079486605,67.22809858714812,2.9605114039743303,1.0560165031809745,Right,Correct,0.0,0.0,-45,45,2009,1857,-0.9
"{'cat': 'RB', 'resp': 'reach'}",74,206,Right,56.44158759425238,50.32722804572428,2.822079379712619,0.790538249519928,Right,Correct,0.0,0.0,-45,45,2013,785,-0.94
"{'cat': 'RB', 'resp': 'reach'}",74,207,Right,64.59197782323577,14.071271696930673,3.229598891161788,0.22103101894871693,Right,Correct,0.0,0.0,-45,45,2003,618,-0.89
"{'cat': 'RB', 'resp': 'reach'}",74,208,Right,63.07777777577684,50.366495261808126,3.153888888788842,0.7911550575078077,Right,Correct,0.0,0.0,-45,45,2005,828,-0.94
"{'cat': 'RB', 'resp': 'reach'}",74,209,Right,63.33388922385864,75.8350022898642,3.166694461192932,1.1912134303940125,Right,Correct,0.0,0.0,-45,45,2008,787,-0.91
"{'cat': 'RB', 'resp': 'reach'}",74,210,Right,63.03998341246174,49.87409004515196,3.151999170623087,0.7834203744516262,Right,Correct,0.0,0.0,-45,45,2004,1512,-0.87
"{'cat': 'RB', 'resp': 'reach'}",74,211,Right,59.88091941058718,51.11836565254201,2.994045970529359,0.8029654099877139,Right,Correct,0.0,0.0,-45,45,2012,738,-0.84
"{'cat': 'RB', 'resp': 'reach'}",74,212,Left,42.488164314354414,12.325916144651494,2.1244082157177204,0.1936150380440048,Left,Correct,0.0,0.0,-45,45,2007,830,-2.35
"{'cat': 'RB', 'resp': 'reach'}",74,213,Left,36.843906240808266,42.85522154005464,1.8421953120404135,0.6731682457909937,Right,Incorrect,0.0,0.0,-45,45,2002,471,-0.92
"{'cat': 'RB', 'resp': 'reach'}",74,214,Left,36.414944487621,29.04004204366053,1.82074722438105,0.4561599137215132,Left,Correct,0.0,0.0,-45,45,2002,907,-2.3
"{'cat': 'RB', 'resp': 'reach'}",74,215,Left,41.546159663967885,60.84357927435233,2.0773079831983945,0.9557287083320674,Left,Correct,0.0,0.0,-45,45,2002,1429,-2.26
"{'cat': 'RB', 'resp': 'reach'}",74,216,Left,36.29300851297767,80.56282052365353,1.8146504256488836,1.2654778255479147,Left,Correct,0.0,0.0,-45,45,2009,818,-2.27
"{'cat': 'RB', 'resp': 'reach'}",74,217,Right,67.30426296789992,48.73652949474629,3.365213148394996,0.7655516151107863,Right,Correct,0.0,0.0,-45,45,2001,535,-0.91
"{'cat': 'RB', 'resp': 'reach'}",74,218,Right,54.57108580186195,77.03747006497088,2.728554290093097,1.2101017500362807,Right,Correct,0.0,0.0,-45,45,2010,1042,-0.87
"{'cat': 'RB', 'resp': 'reach'}",74,219,Right,55.32030961168729,77.30922682085684,2.766015480584365,1.2143704951755543,Right,Correct,0.0,0.0,-45,45,2005,1206,-0.87
"{'cat': 'RB', 'resp': 'reach'}",74,220,Right,55.564511290686596,86.46500835304704,2.77822556453433,1.3581891751725634,Right,Correct,0.0,0.0,-45,45,2009,952,-0.89
"{'cat': 'RB', 'resp': 'reach'}",74,221,Left,45.933803820754264,63.75416900814034,2.296690191037713,1.0014481449584787,Right,Incorrect,0.0,0.0,-45,45,2002,679,-0.84
"{'cat': 'RB', 'resp': 'reach'}",74,222,Right,56.31957293707093,81.88833089806002,2.815978646853546,1.2862988938203772,Right,Correct,0.0,0.0,-45,45,2007,776,-0.91
"{'cat': 'RB', 'resp': 'reach'}",74,223,Left,35.89940690913777,29.29193048151601,1.7949703454568884,0.4601165680509681,Left,Correct,0.0,0.0,-45,45,2001,1022,-2.49
"{'cat': 'RB', 'resp': 'reach'}",74,224,Right,62.835508924670485,69.94560653785284,3.1417754462335243,1.0987030182510034,Right,Correct,0.0,0.0,-45,45,2007,756,-0.84
"{'cat': 'RB', 'resp': 'reach'}",74,225,Left,37.27184684816901,33.261484190183296,1.8635923424084506,0.5224701718968644,Left,Correct,0.0,0.0,-45,45,2003,926,-2.31
"{'cat': 'RB', 'resp': 'reach'}",74,226,Right,63.92447805991656,31.305551661106303,3.1962239029958277,0.49174645557553653,Right,Correct,0.0,0.0,-45,45,2007,789,-0.86
"{'cat': 'RB', 'resp': 'reach'}",74,227,Right,52.8113109786084,69.78206612940048,2.64056554893042,1.0961341315222082,Right,Correct,0.0,0.0,-45,45,2005,841,-0.9
"{'cat': 'RB', 'resp': 'reach'}",74,228,Right,60.73878098694036,81.36881081881175,3.0369390493470183,1.2781382914985835,Right,Correct,0.0,0.0,-45,45,2001,661,-0.92
"{'cat': 'RB', 'resp': 'reach'}",74,229,Left,45.428082889837256,47.636282157697906,2.2714041444918625,0.7482689703547714,Right,Incorrect,0.0,0.0,-45,45,2001,1443,-0.87
"{'cat': 'RB', 'resp': 'reach'}",74,230,Right,52.902852867754014,53.66625487424861,2.6451426433877008,0.8429875602930843,Right,Correct,0.0,0.0,-45,45,2007,786,-0.85
"{'cat': 'RB', 'resp': 'reach'}",74,231,Right,61.602639848211126,54.51019264677109,3.0801319924105566,0.8562441038243019,Right,Correct,0.0,0.0,-45,45,2005,664,-0.9
"{'cat': 'RB', 'resp': 'reach'}",74,232,Right,64.72933607812095,24.755318766738853,3.236466803906047,0.38885563787430155,Right,Correct,0.0,0.0,-45,45,2006,932,-0.87
"{'cat': 'RB', 'resp': 'reach'}",74,233,Right,60.21052226561768,21.06335811479658,3.010526113280884,0.33086245556687943,Right,Correct,0.0,0.0,-45,45,2012,949,-0.81
"{'cat': 'RB', 'resp': 'reach'}",74,234,Left,41.17112446226139,28.37174219628051,2.0585562231130696,0.445662284266892,Left,Correct,0.0,0.0,-45,45,2008,922,-2.23
"{'cat': 'RB', 'resp': 'reach'}",74,235,Right,63.49281362331189,18.97718723981261,3.1746406811655947,0.29809296009196634,Right,Correct,0.0,0.0,-45,45,2001,1033,-0.79
"{'cat': 'RB', 'resp': 'reach'}",74,236,Right,53.36581662766974,46.23472606683398,2.6682908313834868,0.7262533787615107,Right,Correct,0.0,0.0,-45,45,2005,1011,-0.76
"{'cat': 'RB', 'resp': 'reach'}",74,237,Right,64.594926115778,39.057711079338176,3.2297463057888995,0.6135170909644074,Right,Correct,0.0,0.0,-45,45,2001,738,-0.85
"{'cat': 'RB', 'resp': 'reach'}",74,238,Left,43.863588906840405,71.53631326417405,2.19317944534202,1.1236897810781366,Left,Correct,0.0,0.0,-45,45,2005,952,-2.32
"{'cat': 'RB', 'resp': 'reach'}",74,239,Right,63.33033385185428,36.878763143193524,3.166516692592714,0.5792902568206739,Right,Correct,0.0,0.0,-45,45,2003,815,-0.83
"{'cat': 'RB', 'resp': 'reach'}",74,240,Right,62.61654550559876,18.75467534741519,3.1308272752799375,0.2945977514595058,Right,Correct,0.0,0.0,-45,45,2003,962,-0.8
"{'cat': 'RB', 'resp': 'reach'}",74,241,Left,38.184618469482956,90.20270258879714,1.9092309234741478,1.4169007389345507,Left,Correct,0.0,0.0,-45,45,2002,1064,-2.29
"{'cat': 'RB', 'resp': 'reach'}",74,242,Right,50.886615882516395,48.49730675661148,2.5443307941258198,0.7617939131273063,Left,Incorrect,0.0,0.0,-45,45,2008,1609,-2.42
"{'cat': 'RB', 'resp': 'reach'}",74,243,Left,40.668910172400075,52.25296758968604,2.033445508620004,0.820787695540116,Left,Correct,0.0,0.0,-45,45,2003,874,-2.32
"{'cat': 'RB', 'resp': 'reach'}",74,244,Left,35.739368315140155,49.71775279929624,1.7869684157570078,0.7809646347363123,Left,Correct,0.0,0.0,-45,45,2011,829,-2.38
"{'cat': 'RB', 'resp': 'reach'}",74,245,Left,34.48331829244592,44.92205037382098,1.724165914622296,0.7056339171929331,Left,Correct,0.0,0.0,-45,45,2008,933,-2.41
"{'cat': 'RB', 'resp': 'reach'}",74,246,Right,61.81427821840748,20.937878201143906,3.090713910920374,0.32889142169235785,Right,Correct,0.0,0.0,-45,45,2005,733,-0.69
"{'cat': 'RB', 'resp': 'reach'}",74,247,Right,59.927474563503104,61.431418983302635,2.9963737281751555,0.9649624728877005,Right,Correct,0.0,0.0,-45,45,2003,1197,-0.83
"{'cat': 'RB', 'resp': 'reach'}",74,248,Right,65.06839497586485,48.05091458478994,3.2534197487932426,0.7547820012892337,Right,Correct,0.0,0.0,-45,45,2005,713,-0.81
"{'cat': 'RB', 'resp': 'reach'}",74,249,Right,64.40823687073556,26.49953271666414,3.220411843536778,0.41625368653117223,Right,Correct,0.0,0.0,-45,45,2004,974,-0.79
"{'cat': 'RB', 'resp': 'reach'}",74,250,Left,40.740264254434614,44.963638485862035,2.0370132127217304,0.7062871817292573,Left,Correct,0.0,0.0,-45,45,2001,821,-2.47
"{'cat': 'RB', 'resp': 'reach'}",74,251,Left,36.35825525344476,66.87483507463791,1.817912762672238,1.0504674529025573,Left,Correct,0.0,0.0,-45,45,2001,1205,-2.39
"{'cat': 'RB', 'resp': 'reach'}",74,252,Left,40.45549372633661,63.61728921725941,2.0227746863168306,0.9992980422311967,Left,Correct,0.0,0.0,-45,45,2004,705,-2.37
"{'cat': 'RB', 'resp': 'reach'}",74,253,Left,30.967432547080428,39.13940258963689,1.5483716273540213,0.6148002982074827,Left,Correct,0.0,0.0,-45,45,2008,701,-2.3
"{'cat': 'RB', 'resp': 'reach'}",74,254,Right,59.15970557196157,57.84166402775479,2.9579852785980787,0.9085747339050171,Right,Correct,0.0,0.0,-45,45,2009,666,-0.74
"{'cat': 'RB', 'resp': 'reach'}",74,255,Left,40.862224118902425,32.62767845867228,2.043111205945121,0.5125143747472739,Left,Correct,0.0,0.0,-45,45,2001,766,-2.41
"{'cat': 'RB', 'resp': 'reach'}",74,256,Left,32.3870530872579,54.115263104469264,1.6193526543628949,0.8500405650803969,Left,Correct,0.0,0.0,-45,45,2004,781,-2.45
"{'cat': 'RB', 'resp': 'reach'}",74,257,Right,67.21907570603892,26.35109463898488,3.360953785301946,0.41392202665942135,Right,Correct,0.0,0.0,-45,45,2008,499,-0.81
"{'cat': 'RB', 'resp': 'reach'}",74,258,Right,61.171605659954736,50.877277977908,3.0585802829977364,0.7991784136502078,Right,Correct,0.0,0.0,-45,45,2003,717,-0.81
"{'cat': 'RB', 'resp': 'reach'}",74,259,Right,66.41034497681497,54.79028311996752,3.320517248840748,0.860643754688974,Right,Correct,0.0,0.0,-45,45,2005,717,-0.78
"{'cat': 'RB', 'resp': 'reach'}",74,260,Left,41.44164386537602,23.092549357004554,2.072082193268801,0.36273691706312605,Left,Correct,0.0,0.0,-45,45,2007,1679,-2.39
"{'cat': 'RB', 'resp': 'reach'}",74,261,Left,39.76187661641842,83.50891946797324,1.988093830820921,1.311755039549032,Left,Correct,0.0,0.0,-45,45,2006,1323,-2.53
"{'cat': 'RB', 'resp': 'reach'}",74,262,Left,33.66018013703299,76.27016221832564,1.6830090068516494,1.198048906565968,Left,Correct,0.0,0.0,-45,45,2007,1106,-2.44
"{'cat': 'RB', 'resp': 'reach'}",74,263,Left,34.739445839848166,21.70833806082252,1.7369722919924084,0.3409937768676186,Left,Correct,0.0,0.0,-45,45,2010,1021,-2.48
"{'cat': 'RB', 'resp': 'reach'}",74,264,Right,55.09950901351551,31.86209791753268,2.7549754506757758,0.5004886637283966,Right,Correct,0.0,0.0,-45,45,2008,964,-0.73
"{'cat': 'RB', 'resp': 'reach'}",74,265,Left,44.78494277726897,30.097661244833677,2.239247138863448,0.47277295728501856,Right,Incorrect,0.0,0.0,-45,45,2007,1146,-0.8
"{'cat': 'RB', 'resp': 'reach'}",74,266,Left,40.674277454704615,31.711040107884568,2.033713872735231,0.4981158532031072,Left,Correct,0.0,0.0,-45,45,2003,2132,-2.42
"{'cat': 'RB', 'resp': 'reach'}",74,267,Right,55.427825040968955,67.33118934802616,2.771391252048448,1.0576358490661115,Right,Correct,0.0,0.0,-45,45,2009,1250,-0.74
"{'cat': 'RB', 'resp': 'reach'}",74,268,Right,67.73047873138916,69.69217004800535,3.386523936569458,1.094722047177721,Right,Correct,0.0,0.0,-45,45,2001,899,-0.9
"{'cat': 'RB', 'resp': 'reach'}",74,269,Right,67.13664128321365,42.99908679125664,3.3568320641606824,0.6754280758724088,Right,Correct,0.0,0.0,-45,45,2002,834,-0.89
"{'cat': 'RB', 'resp': 'reach'}",74,270,Right,62.86438341644423,25.5013473727027,3.1432191708222117,0.4005742278136209,Right,Correct,0.0,0.0,-45,45,2011,831,-0.92
"{'cat': 'RB', 'resp': 'reach'}",74,271,Right,62.86457767763844,47.210048158509736,3.1432288838819216,0.7415737023519726,Right,Correct,0.0,0.0,-45,45,2008,909,-0.86
"{'cat': 'RB', 'resp': 'reach'}",74,272,Right,64.20185690393075,72.3390986815765,3.2100928451965376,1.136299904926739,Right,Correct,0.0,0.0,-45,45,2007,1452,-0.84
"{'cat': 'RB', 'resp': 'reach'}",74,273,Left,44.163474450274876,37.30624762438938,2.2081737225137434,0.5860051673489168,Left,Correct,0.0,0.0,-45,45,2004,940,-2.5
"{'cat': 'RB', 'resp': 'reach'}",74,274,Right,64.54825999813228,71.9551494454873,3.2274129999066137,1.1302688444294926,Right,Correct,0.0,0.0,-45,45,2001,683,-0.86
"{'cat': 'RB', 'resp': 'reach'}",74,275,Left,43.64794853142372,44.35073845662658,2.182397426571186,0.6966597705831019,Left,Correct,0.0,0.0,-45,45,2010,1178,-2.37
"{'cat': 'RB', 'resp': 'reach'}",74,276,Left,39.29029295153858,72.36693634635037,1.9645146475769293,1.1367371779424726,Left,Correct,0.0,0.0,-45,45,2005,2444,-2.37
"{'cat': 'RB', 'resp': 'reach'}",74,277,Left,44.97066363754412,64.53328120179597,2.2485331818772063,1.0136864106780326,Left,Correct,0.0,0.0,-45,45,2006,1079,-2.43
"{'cat': 'RB', 'resp': 'reach'}",74,278,Left,38.62242842846069,27.119131113458078,1.9311214214230343,0.42598631538889153,Left,Correct,0.0,0.0,-45,45,2008,1952,-2.33
"{'cat': 'RB', 'resp': 'reach'}",74,279,Right,53.248497715849595,76.79455077058951,2.6624248857924795,1.206285982683062,Right,Correct,0.0,0.0,-45,45,2005,1647,-0.84
"{'cat': 'RB', 'resp': 'reach'}",74,280,Left,43.4136190030906,54.335828363901804,2.17068095015453,0.8535051960737491,Left,Correct,0.0,0.0,-45,45,2002,856,-2.41
"{'cat': 'RB', 'resp': 'reach'}",74,281,Left,39.01696745536704,10.417949498075636,1.9508483727683517,0.16364476804311945,Left,Correct,0.0,0.0,-45,45,2012,1196,-2.4
"{'cat': 'RB', 'resp': 'reach'}",74,282,Left,38.18164393767287,64.93394012003456,1.9090821968836433,1.0199799462487005,Left,Correct,0.0,0.0,-45,45,2001,858,-2.3
"{'cat': 'RB', 'resp': 'reach'}",74,283,Left,32.82622527012599,74.16728538169767,1.6413112635062992,1.1650169944591953,Left,Correct,0.0,0.0,-45,45,2009,1002,-2.4
"{'cat': 'RB', 'resp': 'reach'}",74,284,Left,39.70209034358589,11.379637540165959,1.9851045171792945,0.1787509284835,Left,Correct,0.0,0.0,-45,45,2001,2268,-2.42
"{'cat': 'RB', 'resp': 'reach'}",74,285,Right,58.17219078625616,29.424871245347003,2.908609539312808,0.4622047966860384,Right,Correct,0.0,0.0,-45,45,2008,856,-0.87
"{'cat': 'RB', 'resp': 'reach'}",74,286,Right,60.05712524955446,44.29130729383928,3.002856262477723,0.6957262280610675,Right,Correct,0.0,0.0,-45,45,2001,739,-0.88
"{'cat': 'RB', 'resp': 'reach'}",74,287,Right,67.14658317525218,70.7684070696834,3.357329158762609,1.1116275387818468,Right,Correct,0.0,0.0,-45,45,2011,789,-0.85
"{'cat': 'RB', 'resp': 'reach'}",74,288,Right,60.03176651140386,53.72128775824522,3.001588325570193,0.8438520148134324,Right,Correct,0.0,0.0,-45,45,2004,698,-0.83
"{'cat': 'RB', 'resp': 'reach'}",74,289,Left,48.56582692293986,47.10239664445115,2.428291346146993,0.7398827163234011,Left,Correct,0.0,0.0,-45,45,2011,1173,-2.44
"{'cat': 'RB', 'resp': 'reach'}",74,290,Left,45.16248522077386,40.2855762961674,2.2581242610386933,0.632804352688353,Right,Incorrect,0.0,0.0,-45,45,2008,412,-0.78
"{'cat': 'RB', 'resp': 'reach'}",74,291,Left,32.91254022996998,30.373426990512343,1.6456270114984988,0.4771046754886975,Left,Correct,0.0,0.0,-45,45,2007,1127,-2.51
"{'cat': 'RB', 'resp': 'reach'}",74,292,Right,53.13506381326107,52.977532561032795,2.6567531906630535,0.8321691354952735,Right,Correct,0.0,0.0,-45,45,2003,905,-0.79
"{'cat': 'RB', 'resp': 'reach'}",74,293,Right,60.561890710804384,67.58261514563144,3.028094535540219,1.06158523625951,Right,Correct,0.0,0.0,-45,45,2007,711,-0.82
"{'cat': 'RB', 'resp': 'reach'}",74,294,Right,55.33473209946383,25.792350749235315,2.7667366049731914,0.40514529816304434,Right,Correct,0.0,0.0,-45,45,2009,709,-0.87
"{'cat': 'RB', 'resp': 'reach'}",74,295,Left,31.518931683239956,36.132644204339684,1.5759465841619977,0.5675702479356368,Left,Correct,0.0,0.0,-45,45,2002,1705,-2.46
"{'cat': 'RB', 'resp': 'reach'}",74,296,Left,34.25412812381566,72.81249025825086,1.712706406190783,1.1437359224244963,Left,Correct,0.0,0.0,-45,45,2003,793,-2.38
"{'cat': 'RB', 'resp': 'reach'}",74,297,Right,67.512992946898,69.53489209523246,3.3756496473449,1.0922515308727065,Right,Correct,0.0,0.0,-45,45,2007,688,-0.85
"{'cat': 'RB', 'resp': 'reach'}",74,298,Left,40.09794464761845,90.11166417542691,2.004897232380922,1.4154707108813587,Left,Correct,0.0,0.0,-45,45,2003,1976,-2.4
"{'cat': 'RB', 'resp': 'reach'}",74,299,Left,46.61581713555861,31.371026104715295,2.3307908567779303,0.492774925730736,Right,Incorrect,0.0,0.0,-45,45,2006,7069,-0.86
"{'cat': 'RB', 'resp': 'reach'}",74,300,Left,35.78546451788573,17.40894728851022,1.7892732258942863,0.2734591045415783,Left,Correct,0.0,0.0,-45,45,2010,886,-2.32
"{'cat': 'RB', 'resp': 'reach'}",74,301,Right,53.931630888454116,32.177839054043645,2.6965815444227057,0.5054483139028912,Right,Correct,0.0,0.0,-45,45,2011,947,-0.89
"{'cat': 'RB', 'resp': 'reach'}",74,302,Right,55.45003233479583,18.298659096611342,2.772501616739792,0.28743466494229114,Right,Correct,0.0,0.0,-45,45,2006,1358,-0.94
"{'cat': 'RB', 'resp': 'reach'}",74,303,Right,54.325835326103146,26.959683922635968,2.7162917663051576,0.42348172477228,Right,Correct,0.0,0.0,-45,45,2003,910,-0.86
"{'cat': 'RB', 'resp': 'reach'}",74,304,Left,39.45084259485024,10.839064276258384,1.9725421297425123,0.17025962351040455,Right,Incorrect,0.0,0.0,-45,45,2004,2226,-0.86
"{'cat': 'RB', 'resp': 'reach'}",74,305,Right,56.27020372052693,68.51483412865574,2.8135101860263467,1.0762284978025405,Right,Correct,0.0,0.0,-45,45,2003,2111,-0.86
"{'cat': 'RB', 'resp': 'reach'}",74,306,Left,34.85889325052138,67.74554965104653,1.7429446625260692,1.0641446054856518,Left,Correct,0.0,0.0,-45,45,2010,1386,-2.38
"{'cat': 'RB', 'resp': 'reach'}",74,307,Left,31.454096632028545,40.52275831611788,1.5727048316014274,0.6365299991455532,Left,Correct,0.0,0.0,-45,45,2005,2595,-2.25
"{'cat': 'RB', 'resp': 'reach'}",74,308,Right,54.23816705648991,38.78463680350704,2.7119083528244956,0.6092276502702302,Right,Correct,0.0,0.0,-45,45,2007,810,-0.82
"{'cat': 'RB', 'resp': 'reach'}",74,309,Left,47.9668057430366,29.63652392001028,2.3983402871518305,0.4655294291252123,Right,Incorrect,0.0,0.0,-45,45,2004,990,-0.89
"{'cat': 'RB', 'resp': 'reach'}",74,310,Left,33.263233791614084,27.265845560173386,1.6631616895807042,0.42829090052877294,Left,Correct,0.0,0.0,-45,45,2008,1580,-2.34
"{'cat': 'RB', 'resp': 'reach'}",74,311,Left,44.99579267510505,60.10724643648964,2.2497896337552525,0.9441624191619356,Left,Correct,0.0,0.0,-45,45,2007,652,-2.4
"{'cat': 'RB', 'resp': 'reach'}",74,312,Right,65.3828390734417,61.64646372422803,3.2691419536720847,0.9683403877791221,Right,Correct,0.0,0.0,-45,45,2010,676,-0.84
"{'cat': 'RB', 'resp': 'reach'}",74,313,Left,46.448798618128386,75.57585433649862,2.322439930906419,1.1871427438615818,Right,Incorrect,0.0,0.0,-45,45,2006,664,-0.83
"{'cat': 'RB', 'resp': 'reach'}",74,314,Right,53.839327954574834,75.51153241759131,2.691966397728742,1.1861323775220618,Right,Correct,0.0,0.0,-45,45,2004,878,-0.84
"{'cat': 'RB', 'resp': 'reach'}",74,315,Left,45.79723151300549,52.13940116170125,2.2898615756502747,0.819003798260859,Left,Correct,0.0,0.0,-45,45,2004,1133,-2.21
"{'cat': 'RB', 'resp': 'reach'}",74,316,Left,33.36804227485168,48.733814437871274,1.6684021137425842,0.765508967097123,Left,Correct,0.0,0.0,-45,45,2003,714,-2.31
"{'cat': 'RB', 'resp': 'reach'}",74,317,Left,47.0262305506364,47.621488475647666,2.35131152753182,0.7480365917405286,Right,Incorrect,0.0,0.0,-45,45,2006,735,-0.85
"{'cat': 'RB', 'resp': 'reach'}",74,318,Left,39.610501229575995,53.41201029435729,1.9805250614787997,0.8389938957710762,Left,Correct,0.0,0.0,-45,45,2002,1851,-2.48
"{'cat': 'RB', 'resp': 'reach'}",74,319,Left,48.62776862430037,45.77389224512764,2.4313884312150185,0.7190146180175189,Right,Incorrect,0.0,0.0,-45,45,2008,652,-0.89
"{'cat': 'RB', 'resp': 'reach'}",74,320,Left,34.754177389823965,36.228299546063425,1.7377088694911982,0.5690727985298164,Left,Correct,0.0,0.0,-45,45,2012,722,-2.3
"{'cat': 'RB', 'resp': 'reach'}",74,321,Left,35.53500092553004,76.42049582061136,1.776750046276502,1.200410341268611,Left,Correct,0.0,0.0,-45,45,2003,651,-2.32
"{'cat': 'RB', 'resp': 'reach'}",74,322,Left,36.72143757601457,55.10434719065755,1.8360718788007286,0.8655770615751556,Left,Correct,0.0,0.0,-45,45,2002,748,-2.24
"{'cat': 'RB', 'resp': 'reach'}",74,323,Right,61.510913500674924,74.99815347017972,3.075545675033746,1.1780682398735822,Right,Correct,0.0,0.0,-45,45,2006,630,-0.84
"{'cat': 'RB', 'resp': 'reach'}",74,324,Left,45.96167526920135,66.66735656595048,2.2980837634600677,1.0472083881092067,Right,Incorrect,0.0,0.0,-45,45,2008,847,-0.91
"{'cat': 'RB', 'resp': 'reach'}",74,325,Left,40.80006674223171,70.6367270440761,2.0400033371115853,1.1095591137764846,Left,Correct,0.0,0.0,-45,45,2004,890,-2.29
"{'cat': 'RB', 'resp': 'reach'}",74,326,Left,32.34850424018167,25.677240408783508,1.6174252120090835,0.40333714916346625,Left,Correct,0.0,0.0,-45,45,2002,727,-2.4
"{'cat': 'RB', 'resp': 'reach'}",74,327,Right,56.18777030360146,49.24582796273334,2.809388515180073,0.7735516567383492,Right,Correct,0.0,0.0,-45,45,2007,7566,-0.79
"{'cat': 'RB', 'resp': 'reach'}",74,328,Left,31.418062059291955,57.31099668590476,1.570903102964598,0.900239030791737,Left,Correct,0.0,0.0,-45,45,2005,727,-2.33
"{'cat': 'RB', 'resp': 'reach'}",74,329,Left,39.528119129924846,56.461087590832,1.9764059564962424,0.8868886899452382,Left,Correct,0.0,0.0,-45,45,2003,874,-2.41
"{'cat': 'RB', 'resp': 'reach'}",74,330,Right,67.87233109626872,40.48485026927084,3.3936165548134363,0.6359345409381201,Right,Correct,0.0,0.0,-45,45,2011,865,-0.86
"{'cat': 'RB', 'resp': 'reach'}",74,331,Right,63.45951327473136,31.10770906524998,3.1729756637365676,0.4886387513469898,Right,Correct,0.0,0.0,-45,45,2004,761,-0.89
"{'cat': 'RB', 'resp': 'reach'}",74,332,Left,41.43233444846514,86.54275189680818,2.0716167224232573,1.3594103679022838,Left,Correct,0.0,0.0,-45,45,2007,770,-2.42
"{'cat': 'RB', 'resp': 'reach'}",74,333,Right,58.05395297403311,54.16973597165511,2.9026976487016554,0.8508962228772521,Right,Correct,0.0,0.0,-45,45,2004,1040,-0.95
"{'cat': 'RB', 'resp': 'reach'}",74,334,Left,41.53954246355957,72.99199582112658,2.0769771231779783,1.1465555892125407,Left,Correct,0.0,0.0,-45,45,2008,916,-2.44
"{'cat': 'RB', 'resp': 'reach'}",74,335,Left,36.5478936077167,15.887548000000763,1.8273946803858352,0.24956102040178804,Left,Correct,0.0,0.0,-45,45,2001,834,-2.36
"{'cat': 'RB', 'resp': 'reach'}",74,336,Right,66.07268117897834,76.05157916310043,3.303634058948917,1.1946154119634946,Right,Correct,0.0,0.0,-45,45,2004,1073,-0.85
"{'cat': 'RB', 'resp': 'reach'}",74,337,Right,50.77771212514304,49.53260827536795,2.538885606257152,0.7780563913551847,Left,Incorrect,0.0,0.0,-45,45,2011,1422,-2.27
"{'cat': 'RB', 'resp': 'reach'}",74,338,Left,40.47745742913201,45.72768799590524,2.0238728714566006,0.7182888433679104,Left,Correct,0.0,0.0,-45,45,2006,1089,-2.37
"{'cat': 'RB', 'resp': 'reach'}",74,339,Right,65.37562879745899,40.281775752940945,3.2687814398729493,0.6327446538949537,Right,Correct,0.0,0.0,-45,45,2008,2496,-0.8
"{'cat': 'RB', 'resp': 'reach'}",74,340,Right,64.48321663777207,55.54647651104413,3.224160831888604,0.8725220126994714,Right,Correct,0.0,0.0,-45,45,2004,841,-0.77
"{'cat': 'RB', 'resp': 'reach'}",74,341,Right,59.82427900660173,25.13710943718653,2.9912139503300863,0.39485279170173937,Right,Correct,0.0,0.0,-45,45,2012,870,-0.85
"{'cat': 'RB', 'resp': 'reach'}",74,342,Right,61.83406513683442,55.598957987856934,3.091703256841721,0.8733463898094944,Right,Correct,0.0,0.0,-45,45,2002,1420,-0.86
"{'cat': 'RB', 'resp': 'reach'}",74,343,Right,66.49218595280223,52.0064702591488,3.3246092976401114,0.8169157245263897,Right,Correct,0.0,0.0,-45,45,2005,644,-0.89
"{'cat': 'RB', 'resp': 'reach'}",74,344,Left,37.02007856391221,86.33310607593816,1.8510039281956103,1.3561172590487784,Left,Correct,0.0,0.0,-45,45,2004,762,-2.38
"{'cat': 'RB', 'resp': 'reach'}",74,345,Right,52.5147780643107,63.59423028387398,2.625738903215535,0.9989358333525803,Right,Correct,0.0,0.0,-45,45,2005,1417,-0.9
"{'cat': 'RB', 'resp': 'reach'}",74,346,Right,56.210161971763846,41.92112506709181,2.8105080985881923,0.6584954927049728,Right,Correct,0.0,0.0,-45,45,2012,727,-0.87
"{'cat': 'RB', 'resp': 'reach'}",74,347,Right,57.470549465826835,61.32671761507279,2.8735274732913414,0.9633178276414421,Right,Correct,0.0,0.0,-45,45,2005,668,-0.87
"{'cat': 'RB', 'resp': 'reach'}",74,348,Left,37.45734404997345,65.56592156705436,1.8728672024986723,1.0299070876045127,Left,Correct,0.0,0.0,-45,45,2006,1294,-2.39
"{'cat': 'RB', 'resp': 'reach'}",74,349,Right,61.51134765917611,85.99331022036787,3.0755673829588055,1.3507797582308791,Right,Correct,0.0,0.0,-45,45,2006,859,-0.82
"{'cat': 'RB', 'resp': 'reach'}",74,350,Right,63.5430792401852,21.284614871950453,3.1771539620092604,0.334337948581038,Right,Correct,0.0,0.0,-45,45,2003,813,-0.8
"{'cat': 'RB', 'resp': 'reach'}",74,351,Left,44.78438692259735,21.656755355617655,2.2392193461298673,0.3401835176289991,Left,Correct,0.0,0.0,-45,45,2005,1047,-2.5
"{'cat': 'RB', 'resp': 'reach'}",74,352,Right,57.78595247002645,50.40230213782813,2.8892976235013226,0.7917175106010698,Right,Correct,0.0,0.0,-45,45,2008,1338,-0.9
"{'cat': 'RB', 'resp': 'reach'}",74,353,Right,52.7895657600109,38.03819234741234,2.6394782880005447,0.5975025281723305,Right,Correct,0.0,0.0,-45,45,2005,679,-0.86
"{'cat': 'RB', 'resp': 'reach'}",74,354,Right,57.593471437635564,47.70184890344299,2.879673571881778,0.7492988903885343,Right,Correct,0.0,0.0,-45,45,2008,721,-0.92
"{'cat': 'RB', 'resp': 'reach'}",74,355,Left,31.387411057881202,44.47769370561725,1.56937055289406,0.6986539789709206,Left,Correct,0.0,0.0,-45,45,2008,772,-2.22
"{'cat': 'RB', 'resp': 'reach'}",74,356,Left,33.738914540803265,24.31529519402905,1.686945727040163,0.3819437637571444,Left,Correct,0.0,0.0,-45,45,2006,805,-2.26
"{'cat': 'RB', 'resp': 'reach'}",74,357,Left,41.44177539350945,74.08653247239761,2.0720887696754726,1.16374853072613,Left,Correct,0.0,0.0,-45,45,2008,844,-2.32
"{'cat': 'RB', 'resp': 'reach'}",74,358,Right,67.76950796468303,48.48928502961857,3.3884753982341516,0.7616679081343563,Right,Correct,0.0,0.0,-45,45,2006,731,-0.76
"{'cat': 'RB', 'resp': 'reach'}",74,359,Right,56.03227999604723,48.47118711200351,2.8016139998023615,0.7613836267092324,Right,Correct,0.0,0.0,-45,45,2013,672,-0.87
"{'cat': 'RB', 'resp': 'reach'}",74,360,Right,59.49087225766751,56.932258131527554,2.9745436128833758,0.8942898194914237,Right,Correct,0.0,0.0,-45,45,2011,740,-0.85
"{'cat': 'RB', 'resp': 'reach'}",74,361,Right,62.86110846674443,28.88333225097459,3.1430554233372217,0.45369832205427457,Right,Correct,0.0,0.0,-45,45,2002,794,-0.86
"{'cat': 'RB', 'resp': 'reach'}",74,362,Left,44.57528309651371,24.14607932631663,2.2287641548256856,0.3792857271227636,Left,Correct,0.0,0.0,-45,45,2004,1143,-2.4
"{'cat': 'RB', 'resp': 'reach'}",74,363,Left,38.769194988264445,23.039387782237114,1.9384597494132223,0.36190185699941274,Left,Correct,0.0,0.0,-45,45,2002,836,-2.37
"{'cat': 'RB', 'resp': 'reach'}",74,364,Right,56.37439563948858,58.338638137844725,2.818719781974429,0.9163811849714316,Right,Correct,0.0,0.0,-45,45,2001,1210,-0.82
"{'cat': 'RB', 'resp': 'reach'}",74,365,Left,34.639590894316655,56.56254317085788,1.7319795447158328,0.8884823504696132,Left,Correct,0.0,0.0,-45,45,2008,834,-2.33
"{'cat': 'RB', 'resp': 'reach'}",74,366,Right,64.14155362091509,76.12578106950014,3.2070776810457544,1.195780972783633,Right,Correct,0.0,0.0,-45,45,2008,680,-0.86
"{'cat': 'RB', 'resp': 'reach'}",74,367,Left,47.99498531979046,30.716378312865288,2.3997492659895228,0.4824917422629122,Right,Incorrect,0.0,0.0,-45,45,2003,769,-0.82
"{'cat': 'RB', 'resp': 'reach'}",74,368,Left,37.50681931245847,83.02804780238361,1.8753409656229234,1.3042015250893526,Left,Correct,0.0,0.0,-45,45,2007,789,-2.34
"{'cat': 'RB', 'resp': 'reach'}",74,369,Left,40.20267544871304,53.384136805092915,2.0101337724356516,0.8385560600255619,Left,Correct,0.0,0.0,-45,45,2002,752,-2.3
"{'cat': 'RB', 'resp': 'reach'}",74,370,Left,35.163323137865156,57.481782090320756,1.7581661568932576,0.9029217216510051,Left,Correct,0.0,0.0,-45,45,2002,723,-2.34
"{'cat': 'RB', 'resp': 'reach'}",74,371,Right,55.07293680715116,68.78988581823472,2.7536468403575576,1.0805489996392343,Right,Correct,0.0,0.0,-45,45,2006,679,-0.85
"{'cat': 'RB', 'resp': 'reach'}",74,372,Right,61.52574746736059,61.462571612692486,3.0762873733680296,0.9654518172458565,Right,Correct,0.0,0.0,-45,45,2004,667,-0.92
"{'cat': 'RB', 'resp': 'reach'}",74,373,Right,54.81285486535022,23.45039715756982,2.740642743267511,0.3683579771699215,Right,Correct,0.0,0.0,-45,45,2006,653,-0.92
"{'cat': 'RB', 'resp': 'reach'}",74,374,Left,47.36287874354295,34.686529104918115,2.3681439371771473,0.5448547250726965,Right,Incorrect,0.0,0.0,-45,45,2009,977,-0.86
"{'cat': 'RB', 'resp': 'reach'}",74,375,Left,42.08485740863032,16.06471127724012,2.104242870431516,0.2523438946530933,Left,Correct,0.0,0.0,-45,45,2010,784,-2.48
"{'cat': 'RB', 'resp': 'reach'}",74,376,Left,34.46619787161221,73.67251966970942,1.7233098935806106,1.1572452328290432,Left,Correct,0.0,0.0,-45,45,2003,768,-2.35
"{'cat': 'RB', 'resp': 'reach'}",74,377,Left,37.30967403265659,80.21910428360475,1.8654837016328292,1.260078743474631,Left,Correct,0.0,0.0,-45,45,2011,795,-2.37
"{'cat': 'RB', 'resp': 'reach'}",74,378,Left,32.9575344958897,61.29742530699261,1.6478767247944852,0.9628577051420852,Left,Correct,0.0,0.0,-45,45,2007,664,-2.24
"{'cat': 'RB', 'resp': 'reach'}",74,379,Left,45.04553407612367,16.946757300292056,2.2522767038061833,0.2661990411838336,Right,Incorrect,0.0,0.0,-45,45,2011,1276,-0.86
"{'cat': 'RB', 'resp': 'reach'}",74,380,Left,39.83286489644247,57.6193457942521,1.9916432448221235,0.9050825672593616,Left,Correct,0.0,0.0,-45,45,2007,1507,-2.36
"{'cat': 'RB', 'resp': 'reach'}",74,381,Left,46.516765336285395,79.52302128645883,2.32583826681427,1.249144697324019,Left,Correct,0.0,0.0,-45,45,2004,1520,-2.34
"{'cat': 'RB', 'resp': 'reach'}",74,382,Right,55.45653305658329,78.52251944443893,2.7728266528291647,1.233428851140055,Right,Correct,0.0,0.0,-45,45,2003,645,-0.86
"{'cat': 'RB', 'resp': 'reach'}",74,383,Left,34.5329997635268,50.932821549841464,1.72664998817634,0.8000508900379092,Left,Correct,0.0,0.0,-45,45,2008,1133,-2.36
"{'cat': 'RB', 'resp': 'reach'}",74,384,Left,43.196200139470335,83.82243618717298,2.1598100069735167,1.3166797486581094,Left,Correct,0.0,0.0,-45,45,2005,1411,-2.37
"{'cat': 'RB', 'resp': 'reach'}",74,385,Left,36.06421607782117,55.51487491898514,1.8032108038910588,0.8720256160522,Left,Correct,0.0,0.0,-45,45,2005,1836,-2.36
"{'cat': 'RB', 'resp': 'reach'}",74,386,Left,42.294932650689496,40.30192955140826,2.114746632534475,0.6330612290209878,Left,Correct,0.0,0.0,-45,45,2001,949,-2.29
"{'cat': 'RB', 'resp': 'reach'}",74,387,Right,55.74053913244178,14.185958926759803,2.787026956622089,0.22283252174217572,Right,Correct,0.0,0.0,-45,45,2005,770,-0.87
"{'cat': 'RB', 'resp': 'reach'}",74,388,Right,56.47556135879083,50.96187303702946,2.8237780679395414,0.8005072297315377,Right,Correct,0.0,0.0,-45,45,2003,735,-0.91
"{'cat': 'RB', 'resp': 'reach'}",74,389,Left,35.35565942717069,39.23071620548041,1.7677829713585345,0.6162346491310167,Left,Correct,0.0,0.0,-45,45,2009,883,-2.35
"{'cat': 'RB', 'resp': 'reach'}",74,390,Right,52.37647463764068,32.90137047513046,2.618823731882034,0.5168135188885299,Right,Correct,0.0,0.0,-45,45,2004,797,-0.79
"{'cat': 'RB', 'resp': 'reach'}",74,391,Right,56.54984331204439,37.50332017934967,2.8274921656022194,0.589100775803354,Right,Correct,0.0,0.0,-45,45,2003,803,-0.85
"{'cat': 'RB', 'resp': 'reach'}",74,392,Right,53.341810233373145,24.363581158018157,2.667090511668657,0.3827022379058427,Right,Correct,0.0,0.0,-45,45,2006,713,-0.84
"{'cat': 'RB', 'resp': 'reach'}",74,393,Right,59.65697955810957,75.63733816260111,2.9828489779054785,1.1881085295435727,Right,Correct,0.0,0.0,-45,45,2007,781,-0.86
"{'cat': 'RB', 'resp': 'reach'}",74,394,Left,35.490908484445626,16.964704070399115,1.7745454242222813,0.26648094838945363,Left,Correct,0.0,0.0,-45,45,2006,784,-2.32
"{'cat': 'RB', 'resp': 'reach'}",74,395,Right,55.24037918394636,15.959340474359593,2.762018959197318,0.2506887339519317,Right,Correct,0.0,0.0,-45,45,2008,627,-0.8
"{'cat': 'RB', 'resp': 'reach'}",74,396,Left,44.20083739466764,81.43995594591931,2.210041869733382,1.2792558365418825,Left,Correct,0.0,0.0,-45,45,2001,843,-2.36
"{'cat': 'RB', 'resp': 'reach'}",74,397,Right,56.386012651065954,29.66273283324225,2.8193006325532974,0.46594111777155295,Right,Correct,0.0,0.0,-45,45,2011,727,-0.84
"{'cat': 'RB', 'resp': 'reach'}",74,398,Left,41.115637695507345,38.799268247009394,2.0557818847753673,0.6094574804473223,Left,Correct,0.0,0.0,-45,45,2009,763,-2.41
"{'cat': 'RB', 'resp': 'reach'}",74,399,Right,56.77116893993566,80.83974589556797,2.838558446996783,1.2698277591179097,Right,Correct,0.0,0.0,-45,45,2009,1136,-0.88
