condition,subject,trial,cat,x,y,xt,yt,resp,fb,rotation,su,target_angle_left,target_angle_right,rt,mt,ep
"{'cat': 'II', 'resp': 'reach'}",40,0,Left,60.290030826947884,87.68592089815012,3.014501541347394,1.3773672245844206,Right,Incorrect,0.0,0.0,-45,45,2011,1065,-0.83
"{'cat': 'II', 'resp': 'reach'}",40,1,Right,52.47476188577568,31.84496690506346,2.6237380942887842,0.5002195704137873,Right,Correct,0.0,0.0,-45,45,2001,695,-0.85
"{'cat': 'II', 'resp': 'reach'}",40,2,Left,10.550162593796184,32.31339631367737,0.5275081296898092,0.5075776423579217,Right,Incorrect,0.0,0.0,-45,45,2005,1341,-0.9
"{'cat': 'II', 'resp': 'reach'}",40,3,Left,19.661739653750203,37.45850335301186,0.9830869826875102,0.5883967947414535,Left,Correct,0.0,0.0,-45,45,2006,563,-2.54
"{'cat': 'II', 'resp': 'reach'}",40,4,Left,38.37191557937248,54.921888578331,1.9185957789686239,0.8627110083948092,Left,Correct,0.0,0.0,-45,45,2006,1005,-2.52
"{'cat': 'II', 'resp': 'reach'}",40,5,Right,57.24034438205113,29.25290492598581,2.8620172191025564,0.45950355605818843,Right,Correct,0.0,0.0,-45,45,2008,554,-0.92
"{'cat': 'II', 'resp': 'reach'}",40,6,Right,39.768672540497704,12.253779430231138,1.9884336270248852,0.1924819171836193,Left,Incorrect,0.0,0.0,-45,45,2006,477,-2.48
"{'cat': 'II', 'resp': 'reach'}",40,7,Left,47.37834294372208,60.98477721155448,2.3689171471861044,0.957946640343149,Left,Correct,0.0,0.0,-45,45,2007,476,-2.53
"{'cat': 'II', 'resp': 'reach'}",40,8,Right,65.68417195475362,47.39731111032659,3.2842085977376816,0.7445152219205594,Left,Incorrect,0.0,0.0,-45,45,2005,623,-2.51
"{'cat': 'II', 'resp': 'reach'}",40,9,Right,58.41306142648134,41.61747275202402,2.920653071324067,0.6537257332936602,Left,Incorrect,0.0,0.0,-45,45,2005,968,-2.49
"{'cat': 'II', 'resp': 'reach'}",40,10,Right,34.36158804774628,18.292292497370795,1.7180794023873143,0.2873346586352789,Left,Incorrect,0.0,0.0,-45,45,2006,780,-2.5
"{'cat': 'II', 'resp': 'reach'}",40,11,Right,48.910299783990425,22.924438663665857,2.445514989199521,0.36009624046721234,Right,Correct,0.0,0.0,-45,45,2004,511,-0.88
"{'cat': 'II', 'resp': 'reach'}",40,12,Left,50.77006175703555,72.28040403362334,2.5385030878517774,1.1353779315526658,Right,Incorrect,0.0,0.0,-45,45,2001,624,-0.88
"{'cat': 'II', 'resp': 'reach'}",40,13,Left,47.00718191832372,53.73176503933451,2.3503590959161857,0.8440165915599309,Right,Incorrect,0.0,0.0,-45,45,2006,544,-0.89
"{'cat': 'II', 'resp': 'reach'}",40,14,Left,41.9280417354384,69.48153410232774,2.0964020867719197,1.0914133854801076,Left,Correct,0.0,0.0,-45,45,2012,560,-2.51
"{'cat': 'II', 'resp': 'reach'}",40,15,Right,63.18593405045609,32.08309816143926,3.1592967025228047,0.5039601274418888,Left,Incorrect,0.0,0.0,-45,45,2001,591,-2.47
"{'cat': 'II', 'resp': 'reach'}",40,16,Left,61.57730065937443,88.49490010225257,3.0788650329687215,1.3900746402069968,Right,Incorrect,0.0,0.0,-45,45,2012,487,-0.86
"{'cat': 'II', 'resp': 'reach'}",40,17,Right,65.4877520664965,40.517486947094085,3.274387603324825,0.6364471966745555,Right,Correct,0.0,0.0,-45,45,2003,708,-0.92
"{'cat': 'II', 'resp': 'reach'}",40,18,Left,32.340226643779566,59.54143657943662,1.6170113321889783,0.9352746987107033,Left,Correct,0.0,0.0,-45,45,2002,502,-2.47
"{'cat': 'II', 'resp': 'reach'}",40,19,Right,66.04878022982157,42.089689011027964,3.3024390114910784,0.6611432889446225,Left,Incorrect,0.0,0.0,-45,45,2003,575,-2.47
"{'cat': 'II', 'resp': 'reach'}",40,20,Left,42.642286331873386,68.47104629507848,2.132114316593669,1.0755406801211258,Left,Correct,0.0,0.0,-45,45,2006,676,-2.46
"{'cat': 'II', 'resp': 'reach'}",40,21,Left,15.630427884069753,43.80505174904413,0.7815213942034877,0.6880881438245888,Right,Incorrect,0.0,0.0,-45,45,2004,684,-0.87
"{'cat': 'II', 'resp': 'reach'}",40,22,Right,51.16729724344262,41.845192406367886,2.558364862172131,0.6573027452594837,Right,Correct,0.0,0.0,-45,45,2006,592,-1.0
"{'cat': 'II', 'resp': 'reach'}",40,23,Left,32.331320761454165,43.072520613150644,1.616566038072708,0.6765815716493451,Right,Incorrect,0.0,0.0,-45,45,2005,585,-0.88
"{'cat': 'II', 'resp': 'reach'}",40,24,Right,36.87617563184976,12.25018782409948,1.8438087815924882,0.19242550036643027,Left,Incorrect,0.0,0.0,-45,45,2004,1111,-2.56
"{'cat': 'II', 'resp': 'reach'}",40,25,Right,59.34964351044403,33.107798761423524,2.9674821755222016,0.5200560868270869,Left,Incorrect,0.0,0.0,-45,45,2012,623,-2.49
"{'cat': 'II', 'resp': 'reach'}",40,26,Right,81.97820205474105,57.30573166891422,4.098910102737052,0.9001563280982443,Right,Correct,0.0,0.0,-45,45,2004,1396,-0.83
"{'cat': 'II', 'resp': 'reach'}",40,27,Left,35.663219813795315,48.94261455676417,1.7831609906897656,0.7687887916950359,Left,Correct,0.0,0.0,-45,45,2003,731,-2.55
"{'cat': 'II', 'resp': 'reach'}",40,28,Right,38.949190966362984,19.884187434127057,1.9474595483181492,0.3123400858282802,Right,Correct,0.0,0.0,-45,45,2002,649,-0.86
"{'cat': 'II', 'resp': 'reach'}",40,29,Right,78.01286303718251,65.10121496816494,3.900643151859126,1.0226074934187843,Right,Correct,0.0,0.0,-45,45,2008,524,-0.85
"{'cat': 'II', 'resp': 'reach'}",40,30,Right,35.28711889318114,19.33620141466364,1.7643559446590569,0.30373234156319934,Left,Incorrect,0.0,0.0,-45,45,2005,586,-2.59
"{'cat': 'II', 'resp': 'reach'}",40,31,Left,17.555126147792684,37.56718302495111,0.8777563073896343,0.590103931036248,Left,Correct,0.0,0.0,-45,45,2005,715,-2.57
"{'cat': 'II', 'resp': 'reach'}",40,32,Right,33.921628495838334,16.539777505135394,1.6960814247919165,0.25980621751071536,Right,Correct,0.0,0.0,-45,45,2006,855,-0.85
"{'cat': 'II', 'resp': 'reach'}",40,33,Right,59.00063407355225,33.345426498473316,2.9500317036776122,0.5237887345921111,Left,Incorrect,0.0,0.0,-45,45,2001,696,-2.46
"{'cat': 'II', 'resp': 'reach'}",40,34,Right,48.68205225937835,28.26086270912581,2.4341026129689176,0.44392059335549694,Left,Incorrect,0.0,0.0,-45,45,2009,641,-2.6
"{'cat': 'II', 'resp': 'reach'}",40,35,Left,50.12038814014669,77.07510488911542,2.5060194070073347,1.2106929164715388,Right,Incorrect,0.0,0.0,-45,45,2012,471,-0.81
"{'cat': 'II', 'resp': 'reach'}",40,36,Right,38.26819897501971,25.349256191438748,1.9134099487509855,0.3981851851249477,Right,Correct,0.0,0.0,-45,45,2001,613,-0.82
"{'cat': 'II', 'resp': 'reach'}",40,37,Right,61.882631730638366,31.0673412114619,3.094131586531918,0.48800465458248066,Left,Incorrect,0.0,0.0,-45,45,2004,616,-2.65
"{'cat': 'II', 'resp': 'reach'}",40,38,Right,78.23522303769347,64.11507052364497,3.9117611518846735,1.0071171727073727,Right,Correct,0.0,0.0,-45,45,2009,777,-0.86
"{'cat': 'II', 'resp': 'reach'}",40,39,Left,50.64899197267325,60.56058389847438,2.532449598633663,0.9512834273627772,Right,Incorrect,0.0,0.0,-45,45,2005,511,-0.89
"{'cat': 'II', 'resp': 'reach'}",40,40,Left,60.411732202760646,70.2969433591629,3.020586610138032,1.1042218041348197,Right,Incorrect,0.0,0.0,-45,45,2004,617,-0.85
"{'cat': 'II', 'resp': 'reach'}",40,41,Left,46.736894280622764,76.03059678137156,2.3368447140311384,1.1942858214820231,Left,Correct,0.0,0.0,-45,45,2001,574,-2.6
"{'cat': 'II', 'resp': 'reach'}",40,42,Right,43.063299504591484,17.814705984027814,2.1531649752295743,0.27983274722641954,Left,Incorrect,0.0,0.0,-45,45,2001,574,-2.57
"{'cat': 'II', 'resp': 'reach'}",40,43,Right,78.21663332783577,50.67766747105947,3.9108316663917884,0.7960429391407343,Right,Correct,0.0,0.0,-45,45,2001,586,-0.84
"{'cat': 'II', 'resp': 'reach'}",40,44,Right,51.835338993336975,34.969347435771795,2.5917669496668485,0.5492972250252487,Right,Correct,0.0,0.0,-45,45,2001,494,-0.82
"{'cat': 'II', 'resp': 'reach'}",40,45,Right,64.63551921331752,39.102981938955544,3.2317759606658765,0.6142282039643855,Left,Incorrect,0.0,0.0,-45,45,2008,637,-2.5
"{'cat': 'II', 'resp': 'reach'}",40,46,Left,44.00716001719224,52.744630442267585,2.200358000859612,0.8285107175686821,Left,Correct,0.0,0.0,-45,45,2003,677,-2.41
"{'cat': 'II', 'resp': 'reach'}",40,47,Right,75.59170489954481,60.853353449830315,3.7795852449772407,0.95588224072145,Right,Correct,0.0,0.0,-45,45,2007,530,-0.83
"{'cat': 'II', 'resp': 'reach'}",40,48,Left,54.16436244071657,80.0240063414746,2.7082181220358286,1.257014152165998,Left,Correct,0.0,0.0,-45,45,2012,722,-2.57
"{'cat': 'II', 'resp': 'reach'}",40,49,Left,39.94174477547068,65.02745227636119,1.9970872387735341,1.0214488317653858,Right,Incorrect,0.0,0.0,-45,45,2005,550,-0.85
"{'cat': 'II', 'resp': 'reach'}",40,50,Left,24.778752415501344,35.10808303362168,1.2389376207750673,0.5514764787002316,Right,Incorrect,0.0,0.0,-45,45,2001,594,-0.9
"{'cat': 'II', 'resp': 'reach'}",40,51,Left,48.07838093837551,62.68863357711856,2.4039190469187757,0.9847107535472904,Left,Correct,0.0,0.0,-45,45,2001,590,-2.57
"{'cat': 'II', 'resp': 'reach'}",40,52,Right,52.28234708777854,41.52024178000302,2.6141173543889273,0.6521984327566474,Left,Incorrect,0.0,0.0,-45,45,2007,710,-2.55
"{'cat': 'II', 'resp': 'reach'}",40,53,Right,62.47446913099123,40.727785328699916,3.1237234565495617,0.639750555928129,Right,Correct,0.0,0.0,-45,45,2006,530,-0.85
"{'cat': 'II', 'resp': 'reach'}",40,54,Right,68.43696890847804,36.99903895378879,3.421848445423902,0.5811795448355271,Right,Correct,0.0,0.0,-45,45,2003,1345,-0.81
"{'cat': 'II', 'resp': 'reach'}",40,55,Left,42.061530615399825,72.80613027508787,2.1030765307699912,1.1436360200425875,Left,Correct,0.0,0.0,-45,45,2012,632,-2.51
"{'cat': 'II', 'resp': 'reach'}",40,56,Left,28.137428258062535,52.71597110102776,1.4068714129031266,0.8280605376892033,Right,Incorrect,0.0,0.0,-45,45,2009,562,-0.84
"{'cat': 'II', 'resp': 'reach'}",40,57,Left,58.11078004407844,86.70870852531174,2.9055390022039216,1.3620172085268898,Right,Incorrect,0.0,0.0,-45,45,2006,484,-0.9
"{'cat': 'II', 'resp': 'reach'}",40,58,Left,20.465002064476714,52.03571235559496,1.0232501032238357,0.8173750583032438,Left,Correct,0.0,0.0,-45,45,2005,695,-2.67
"{'cat': 'II', 'resp': 'reach'}",40,59,Right,57.60552614473331,42.30654405942055,2.8802763072366657,0.6645496400792426,Left,Incorrect,0.0,0.0,-45,45,2002,1957,-2.43
"{'cat': 'II', 'resp': 'reach'}",40,60,Left,44.185005712610575,67.13619605120896,2.209250285630529,1.0545729015222105,Right,Incorrect,0.0,0.0,-45,45,2006,626,-0.87
"{'cat': 'II', 'resp': 'reach'}",40,61,Left,42.02260309560851,68.26470591156672,2.1011301547804253,1.0722994929562286,Right,Incorrect,0.0,0.0,-45,45,2006,545,-0.88
"{'cat': 'II', 'resp': 'reach'}",40,62,Left,37.93557808981275,48.20851112320483,1.8967789044906374,0.7572575219258106,Right,Incorrect,0.0,0.0,-45,45,2005,614,-0.9
"{'cat': 'II', 'resp': 'reach'}",40,63,Left,42.96868886932222,63.678983296957675,2.148434443466111,1.0002671305689468,Left,Correct,0.0,0.0,-45,45,2002,675,-2.7
"{'cat': 'II', 'resp': 'reach'}",40,64,Left,53.05675056566827,68.03556687075628,2.6528375282834133,1.0687001853199254,Left,Correct,0.0,0.0,-45,45,2009,604,-2.7
"{'cat': 'II', 'resp': 'reach'}",40,65,Left,26.98964660994927,47.32783784264606,1.3494823304974632,0.7434239383837294,Right,Incorrect,0.0,0.0,-45,45,2007,583,-0.87
"{'cat': 'II', 'resp': 'reach'}",40,66,Left,55.05679118941668,67.31178719482139,2.752839559470834,1.0573310807562517,Left,Correct,0.0,0.0,-45,45,2008,573,-2.6
"{'cat': 'II', 'resp': 'reach'}",40,67,Right,65.95729844347913,35.5846142362391,3.297864922173957,0.5589618133269776,Left,Incorrect,0.0,0.0,-45,45,2001,562,-2.53
"{'cat': 'II', 'resp': 'reach'}",40,68,Left,31.935429024244932,61.26304916835132,1.5967714512122466,0.9623177260190141,Right,Incorrect,0.0,0.0,-45,45,2003,530,-0.86
"{'cat': 'II', 'resp': 'reach'}",40,69,Right,78.189230154197,49.598006630739555,3.90946150770985,0.779083666319146,Right,Correct,0.0,0.0,-45,45,2004,502,-0.85
"{'cat': 'II', 'resp': 'reach'}",40,70,Left,56.44875027629253,75.2792342390272,2.8224375138146263,1.1824834462659655,Left,Correct,0.0,0.0,-45,45,2007,562,-2.59
"{'cat': 'II', 'resp': 'reach'}",40,71,Left,57.91731500918172,78.88299467159312,2.895865750459086,1.2390911827671987,Left,Correct,0.0,0.0,-45,45,2012,561,-2.53
"{'cat': 'II', 'resp': 'reach'}",40,72,Left,54.53651664213279,77.47330921741847,2.7268258321066394,1.2169478954336614,Right,Incorrect,0.0,0.0,-45,45,2007,488,-0.87
"{'cat': 'II', 'resp': 'reach'}",40,73,Left,46.36173318392919,72.0426722902792,2.3180866591964593,1.1316436500605904,Left,Correct,0.0,0.0,-45,45,2009,499,-2.47
"{'cat': 'II', 'resp': 'reach'}",40,74,Left,25.913283852156486,37.24785682316855,1.2956641926078243,0.5850879667881538,Right,Incorrect,0.0,0.0,-45,45,2008,502,-0.84
"{'cat': 'II', 'resp': 'reach'}",40,75,Left,25.548875821353207,38.792872261231,1.2774437910676604,0.6093570125376528,Right,Incorrect,0.0,0.0,-45,45,2005,657,-0.83
"{'cat': 'II', 'resp': 'reach'}",40,76,Left,42.92467109223429,68.63186275690123,2.1462335546117144,1.078066779196319,Right,Incorrect,0.0,0.0,-45,45,2002,1183,-0.84
"{'cat': 'II', 'resp': 'reach'}",40,77,Right,37.88662522654439,21.52033824977388,1.8943312613272196,0.33804068274128524,Left,Incorrect,0.0,0.0,-45,45,2003,563,-2.63
"{'cat': 'II', 'resp': 'reach'}",40,78,Left,20.0893168158497,36.75274965470548,1.004465840792485,0.5773108415722377,Right,Incorrect,0.0,0.0,-45,45,2001,550,-0.85
"{'cat': 'II', 'resp': 'reach'}",40,79,Right,84.83904600399029,65.2625876331386,4.2419523001995145,1.0251423293126416,Right,Correct,0.0,0.0,-45,45,2001,564,-0.84
"{'cat': 'II', 'resp': 'reach'}",40,80,Left,43.849531995339724,59.01079288771927,2.1924765997669864,0.9269393670928383,Left,Correct,0.0,0.0,-45,45,2012,541,-2.6
"{'cat': 'II', 'resp': 'reach'}",40,81,Right,80.12504881976106,55.16312821426065,4.006252440988053,0.8665003917347657,Left,Incorrect,0.0,0.0,-45,45,2010,531,-2.58
"{'cat': 'II', 'resp': 'reach'}",40,82,Right,57.94746495414674,40.567239054137154,2.8973732477073373,0.6372287009444912,Right,Correct,0.0,0.0,-45,45,2003,563,-0.85
"{'cat': 'II', 'resp': 'reach'}",40,83,Left,15.67683793187215,45.16737114204195,0.7838418965936075,0.709487406809013,Right,Incorrect,0.0,0.0,-45,45,2005,472,-0.85
"{'cat': 'II', 'resp': 'reach'}",40,84,Left,26.98460381398882,45.33590120657798,1.349230190699441,0.7121346708722901,Left,Correct,0.0,0.0,-45,45,2006,779,-2.63
"{'cat': 'II', 'resp': 'reach'}",40,85,Right,58.85942971866488,37.25450089931118,2.942971485933244,0.5851923316921518,Left,Incorrect,0.0,0.0,-45,45,2009,615,-2.53
"{'cat': 'II', 'resp': 'reach'}",40,86,Left,36.76560429652565,55.17528578640633,1.8382802148262827,0.8666913624314573,Left,Correct,0.0,0.0,-45,45,2013,1056,-2.52
"{'cat': 'II', 'resp': 'reach'}",40,87,Right,71.60577093061174,51.48759460508028,3.5802885465305874,0.8087652448116485,Right,Correct,0.0,0.0,-45,45,2007,574,-0.84
"{'cat': 'II', 'resp': 'reach'}",40,88,Right,39.369904479042376,14.644920029868281,1.9684952239521187,0.23004186589122103,Left,Incorrect,0.0,0.0,-45,45,2003,593,-2.56
"{'cat': 'II', 'resp': 'reach'}",40,89,Right,82.3165307847876,64.2741134326271,4.11582653923938,1.0096154128796917,Left,Incorrect,0.0,0.0,-45,45,2007,923,-2.48
"{'cat': 'II', 'resp': 'reach'}",40,90,Right,87.23568486796006,69.95160376586455,4.361784243398003,1.098797222488321,Right,Correct,0.0,0.0,-45,45,2006,646,-0.86
"{'cat': 'II', 'resp': 'reach'}",40,91,Left,54.01993369800055,74.72305361894718,2.7009966849000273,1.1737469815154031,Left,Correct,0.0,0.0,-45,45,2009,552,-2.52
"{'cat': 'II', 'resp': 'reach'}",40,92,Left,32.57991123400339,49.75438445977796,1.6289955617001695,0.7815400435136028,Left,Correct,0.0,0.0,-45,45,2005,584,-2.53
"{'cat': 'II', 'resp': 'reach'}",40,93,Left,29.483268327731416,53.57802340675581,1.474163416386571,0.8416016236426301,Right,Incorrect,0.0,0.0,-45,45,2005,448,-0.86
"{'cat': 'II', 'resp': 'reach'}",40,94,Right,57.09998096519368,45.72702220921586,2.854999048259684,0.7182783852150493,Right,Correct,0.0,0.0,-45,45,2013,470,-0.89
"{'cat': 'II', 'resp': 'reach'}",40,95,Left,65.37827881037994,80.26829488581745,3.268913940518997,1.2608514276473162,Right,Incorrect,0.0,0.0,-45,45,2013,881,-0.9
"{'cat': 'II', 'resp': 'reach'}",40,96,Right,72.76543029709418,42.96756519089676,3.6382715148547096,0.6749329357318088,Left,Incorrect,0.0,0.0,-45,45,2005,548,-2.5
"{'cat': 'II', 'resp': 'reach'}",40,97,Right,39.65883059552685,17.278679603159837,1.9829415297763426,0.2714128645250937,Left,Incorrect,0.0,0.0,-45,45,2009,934,-2.48
"{'cat': 'II', 'resp': 'reach'}",40,98,Left,41.46023296978592,52.20424331949154,2.073011648489296,0.8200223364936431,Left,Correct,0.0,0.0,-45,45,2002,623,-2.51
"{'cat': 'II', 'resp': 'reach'}",40,99,Left,46.64458248437675,70.5355634272815,2.3322291242188373,1.1079700393998224,Right,Incorrect,0.0,0.0,-45,45,2011,459,-0.88
"{'cat': 'II', 'resp': 'reach'}",40,100,Left,29.155484352406987,44.14067809784288,1.4577742176203492,0.6933601501832755,Left,Correct,0.0,0.0,-45,45,2002,873,-2.53
"{'cat': 'II', 'resp': 'reach'}",40,101,Left,24.26709861716178,55.596801672352235,1.2133549308580889,0.8733125184847527,Left,Correct,0.0,0.0,-45,45,2012,551,-2.52
"{'cat': 'II', 'resp': 'reach'}",40,102,Left,34.491755791157004,47.8305572393983,1.7245877895578503,0.7513206362019991,Right,Incorrect,0.0,0.0,-45,45,2001,417,-0.86
"{'cat': 'II', 'resp': 'reach'}",40,103,Left,54.22793887364243,84.30478500209834,2.7113969436821215,1.3242564661252954,Right,Incorrect,0.0,0.0,-45,45,2010,557,-0.91
"{'cat': 'II', 'resp': 'reach'}",40,104,Left,20.518365947646377,33.910996670607844,1.0259182973823189,0.5326726900814477,Right,Incorrect,0.0,0.0,-45,45,2013,642,-0.85
"{'cat': 'II', 'resp': 'reach'}",40,105,Right,79.06881466889661,66.8635006653241,3.9534407334448303,1.050289412417392,Right,Correct,0.0,0.0,-45,45,2005,1276,-0.85
"{'cat': 'II', 'resp': 'reach'}",40,106,Left,42.63926456048236,63.074586031825575,2.131963228024118,0.990773280529003,Right,Incorrect,0.0,0.0,-45,45,2001,620,-0.89
"{'cat': 'II', 'resp': 'reach'}",40,107,Right,60.48289175123305,46.729120121965224,3.0241445875616524,0.7340193024194047,Right,Correct,0.0,0.0,-45,45,2007,669,-0.86
"{'cat': 'II', 'resp': 'reach'}",40,108,Left,57.87164380659334,67.32116939885287,2.893582190329667,1.057478456072551,Right,Incorrect,0.0,0.0,-45,45,2006,590,-0.86
"{'cat': 'II', 'resp': 'reach'}",40,109,Left,26.6619693685304,44.743850680689185,1.3330984684265201,0.702834762958859,Left,Correct,0.0,0.0,-45,45,2005,732,-2.59
"{'cat': 'II', 'resp': 'reach'}",40,110,Right,81.40746682813118,58.207000914251495,4.070373341406559,0.9143134322985343,Right,Correct,0.0,0.0,-45,45,2012,1114,-0.87
"{'cat': 'II', 'resp': 'reach'}",40,111,Right,62.985064077043766,31.286760661650817,3.1492532038521883,0.4914512872463217,Left,Incorrect,0.0,0.0,-45,45,2003,623,-2.58
"{'cat': 'II', 'resp': 'reach'}",40,112,Left,28.84339981016315,39.32499503391817,1.4421699905081573,0.6177155775050621,Left,Correct,0.0,0.0,-45,45,2002,1289,-2.6
"{'cat': 'II', 'resp': 'reach'}",40,113,Right,84.66213629864419,67.52059663255457,4.23310681493221,1.0606110517341658,Right,Correct,0.0,0.0,-45,45,2003,499,-0.92
"{'cat': 'II', 'resp': 'reach'}",40,114,Left,24.906251525955444,42.66715994753403,1.2453125762977721,0.6702141812035679,Left,Correct,0.0,0.0,-45,45,2011,547,-2.59
"{'cat': 'II', 'resp': 'reach'}",40,115,Left,44.80460180113698,74.89223759531191,2.240230090056849,1.1764045172016662,Left,Correct,0.0,0.0,-45,45,2007,561,-2.52
"{'cat': 'II', 'resp': 'reach'}",40,116,Right,50.40156341724965,23.66819690240525,2.520078170862482,0.37177916756156515,Right,Correct,0.0,0.0,-45,45,2003,541,-0.89
"{'cat': 'II', 'resp': 'reach'}",40,117,Left,44.32232160960062,51.102407091587025,2.216116080480031,0.8027147334984237,Left,Correct,0.0,0.0,-45,45,2001,549,-2.5
"{'cat': 'II', 'resp': 'reach'}",40,118,Left,22.75982069671716,46.109448829937456,1.137991034835858,0.72428552852603,Right,Incorrect,0.0,0.0,-45,45,2001,541,-0.83
"{'cat': 'II', 'resp': 'reach'}",40,119,Right,70.73225283308437,39.02666462581854,3.5366126416542185,0.6130294144129208,Right,Correct,0.0,0.0,-45,45,2004,586,-0.9
"{'cat': 'II', 'resp': 'reach'}",40,120,Left,40.45163804385199,59.469643355099954,2.0225819021926,0.9341469733799355,Right,Incorrect,0.0,0.0,-45,45,2001,500,-0.88
"{'cat': 'II', 'resp': 'reach'}",40,121,Left,62.142781090167205,83.84186471813199,3.10713905450836,1.3169849313087636,Right,Incorrect,0.0,0.0,-45,45,2004,590,-0.88
"{'cat': 'II', 'resp': 'reach'}",40,122,Left,38.04039825636014,65.72698191239512,1.902019912818007,1.0324370175930486,Right,Incorrect,0.0,0.0,-45,45,2006,855,-0.97
"{'cat': 'II', 'resp': 'reach'}",40,123,Right,80.92545577186853,53.48801233235129,4.046272788593426,0.8401877329921755,Right,Correct,0.0,0.0,-45,45,2006,1427,-0.87
"{'cat': 'II', 'resp': 'reach'}",40,124,Left,45.67104769092034,55.15640303233172,2.283552384546017,0.8663947528240554,Left,Correct,0.0,0.0,-45,45,2004,983,-2.6
"{'cat': 'II', 'resp': 'reach'}",40,125,Left,21.915426993793105,47.47656146310924,1.0957713496896553,0.7457600835510415,Right,Incorrect,0.0,0.0,-45,45,2003,522,-0.89
"{'cat': 'II', 'resp': 'reach'}",40,126,Left,14.85887854581269,42.49662238692186,0.7429439272906344,0.6675353834656663,Right,Incorrect,0.0,0.0,-45,45,2006,624,-0.91
"{'cat': 'II', 'resp': 'reach'}",40,127,Right,45.468137713398455,30.327594484092103,2.2734068856699228,0.4763847401613704,Left,Incorrect,0.0,0.0,-45,45,2013,652,-2.57
"{'cat': 'II', 'resp': 'reach'}",40,128,Left,29.11854720309004,47.99868216576412,1.4559273601545017,0.7539615363697799,Left,Correct,0.0,0.0,-45,45,2012,611,-2.61
"{'cat': 'II', 'resp': 'reach'}",40,129,Right,61.40239447746615,49.650898606881285,3.070119723873308,0.7799144915375495,Right,Correct,0.0,0.0,-45,45,2012,1470,-0.86
"{'cat': 'II', 'resp': 'reach'}",40,130,Right,50.576678052564944,21.014746818179397,2.5288339026282474,0.33009887110520936,Left,Incorrect,0.0,0.0,-45,45,2009,612,-2.62
"{'cat': 'II', 'resp': 'reach'}",40,131,Right,78.28066301359516,51.92513888468825,3.914033150679758,0.8156381742838316,Right,Correct,0.0,0.0,-45,45,2007,3334,-0.87
"{'cat': 'II', 'resp': 'reach'}",40,132,Right,65.70488101921687,48.64660409659506,3.2852440509608436,0.7641390702597709,Right,Correct,0.0,0.0,-45,45,2008,4222,-0.85
"{'cat': 'II', 'resp': 'reach'}",40,133,Right,65.5441593619509,40.58686708839391,3.277207968097545,0.6375370173856184,Left,Incorrect,0.0,0.0,-45,45,2004,2674,-2.72
"{'cat': 'II', 'resp': 'reach'}",40,134,Right,71.8820788668234,44.500810792402504,3.59410394334117,0.6990171013210055,Left,Incorrect,0.0,0.0,-45,45,2007,3523,-2.71
"{'cat': 'II', 'resp': 'reach'}",40,135,Right,80.83699228631446,64.10802415277332,4.041849614315723,1.0070064885725485,Right,Correct,0.0,0.0,-45,45,2002,437,-0.88
"{'cat': 'II', 'resp': 'reach'}",40,136,Left,38.77059058327828,65.2275603976703,1.938529529163914,1.0245921227845278,Right,Incorrect,0.0,0.0,-45,45,2005,382,-0.85
"{'cat': 'II', 'resp': 'reach'}",40,137,Right,37.707931759362026,26.874055301937986,1.8853965879681014,0.422136673543671,Left,Incorrect,0.0,0.0,-45,45,2007,591,-2.65
"{'cat': 'II', 'resp': 'reach'}",40,138,Left,19.244809396233993,35.98813748034878,0.9622404698116996,0.5653003416232162,Right,Incorrect,0.0,0.0,-45,45,2006,458,-0.86
"{'cat': 'II', 'resp': 'reach'}",40,139,Right,46.53760729479315,21.598966036319705,2.326880364739657,0.3392757651241872,Right,Correct,0.0,0.0,-45,45,2009,529,-0.85
"{'cat': 'II', 'resp': 'reach'}",40,140,Right,74.26047759284674,54.175806814317546,3.7130238796423374,0.8509915834507993,Right,Correct,0.0,0.0,-45,45,2003,1940,-0.87
"{'cat': 'II', 'resp': 'reach'}",40,141,Right,30.812383093678402,11.453035633085651,1.54061915468392,0.17990386303102004,Left,Incorrect,0.0,0.0,-45,45,2011,625,-2.57
"{'cat': 'II', 'resp': 'reach'}",40,142,Right,62.355485342232555,51.13354937311196,3.1177742671116278,0.8032039153126976,Right,Correct,0.0,0.0,-45,45,2012,525,-0.87
"{'cat': 'II', 'resp': 'reach'}",40,143,Left,28.046185735477422,43.52830044675234,1.4023092867738711,0.6837409445338324,Left,Correct,0.0,0.0,-45,45,2003,500,-2.58
"{'cat': 'II', 'resp': 'reach'}",40,144,Left,13.05725762513114,40.27772547939573,0.652862881256557,0.6326810323468802,Right,Incorrect,0.0,0.0,-45,45,2005,519,-0.86
"{'cat': 'II', 'resp': 'reach'}",40,145,Left,56.183507912658044,75.91965765489212,2.809175395632902,1.1925431937583058,Right,Incorrect,0.0,0.0,-45,45,2007,653,-0.86
"{'cat': 'II', 'resp': 'reach'}",40,146,Left,55.4272435676192,62.9303224944311,2.77136217838096,0.9885071941827063,Left,Correct,0.0,0.0,-45,45,2008,576,-2.85
"{'cat': 'II', 'resp': 'reach'}",40,147,Left,38.50989801862651,48.003371709945604,1.9254949009313254,0.7540351995575261,Right,Incorrect,0.0,0.0,-45,45,2008,512,-0.89
"{'cat': 'II', 'resp': 'reach'}",40,148,Right,60.66105283510855,52.580492512732185,3.033052641755427,0.8259324450006628,Right,Correct,0.0,0.0,-45,45,2001,1137,-1.18
"{'cat': 'II', 'resp': 'reach'}",40,149,Left,54.77819463621987,73.0464114216277,2.7389097318109936,1.1474103474664157,Left,Correct,0.0,0.0,-45,45,2001,741,-2.86
"{'cat': 'II', 'resp': 'reach'}",40,150,Right,62.382724799748615,39.69835851055257,3.119136239987431,0.623580357281629,Left,Incorrect,0.0,0.0,-45,45,2003,571,-2.61
"{'cat': 'II', 'resp': 'reach'}",40,151,Right,40.32660108258778,24.156951263896126,2.016330054129389,0.3794565031189136,Right,Correct,0.0,0.0,-45,45,2002,532,-0.74
"{'cat': 'II', 'resp': 'reach'}",40,152,Right,62.946332894582426,42.42632607924432,3.1473166447291216,0.6664311716467951,Right,Correct,0.0,0.0,-45,45,2006,727,-0.99
"{'cat': 'II', 'resp': 'reach'}",40,153,Right,83.41924716478886,58.798142904838215,4.170962358239443,0.9235990689728127,Left,Incorrect,0.0,0.0,-45,45,2007,571,-2.8
"{'cat': 'II', 'resp': 'reach'}",40,154,Left,45.159873696267084,74.86090628210245,2.2579936848133544,1.1759123660846351,Right,Incorrect,0.0,0.0,-45,45,2004,1181,-0.99
"{'cat': 'II', 'resp': 'reach'}",40,155,Right,40.319216431392846,13.755099887721403,2.0159608215696423,0.21606460378329678,Right,Correct,0.0,0.0,-45,45,2001,736,-0.81
"{'cat': 'II', 'resp': 'reach'}",40,156,Left,18.776704054843606,34.216897390444664,0.9388352027421802,0.5374777673522836,Left,Correct,0.0,0.0,-45,45,2002,903,-2.79
"{'cat': 'II', 'resp': 'reach'}",40,157,Right,86.6422548058378,66.27659510530586,4.3321127402918895,1.0410703214388708,Left,Incorrect,0.0,0.0,-45,45,2008,1127,-2.76
"{'cat': 'II', 'resp': 'reach'}",40,158,Left,43.12577628271191,74.34175040126593,2.1562888141355954,1.1677574845781156,Right,Incorrect,0.0,0.0,-45,45,2006,980,-0.77
"{'cat': 'II', 'resp': 'reach'}",40,159,Left,49.82048600809346,71.74208486353069,2.491024300404673,1.1269220338024175,Left,Correct,0.0,0.0,-45,45,2002,1382,-2.61
"{'cat': 'II', 'resp': 'reach'}",40,160,Left,50.75591129378729,78.96926497403098,2.5377955646893646,1.2404463135090074,Right,Incorrect,0.0,0.0,-45,45,2008,498,-0.85
"{'cat': 'II', 'resp': 'reach'}",40,161,Right,79.38461183326142,57.32261167066148,3.969230591663071,0.9004214785456534,Right,Correct,0.0,0.0,-45,45,2005,547,-0.84
"{'cat': 'II', 'resp': 'reach'}",40,162,Right,34.5710207172272,22.70908059792661,1.72855103586136,0.35671340388112366,Right,Correct,0.0,0.0,-45,45,2009,474,-0.84
"{'cat': 'II', 'resp': 'reach'}",40,163,Left,56.4698690429573,80.602751443905,2.8234934521478645,1.2661050589764804,Left,Correct,0.0,0.0,-45,45,2005,540,-2.56
"{'cat': 'II', 'resp': 'reach'}",40,164,Right,49.69954353929256,31.801001442527895,2.484977176964628,0.4995289625432203,Right,Correct,0.0,0.0,-45,45,2001,512,-0.83
"{'cat': 'II', 'resp': 'reach'}",40,165,Right,69.4960484591112,41.47890016079893,3.47480242295556,0.6515490401207521,Left,Incorrect,0.0,0.0,-45,45,2008,542,-2.6
"{'cat': 'II', 'resp': 'reach'}",40,166,Left,25.978384142573493,48.70325351231824,1.2989192071286746,0.7650289172011014,Left,Correct,0.0,0.0,-45,45,2006,533,-2.55
"{'cat': 'II', 'resp': 'reach'}",40,167,Left,28.331765495722905,45.53022457158636,1.4165882747861451,0.715187095151946,Left,Correct,0.0,0.0,-45,45,2004,542,-2.68
"{'cat': 'II', 'resp': 'reach'}",40,168,Right,43.707140801409054,27.815870009545492,2.1853570400704525,0.4369306643759839,Left,Incorrect,0.0,0.0,-45,45,2011,498,-2.57
"{'cat': 'II', 'resp': 'reach'}",40,169,Right,38.309585650527936,13.972897829975317,1.9154792825263969,0.21948576586005608,Right,Correct,0.0,0.0,-45,45,2009,594,-0.81
"{'cat': 'II', 'resp': 'reach'}",40,170,Left,33.43835765335667,50.54228500023603,1.6719178826678334,0.7939163562619154,Left,Correct,0.0,0.0,-45,45,2001,773,-2.57
"{'cat': 'II', 'resp': 'reach'}",40,171,Left,42.53330967714052,61.542819189832116,2.126665483857026,0.9667123432399075,Right,Incorrect,0.0,0.0,-45,45,2012,885,-0.88
"{'cat': 'II', 'resp': 'reach'}",40,172,Right,41.537243530718385,22.568457581981026,2.0768621765359194,0.3545045027120223,Right,Correct,0.0,0.0,-45,45,2013,881,-0.92
"{'cat': 'II', 'resp': 'reach'}",40,173,Right,53.15819404288763,22.34725342493462,2.657909702144382,0.35102983593841974,Left,Incorrect,0.0,0.0,-45,45,2004,502,-2.55
"{'cat': 'II', 'resp': 'reach'}",40,174,Right,82.07483313398203,63.48707237743397,4.103741656699101,0.9972526008943502,Left,Incorrect,0.0,0.0,-45,45,2012,1647,-2.66
"{'cat': 'II', 'resp': 'reach'}",40,175,Right,70.52710068474109,38.503366759827124,3.526355034237054,0.6048094707557317,Right,Correct,0.0,0.0,-45,45,2012,1280,-0.89
"{'cat': 'II', 'resp': 'reach'}",40,176,Left,38.480749532514054,48.587626182892365,1.9240374766257025,0.7632126473577087,Left,Correct,0.0,0.0,-45,45,2008,688,-2.57
"{'cat': 'II', 'resp': 'reach'}",40,177,Left,63.85802250573842,85.8974722941112,3.192901125286921,1.3492743396055626,Left,Correct,0.0,0.0,-45,45,2006,581,-2.59
"{'cat': 'II', 'resp': 'reach'}",40,178,Right,54.113931914334316,30.916507678679814,2.705696595716716,0.4856353669899646,Right,Correct,0.0,0.0,-45,45,2008,460,-0.86
"{'cat': 'II', 'resp': 'reach'}",40,179,Left,29.648566379172856,62.733474258887426,1.4824283189586427,0.9854151093294257,Left,Correct,0.0,0.0,-45,45,2006,586,-2.6
"{'cat': 'II', 'resp': 'reach'}",40,180,Left,22.076021751478592,39.33791670393184,1.1038010875739297,0.6179185506229974,Left,Correct,0.0,0.0,-45,45,2009,626,-2.6
"{'cat': 'II', 'resp': 'reach'}",40,181,Right,77.02976447813377,65.07037366948549,3.8514882239066885,1.0221230394319918,Left,Incorrect,0.0,0.0,-45,45,2002,586,-2.59
"{'cat': 'II', 'resp': 'reach'}",40,182,Left,66.54249612499798,86.09339831321017,3.327124806249899,1.3523519383168048,Right,Incorrect,0.0,0.0,-45,45,2005,480,-0.86
"{'cat': 'II', 'resp': 'reach'}",40,183,Left,45.630526904548994,52.774177843933415,2.2815263452274497,0.8289748470687122,Left,Correct,0.0,0.0,-45,45,2007,932,-2.58
"{'cat': 'II', 'resp': 'reach'}",40,184,Left,21.505649587531384,38.85917880928497,1.0752824793765692,0.6103985533589091,Left,Correct,0.0,0.0,-45,45,2007,542,-2.62
"{'cat': 'II', 'resp': 'reach'}",40,185,Right,64.3061638874514,35.52036612897126,3.2153081943725703,0.5579526064179792,Right,Correct,0.0,0.0,-45,45,2003,632,-0.85
"{'cat': 'II', 'resp': 'reach'}",40,186,Right,45.26759370553794,24.147927514515082,2.263379685276897,0.37931475839509704,Right,Correct,0.0,0.0,-45,45,2010,482,-0.86
"{'cat': 'II', 'resp': 'reach'}",40,187,Left,65.82429646842674,87.32959720790865,3.2912148234213365,1.3717701051466076,Right,Incorrect,0.0,0.0,-45,45,2013,478,-0.86
"{'cat': 'II', 'resp': 'reach'}",40,188,Left,44.52045881953343,71.42301447557266,2.226022940976671,1.1219100878684825,Left,Correct,0.0,0.0,-45,45,2005,542,-2.53
"{'cat': 'II', 'resp': 'reach'}",40,189,Left,15.911378138293774,36.164629368998774,0.7955689069146886,0.568072669727221,Right,Incorrect,0.0,0.0,-45,45,2005,574,-0.87
"{'cat': 'II', 'resp': 'reach'}",40,190,Right,63.28587544210469,33.81365765518515,3.1642937721052347,0.5311436924026498,Left,Incorrect,0.0,0.0,-45,45,2002,576,-2.49
"{'cat': 'II', 'resp': 'reach'}",40,191,Right,72.86446804590815,58.80510235428787,3.6432234022954075,0.9237083877491331,Right,Correct,0.0,0.0,-45,45,2005,520,-0.85
"{'cat': 'II', 'resp': 'reach'}",40,192,Left,32.145379723173924,64.02390838834192,1.6072689861586964,1.0056852012346047,Left,Correct,0.0,0.0,-45,45,2010,634,-2.56
"{'cat': 'II', 'resp': 'reach'}",40,193,Right,74.46698788478044,59.654759590213544,3.723349394239022,0.9370547724014006,Left,Incorrect,0.0,0.0,-45,45,2006,1584,-2.57
"{'cat': 'II', 'resp': 'reach'}",40,194,Right,54.469797511508624,25.77713276611821,2.723489875575431,0.4049062546432286,Left,Incorrect,0.0,0.0,-45,45,2001,585,-2.59
"{'cat': 'II', 'resp': 'reach'}",40,195,Left,36.03414622477941,54.889962982672095,1.8017073112389708,0.8622095223108918,Left,Correct,0.0,0.0,-45,45,2009,633,-2.57
"{'cat': 'II', 'resp': 'reach'}",40,196,Left,45.85754532133058,66.37956694394259,2.292877266066529,1.0426877992978094,Left,Correct,0.0,0.0,-45,45,2006,606,-2.5
"{'cat': 'II', 'resp': 'reach'}",40,197,Right,32.84427741176515,18.650208776365115,1.6422138705882574,0.2929567943987227,Right,Correct,0.0,0.0,-45,45,2011,520,-0.89
"{'cat': 'II', 'resp': 'reach'}",40,198,Right,72.53534244382314,55.34491549102436,3.626767122191157,0.8693558996007504,Left,Incorrect,0.0,0.0,-45,45,2003,554,-2.55
"{'cat': 'II', 'resp': 'reach'}",40,199,Left,40.33551789407756,59.366136324757896,2.016775894703878,0.9325210887493479,Right,Incorrect,0.0,0.0,-45,45,2008,510,-0.88
"{'cat': 'II', 'resp': 'reach'}",40,200,Left,32.68106569898358,41.7686521856818,1.6340532849491791,0.656100454284426,Right,Incorrect,0.0,0.0,-45,45,2008,600,-0.92
"{'cat': 'II', 'resp': 'reach'}",40,201,Left,50.57933217675236,74.28450307065982,2.528966608837618,1.1668582456117667,Right,Incorrect,0.0,0.0,-45,45,2008,623,-0.89
"{'cat': 'II', 'resp': 'reach'}",40,202,Right,78.79679413145581,52.524085196112594,3.939839706572791,0.8250464009431586,Right,Correct,0.0,0.0,-45,45,2001,698,-0.91
"{'cat': 'II', 'resp': 'reach'}",40,203,Right,70.04959831176139,49.11951617286337,3.502479915588069,0.7715675557827629,Left,Incorrect,0.0,0.0,-45,45,2008,604,-2.55
"{'cat': 'II', 'resp': 'reach'}",40,204,Right,74.05369840507755,57.3844058325916,3.702684920253878,0.9013921389714252,Left,Incorrect,0.0,0.0,-45,45,2006,583,-2.54
"{'cat': 'II', 'resp': 'reach'}",40,205,Left,45.920818397553184,71.08005164305862,2.296040919877659,1.1165228402930805,Left,Correct,0.0,0.0,-45,45,2007,572,-2.55
"{'cat': 'II', 'resp': 'reach'}",40,206,Right,68.21369009424923,42.40476987459458,3.4106845047124614,0.6660925675759605,Right,Correct,0.0,0.0,-45,45,2009,490,-0.85
"{'cat': 'II', 'resp': 'reach'}",40,207,Right,46.319778465804035,38.11452019727626,2.3159889232902016,0.5987014832343145,Right,Correct,0.0,0.0,-45,45,2004,513,-0.87
"{'cat': 'II', 'resp': 'reach'}",40,208,Left,41.89569483333076,49.381455346628634,2.094784741666538,0.7756820867027047,Right,Incorrect,0.0,0.0,-45,45,2002,494,-0.87
"{'cat': 'II', 'resp': 'reach'}",40,209,Right,40.430696175566894,32.05439475913281,2.0215348087783447,0.503509255452794,Right,Correct,0.0,0.0,-45,45,2013,469,-0.89
"{'cat': 'II', 'resp': 'reach'}",40,210,Right,83.87616385203737,56.39618144849415,4.193808192601868,0.8858691466455308,Left,Incorrect,0.0,0.0,-45,45,2011,491,-2.47
"{'cat': 'II', 'resp': 'reach'}",40,211,Right,45.53906109735043,16.76192689551131,2.2769530548675214,0.2632957319747375,Left,Incorrect,0.0,0.0,-45,45,2006,575,-2.58
"{'cat': 'II', 'resp': 'reach'}",40,212,Right,59.05478671261483,50.83560715562836,2.952739335630741,0.798523849904494,Left,Incorrect,0.0,0.0,-45,45,2003,1941,-2.55
"{'cat': 'II', 'resp': 'reach'}",40,213,Right,76.8477692191533,57.38465894909821,3.842388460957665,0.9013961149162136,Left,Incorrect,0.0,0.0,-45,45,2004,697,-2.51
"{'cat': 'II', 'resp': 'reach'}",40,214,Right,41.439891102659985,16.215834253419374,2.0719945551329992,0.25471772881186017,Left,Incorrect,0.0,0.0,-45,45,2002,890,-2.57
"{'cat': 'II', 'resp': 'reach'}",40,215,Right,86.07560643239995,60.19592349509881,4.303780321619997,0.9455553551412783,Left,Incorrect,0.0,0.0,-45,45,2007,1097,-2.58
"{'cat': 'II', 'resp': 'reach'}",40,216,Left,53.243639641206485,76.46317703124635,2.662181982060324,1.2010807761574966,Left,Correct,0.0,0.0,-45,45,2004,1170,-2.61
"{'cat': 'II', 'resp': 'reach'}",40,217,Right,43.25980313702428,21.86491074335801,2.162990156851214,0.3434532148136503,Left,Incorrect,0.0,0.0,-45,45,2007,586,-2.58
"{'cat': 'II', 'resp': 'reach'}",40,218,Right,44.727340321466265,21.218678603269076,2.2363670160733133,0.3333022240945653,Right,Correct,0.0,0.0,-45,45,2002,620,-0.88
"{'cat': 'II', 'resp': 'reach'}",40,219,Left,47.74658449972702,71.49101943682811,2.387329224986351,1.1229783073019215,Left,Correct,0.0,0.0,-45,45,2013,584,-2.54
"{'cat': 'II', 'resp': 'reach'}",40,220,Right,48.915609673127804,24.143185156152736,2.44578048365639,0.3792402656041379,Left,Incorrect,0.0,0.0,-45,45,2004,654,-2.61
"{'cat': 'II', 'resp': 'reach'}",40,221,Left,59.25117593927361,73.7700700369311,2.9625587969636804,1.1587775504141364,Left,Correct,0.0,0.0,-45,45,2007,657,-2.5
"{'cat': 'II', 'resp': 'reach'}",40,222,Right,81.4079736896654,54.34028252913889,4.070398684483269,0.8535751619376827,Left,Incorrect,0.0,0.0,-45,45,2006,572,-2.59
"{'cat': 'II', 'resp': 'reach'}",40,223,Left,20.08622095785958,46.79338087306668,1.004311047892979,0.7350287079372771,Right,Incorrect,0.0,0.0,-45,45,2007,728,-0.81
"{'cat': 'II', 'resp': 'reach'}",40,224,Left,53.73317790322636,76.09833746609365,2.686658895161318,1.1953498896693837,Right,Incorrect,0.0,0.0,-45,45,2012,582,-0.87
"{'cat': 'II', 'resp': 'reach'}",40,225,Right,62.70024637712627,32.3678097215857,3.1350123188563135,0.5084323661706296,Left,Incorrect,0.0,0.0,-45,45,2005,581,-2.48
"{'cat': 'II', 'resp': 'reach'}",40,226,Left,63.07364959132401,81.71061368340617,3.1536824795662004,1.2835073183405123,Left,Correct,0.0,0.0,-45,45,2002,1697,-2.66
"{'cat': 'II', 'resp': 'reach'}",40,227,Left,52.47937305756702,74.7180754186898,2.623968652878351,1.17366878412862,Right,Incorrect,0.0,0.0,-45,45,2009,505,-0.9
"{'cat': 'II', 'resp': 'reach'}",40,228,Right,69.96926094972623,45.64342130440402,3.4984630474863114,0.7169651852730976,Right,Correct,0.0,0.0,-45,45,2004,501,-0.92
"{'cat': 'II', 'resp': 'reach'}",40,229,Right,76.0228172088937,57.64606390899648,3.8011408604446846,0.9055022544243553,Right,Correct,0.0,0.0,-45,45,2005,731,-0.91
"{'cat': 'II', 'resp': 'reach'}",40,230,Right,52.217126244705625,41.16197710538661,2.6108563122352813,0.6465708244075692,Left,Incorrect,0.0,0.0,-45,45,2007,622,-2.57
"{'cat': 'II', 'resp': 'reach'}",40,231,Right,54.414399008019565,42.10022713195386,2.7207199504009782,0.6613088213610396,Left,Incorrect,0.0,0.0,-45,45,2008,658,-2.62
"{'cat': 'II', 'resp': 'reach'}",40,232,Left,35.91339592853891,66.39710807125654,1.7956697964269455,1.0429633346813354,Left,Correct,0.0,0.0,-45,45,2006,995,-2.55
"{'cat': 'II', 'resp': 'reach'}",40,233,Right,38.603439908869944,25.631744629338087,1.9301719954434973,0.4026225031310909,Right,Correct,0.0,0.0,-45,45,2008,830,-0.92
"{'cat': 'II', 'resp': 'reach'}",40,234,Right,49.49326310912214,20.750571242900225,2.474663155456107,0.32594921087243484,Right,Correct,0.0,0.0,-45,45,2006,522,-0.91
"{'cat': 'II', 'resp': 'reach'}",40,235,Right,67.73991276119708,39.55418264989002,3.3869956380598536,0.6213156481582167,Left,Incorrect,0.0,0.0,-45,45,2003,520,-2.52
"{'cat': 'II', 'resp': 'reach'}",40,236,Left,19.850847509625325,42.44911492503219,0.9925423754812662,0.6667891379993498,Right,Incorrect,0.0,0.0,-45,45,2004,548,-0.86
"{'cat': 'II', 'resp': 'reach'}",40,237,Right,85.69114622954402,66.54631586313046,4.284557311477201,1.0453070851953827,Right,Correct,0.0,0.0,-45,45,2010,578,-0.88
"{'cat': 'II', 'resp': 'reach'}",40,238,Left,38.50056215476729,68.2079203124485,1.9250281077383644,1.071407506851131,Right,Incorrect,0.0,0.0,-45,45,2008,1440,-0.93
"{'cat': 'II', 'resp': 'reach'}",40,239,Left,52.21922679443656,77.18386506086581,2.6109613397218276,1.2124013172544097,Right,Incorrect,0.0,0.0,-45,45,2002,1979,-0.97
"{'cat': 'II', 'resp': 'reach'}",40,240,Left,49.17774620187538,77.9380184629288,2.458887310093769,1.224247531192414,Right,Incorrect,0.0,0.0,-45,45,2010,570,-0.91
"{'cat': 'II', 'resp': 'reach'}",40,241,Right,48.28459013673207,30.173026398948963,2.4142295068366035,0.47395679035754473,Right,Correct,0.0,0.0,-45,45,2005,537,-0.9
"{'cat': 'II', 'resp': 'reach'}",40,242,Left,38.4537251117792,50.308980695231554,1.92268625558896,0.7902516208086509,Left,Correct,0.0,0.0,-45,45,2010,1705,-2.65
"{'cat': 'II', 'resp': 'reach'}",40,243,Right,39.94331739351162,31.6002406304394,1.997165869675581,0.49637541908129057,Right,Correct,0.0,0.0,-45,45,2012,500,-0.88
"{'cat': 'II', 'resp': 'reach'}",40,244,Left,40.541463593116575,69.3352437244457,2.027073179655829,1.0891154615978822,Right,Incorrect,0.0,0.0,-45,45,2003,511,-0.92
"{'cat': 'II', 'resp': 'reach'}",40,245,Left,31.795848141386948,47.15831978796145,1.5897924070693474,0.7407611550074893,Right,Incorrect,0.0,0.0,-45,45,2006,602,-0.88
"{'cat': 'II', 'resp': 'reach'}",40,246,Right,43.825379042096344,20.503897865416373,2.191268952104817,0.3220744745197376,Left,Incorrect,0.0,0.0,-45,45,2008,544,-2.57
"{'cat': 'II', 'resp': 'reach'}",40,247,Left,53.51914599416702,81.99307743995116,2.6759572997083514,1.287944248652848,Left,Correct,0.0,0.0,-45,45,2007,2297,-2.58
"{'cat': 'II', 'resp': 'reach'}",40,248,Left,34.29321556824141,48.47067309887856,1.7146607784120704,0.7613755526099464,Right,Incorrect,0.0,0.0,-45,45,2007,3952,-0.89
"{'cat': 'II', 'resp': 'reach'}",40,249,Left,47.32382503301315,62.01571113566324,2.3661912516506574,0.9741405125547319,Right,Incorrect,0.0,0.0,-45,45,2002,962,-0.89
"{'cat': 'II', 'resp': 'reach'}",40,250,Right,70.65998001252004,59.254862926241145,3.5329990006260017,0.9307732102927468,Right,Correct,0.0,0.0,-45,45,2004,564,-0.89
"{'cat': 'II', 'resp': 'reach'}",40,251,Right,48.64851025857466,35.34010639800755,2.432425512928733,0.5551210931853109,Left,Incorrect,0.0,0.0,-45,45,2006,2964,-2.68
"{'cat': 'II', 'resp': 'reach'}",40,252,Left,45.81377596648554,67.96583129478883,2.2906887983242767,1.0676047814541592,Left,Correct,0.0,0.0,-45,45,2011,995,-2.6
"{'cat': 'II', 'resp': 'reach'}",40,253,Left,22.198242049804872,45.25177059478068,1.1099121024902436,0.7108131503124681,Left,Correct,0.0,0.0,-45,45,2006,817,-2.56
"{'cat': 'II', 'resp': 'reach'}",40,254,Left,13.496293083300205,30.548583072974463,0.6748146541650102,0.47985602079817036,Right,Incorrect,0.0,0.0,-45,45,2002,483,-0.84
"{'cat': 'II', 'resp': 'reach'}",40,255,Right,68.3875053171323,48.03831312971589,3.419375265856615,0.7545840580958078,Right,Correct,0.0,0.0,-45,45,2011,1129,-0.84
"{'cat': 'II', 'resp': 'reach'}",40,256,Left,39.893931947271064,67.82529189215553,1.994696597363553,1.065397193679896,Right,Incorrect,0.0,0.0,-45,45,2008,594,-0.84
"{'cat': 'II', 'resp': 'reach'}",40,257,Left,54.20554428345865,72.24120770231431,2.7102772141729328,1.1347622370202253,Left,Correct,0.0,0.0,-45,45,2006,617,-2.55
"{'cat': 'II', 'resp': 'reach'}",40,258,Right,63.45812710467339,48.217672096083184,3.1729063552336694,0.7574014221512825,Right,Correct,0.0,0.0,-45,45,2004,695,-0.87
"{'cat': 'II', 'resp': 'reach'}",40,259,Right,35.773051472594425,12.00598389013355,1.7886525736297214,0.18858955394180485,Right,Correct,0.0,0.0,-45,45,2012,712,-0.83
"{'cat': 'II', 'resp': 'reach'}",40,260,Left,53.00689085276091,70.05380635518534,2.6503445426380456,1.1004026170072612,Right,Incorrect,0.0,0.0,-45,45,2004,510,-0.85
"{'cat': 'II', 'resp': 'reach'}",40,261,Right,76.93026433727549,47.98266763576556,3.846513216863775,0.7537099807208091,Right,Correct,0.0,0.0,-45,45,2005,645,-0.88
"{'cat': 'II', 'resp': 'reach'}",40,262,Right,69.23445600652455,56.68161242433038,3.461722800326228,0.8903526859295013,Left,Incorrect,0.0,0.0,-45,45,2005,543,-2.53
"{'cat': 'II', 'resp': 'reach'}",40,263,Right,65.58810830956055,54.59275191556816,3.2794054154780277,0.8575409417859953,Left,Incorrect,0.0,0.0,-45,45,2001,699,-2.61
"{'cat': 'II', 'resp': 'reach'}",40,264,Left,24.37246657576315,46.71876259996902,1.2186233287881576,0.7338566068443413,Left,Correct,0.0,0.0,-45,45,2011,1281,-2.58
"{'cat': 'II', 'resp': 'reach'}",40,265,Right,35.28494563211159,19.62691079724446,1.7642472816055794,0.3082987938664269,Right,Correct,0.0,0.0,-45,45,2001,483,-0.86
"{'cat': 'II', 'resp': 'reach'}",40,266,Right,82.69467128143597,63.34607433152124,4.134733564071798,0.9950378087683005,Right,Correct,0.0,0.0,-45,45,2003,635,-0.85
"{'cat': 'II', 'resp': 'reach'}",40,267,Left,25.885594197973475,36.908484418001976,1.2942797098986738,0.5797571175136418,Left,Correct,0.0,0.0,-45,45,2003,582,-2.53
"{'cat': 'II', 'resp': 'reach'}",40,268,Right,58.50487284125554,39.7277812023452,2.925243642062777,0.6240425278435517,Right,Correct,0.0,0.0,-45,45,2001,575,-0.85
"{'cat': 'II', 'resp': 'reach'}",40,269,Right,57.664494709383035,45.32017788139643,2.8832247354691516,0.7118876894578883,Left,Incorrect,0.0,0.0,-45,45,2007,593,-2.54
"{'cat': 'II', 'resp': 'reach'}",40,270,Right,51.80705058319445,20.904673639877892,2.5903525291597225,0.32836984566366295,Right,Correct,0.0,0.0,-45,45,2009,561,-0.84
"{'cat': 'II', 'resp': 'reach'}",40,271,Right,42.44945937073061,22.670522550587673,2.1224729685365302,0.3561077354898398,Left,Incorrect,0.0,0.0,-45,45,2006,604,-2.53
"{'cat': 'II', 'resp': 'reach'}",40,272,Left,31.332095989501013,51.18530691583395,1.5666047994750505,0.8040169208926138,Left,Correct,0.0,0.0,-45,45,2009,641,-2.57
"{'cat': 'II', 'resp': 'reach'}",40,273,Left,53.663527700490576,83.13115271082337,2.683176385024529,1.3058210932038696,Right,Incorrect,0.0,0.0,-45,45,2009,1112,-0.85
"{'cat': 'II', 'resp': 'reach'}",40,274,Left,21.658278946642834,49.07214966047255,1.0829139473321419,0.770823524345997,Right,Incorrect,0.0,0.0,-45,45,2002,476,-0.87
"{'cat': 'II', 'resp': 'reach'}",40,275,Left,47.73487406277352,62.001229211747976,2.386743703138676,0.9739130310258217,Left,Correct,0.0,0.0,-45,45,2012,628,-2.51
"{'cat': 'II', 'resp': 'reach'}",40,276,Right,66.75136863873661,53.747656128019216,3.3375684319368304,0.8442662081972779,Right,Correct,0.0,0.0,-45,45,2005,530,-0.88
"{'cat': 'II', 'resp': 'reach'}",40,277,Left,37.88921295784832,46.311595246492246,1.894460647892416,0.7274608370120202,Right,Incorrect,0.0,0.0,-45,45,2012,1116,-0.9
"{'cat': 'II', 'resp': 'reach'}",40,278,Right,54.09974285474532,28.855785097927352,2.704987142737266,0.453265612386072,Right,Correct,0.0,0.0,-45,45,2012,528,-0.9
"{'cat': 'II', 'resp': 'reach'}",40,279,Right,50.525469237968615,42.471906280110574,2.526273461898431,0.6671471437677479,Right,Correct,0.0,0.0,-45,45,2006,553,-0.92
"{'cat': 'II', 'resp': 'reach'}",40,280,Right,75.34947155440851,47.12779973338281,3.7674735777204256,0.7402817471112321,Right,Correct,0.0,0.0,-45,45,2003,490,-0.94
"{'cat': 'II', 'resp': 'reach'}",40,281,Left,15.300291822608138,36.99020237631278,0.7650145911304068,0.5810407402011196,Left,Correct,0.0,0.0,-45,45,2005,574,-2.55
"{'cat': 'II', 'resp': 'reach'}",40,282,Right,49.64940810948528,42.25227571539128,2.482470405474264,0.6636971949246183,Right,Correct,0.0,0.0,-45,45,2012,460,-0.86
"{'cat': 'II', 'resp': 'reach'}",40,283,Left,38.05360228523527,56.637468379031525,1.9026801142617638,0.8896592728874483,Right,Incorrect,0.0,0.0,-45,45,2003,467,-0.92
"{'cat': 'II', 'resp': 'reach'}",40,284,Left,24.957149496780314,49.67059824245999,1.2478574748390157,0.780223932689612,Left,Correct,0.0,0.0,-45,45,2006,515,-2.51
"{'cat': 'II', 'resp': 'reach'}",40,285,Right,43.335500641175855,32.99443841900732,2.166775032058793,0.518275426732371,Right,Correct,0.0,0.0,-45,45,2002,532,-0.85
"{'cat': 'II', 'resp': 'reach'}",40,286,Left,36.030345388967234,54.85442626235256,1.8015172694483619,0.8616513128134492,Left,Correct,0.0,0.0,-45,45,2003,527,-2.57
"{'cat': 'II', 'resp': 'reach'}",40,287,Left,66.65814849379656,85.22054283137061,3.332907424689828,1.3386411564698408,Left,Correct,0.0,0.0,-45,45,2004,566,-2.62
"{'cat': 'II', 'resp': 'reach'}",40,288,Right,51.37462730424688,27.031331701222065,2.568731365212344,0.42460716544654065,Left,Incorrect,0.0,0.0,-45,45,2003,529,-2.62
"{'cat': 'II', 'resp': 'reach'}",40,289,Left,44.835499436369176,65.03434553054518,2.2417749718184585,1.0215571107489048,Left,Correct,0.0,0.0,-45,45,2004,563,-2.53
"{'cat': 'II', 'resp': 'reach'}",40,290,Left,49.797248310368104,71.73650951022788,2.489862415518405,1.126834456357531,Left,Correct,0.0,0.0,-45,45,2004,527,-2.49
"{'cat': 'II', 'resp': 'reach'}",40,291,Left,51.01148709797116,76.56020077614892,2.550574354898558,1.2026048215785452,Left,Correct,0.0,0.0,-45,45,2002,594,-2.62
"{'cat': 'II', 'resp': 'reach'}",40,292,Left,68.09188615946407,80.97241472036083,3.4045943079732037,1.271911716144558,Right,Incorrect,0.0,0.0,-45,45,2009,498,-0.82
"{'cat': 'II', 'resp': 'reach'}",40,293,Left,41.66439751237665,52.15319465226771,2.0832198756188323,0.8192204659040135,Right,Incorrect,0.0,0.0,-45,45,2005,490,-0.83
"{'cat': 'II', 'resp': 'reach'}",40,294,Right,76.93050525507398,62.85429353203462,3.846525262753699,0.9873129340340819,Right,Correct,0.0,0.0,-45,45,2002,448,-0.88
"{'cat': 'II', 'resp': 'reach'}",40,295,Right,73.77190730942813,41.839713053003656,3.6885953654714063,0.6572166757781063,Right,Correct,0.0,0.0,-45,45,2008,430,-0.89
"{'cat': 'II', 'resp': 'reach'}",40,296,Right,55.76814030816957,47.32470077951032,2.788407015408479,0.743374661511224,Left,Incorrect,0.0,0.0,-45,45,2004,547,-2.51
"{'cat': 'II', 'resp': 'reach'}",40,297,Right,44.768800590487345,25.326540746870087,2.238440029524367,0.3978283717560481,Left,Incorrect,0.0,0.0,-45,45,2003,601,-2.61
"{'cat': 'II', 'resp': 'reach'}",40,298,Left,15.483910680957404,44.078916100048026,0.7741955340478702,0.6923899949905586,Left,Correct,0.0,0.0,-45,45,2002,772,-2.6
"{'cat': 'II', 'resp': 'reach'}",40,299,Right,50.440878202368964,29.526698614589957,2.522043910118448,0.46380429726177863,Right,Correct,0.0,0.0,-45,45,2007,521,-0.89
"{'cat': 'II', 'resp': 'reach'}",40,300,Right,51.38492839092944,43.225094633334955,2.569246419546472,0.6789781987540434,Left,Incorrect,0.0,0.0,-45,45,2007,627,-2.62
"{'cat': 'II', 'resp': 'reach'}",40,301,Right,72.15469816674555,39.78457470723332,3.6077349083372776,0.6249346381321924,Left,Incorrect,0.0,0.0,-45,45,2006,574,-2.48
"{'cat': 'II', 'resp': 'reach'}",40,302,Left,27.607847734263224,37.62637500358376,1.3803923867131613,0.5910337164623669,Left,Correct,0.0,0.0,-45,45,2006,1070,-2.54
"{'cat': 'II', 'resp': 'reach'}",40,303,Right,58.89558052628899,47.77623203060316,2.9447790263144493,0.7504672978177213,Right,Correct,0.0,0.0,-45,45,2003,766,-0.87
"{'cat': 'II', 'resp': 'reach'}",40,304,Right,54.84742077782724,46.424107762418494,2.7423710388913616,0.7292281794793742,Right,Correct,0.0,0.0,-45,45,2011,527,-0.88
"{'cat': 'II', 'resp': 'reach'}",40,305,Right,49.531430164597246,22.091728168138367,2.4765715082298625,0.34701605459063095,Right,Correct,0.0,0.0,-45,45,2003,551,-0.88
"{'cat': 'II', 'resp': 'reach'}",40,306,Right,81.13106415300996,58.90547457900875,4.056553207650498,0.9252850309681709,Right,Correct,0.0,0.0,-45,45,2002,499,-0.89
"{'cat': 'II', 'resp': 'reach'}",40,307,Left,13.810597620529993,38.35614184979518,0.6905298810264996,0.6024968672768227,Left,Correct,0.0,0.0,-45,45,2008,603,-2.58
"{'cat': 'II', 'resp': 'reach'}",40,308,Right,63.11277867539545,43.67981642052594,3.155638933769773,0.6861209518843755,Left,Incorrect,0.0,0.0,-45,45,2008,645,-2.53
"{'cat': 'II', 'resp': 'reach'}",40,309,Right,62.543979287492135,44.11188553350045,3.1271989643746063,0.6929078776401945,Left,Incorrect,0.0,0.0,-45,45,2001,599,-2.55
"{'cat': 'II', 'resp': 'reach'}",40,310,Left,51.311492680313,74.2635629374039,2.5655746340156504,1.1665293187677566,Left,Correct,0.0,0.0,-45,45,2011,547,-2.5
"{'cat': 'II', 'resp': 'reach'}",40,311,Right,45.97136091658827,37.02170643097327,2.298568045829413,0.581535604734518,Left,Incorrect,0.0,0.0,-45,45,2001,755,-2.57
"{'cat': 'II', 'resp': 'reach'}",40,312,Left,66.66883774665935,81.45129264196996,3.333441887332967,1.279433912947026,Right,Incorrect,0.0,0.0,-45,45,2006,518,-0.89
"{'cat': 'II', 'resp': 'reach'}",40,313,Right,49.63136167846416,21.418837835741236,2.4815680839232077,0.33644631796597885,Right,Correct,0.0,0.0,-45,45,2010,551,-0.89
"{'cat': 'II', 'resp': 'reach'}",40,314,Right,35.730781951207206,20.38713427561906,1.7865390975603603,0.32024035634016756,Left,Incorrect,0.0,0.0,-45,45,2005,560,-2.58
"{'cat': 'II', 'resp': 'reach'}",40,315,Right,77.71195886432496,64.48836862811466,3.885597943216248,1.0129809256203774,Left,Incorrect,0.0,0.0,-45,45,2002,793,-2.49
"{'cat': 'II', 'resp': 'reach'}",40,316,Right,67.4681277982037,44.7722867324911,3.3734063899101847,0.703281435416049,Left,Incorrect,0.0,0.0,-45,45,2008,716,-2.51
"{'cat': 'II', 'resp': 'reach'}",40,317,Right,37.596159607921024,22.7689136183199,1.8798079803960512,0.3576532587676719,Left,Incorrect,0.0,0.0,-45,45,2006,707,-2.5
"{'cat': 'II', 'resp': 'reach'}",40,318,Left,34.808948204286274,65.63927111466342,1.7404474102143137,1.0310592596040766,Left,Correct,0.0,0.0,-45,45,2003,1037,-2.65
"{'cat': 'II', 'resp': 'reach'}",40,319,Right,58.68416784799195,40.884993658568725,2.9342083923995976,0.6422199785991238,Left,Incorrect,0.0,0.0,-45,45,2007,1105,-2.51
"{'cat': 'II', 'resp': 'reach'}",40,320,Right,52.4216775581604,39.08475488987677,2.62108387790802,0.6139418941469731,Right,Correct,0.0,0.0,-45,45,2009,523,-0.88
"{'cat': 'II', 'resp': 'reach'}",40,321,Left,63.46051165268991,85.46308576863107,3.1730255826344957,1.3424510120192288,Left,Correct,0.0,0.0,-45,45,2006,543,-2.53
"{'cat': 'II', 'resp': 'reach'}",40,322,Left,57.615562824886,76.35323886739688,2.8807781412443,1.1993538715180034,Right,Incorrect,0.0,0.0,-45,45,2001,590,-0.9
"{'cat': 'II', 'resp': 'reach'}",40,323,Right,63.28181001019168,43.67170999763218,3.164090500509584,0.6859936164913258,Left,Incorrect,0.0,0.0,-45,45,2012,615,-2.56
"{'cat': 'II', 'resp': 'reach'}",40,324,Left,44.13771631464642,65.05762085000356,2.206885815732321,1.0219227186120066,Right,Incorrect,0.0,0.0,-45,45,2012,469,-0.88
"{'cat': 'II', 'resp': 'reach'}",40,325,Left,17.064306656747696,35.171688704655914,0.8532153328373849,0.5524755942444707,Right,Incorrect,0.0,0.0,-45,45,2010,886,-0.92
"{'cat': 'II', 'resp': 'reach'}",40,326,Left,24.886062101853057,44.43305483690814,1.2443031050926527,0.6979527932609152,Left,Correct,0.0,0.0,-45,45,2007,1451,-2.58
"{'cat': 'II', 'resp': 'reach'}",40,327,Right,45.04685293411553,32.75275976432676,2.252342646705776,0.5144791473020015,Left,Incorrect,0.0,0.0,-45,45,2012,671,-2.57
"{'cat': 'II', 'resp': 'reach'}",40,328,Left,20.81964730738931,51.193222088812774,1.0409823653694656,0.8041412521390247,Right,Incorrect,0.0,0.0,-45,45,2009,633,-0.87
"{'cat': 'II', 'resp': 'reach'}",40,329,Right,41.84528009730457,23.57255583527248,2.0922640048652283,0.37027684119213616,Right,Correct,0.0,0.0,-45,45,2003,572,-0.92
"{'cat': 'II', 'resp': 'reach'}",40,330,Left,10.426647933592875,34.418488724854754,0.5213323966796437,0.5406443566283342,Right,Incorrect,0.0,0.0,-45,45,2009,550,-0.91
"{'cat': 'II', 'resp': 'reach'}",40,331,Left,13.221337961509956,36.5831239177062,0.6610668980754979,0.5746463667261542,Right,Incorrect,0.0,0.0,-45,45,2002,1355,-0.93
"{'cat': 'II', 'resp': 'reach'}",40,332,Left,49.475822246277076,59.2396298255873,2.4737911123138536,0.9305339293072192,Left,Correct,0.0,0.0,-45,45,2005,662,-2.59
"{'cat': 'II', 'resp': 'reach'}",40,333,Right,55.54249102254184,24.63857168723961,2.777124551127092,0.3870217790378872,Right,Correct,0.0,0.0,-45,45,2004,508,-0.86
"{'cat': 'II', 'resp': 'reach'}",40,334,Right,74.69211156708816,55.29400278603823,3.734605578354408,0.8685561647009562,Left,Incorrect,0.0,0.0,-45,45,2001,1011,-2.6
"{'cat': 'II', 'resp': 'reach'}",40,335,Right,62.494732149766875,35.707995165043116,3.124736607488344,0.5608998764245966,Left,Incorrect,0.0,0.0,-45,45,2010,664,-2.56
"{'cat': 'II', 'resp': 'reach'}",40,336,Left,28.960940575686827,43.934289750802165,1.4480470287843414,0.690118209609027,Left,Correct,0.0,0.0,-45,45,2007,1155,-2.58
"{'cat': 'II', 'resp': 'reach'}",40,337,Left,60.10021616258764,71.42593091095503,3.005010808129382,1.1219558991283423,Right,Incorrect,0.0,0.0,-45,45,2009,1799,-0.87
"{'cat': 'II', 'resp': 'reach'}",40,338,Right,65.68388162563899,34.015416012328735,3.2841940812819495,0.5343129052656629,Right,Correct,0.0,0.0,-45,45,2007,1128,-0.89
"{'cat': 'II', 'resp': 'reach'}",40,339,Right,34.59705918224037,21.86792333018057,1.7298529591120186,0.34350053641680056,Left,Incorrect,0.0,0.0,-45,45,2006,1126,-2.56
"{'cat': 'II', 'resp': 'reach'}",40,340,Right,69.55294432215696,53.52354535141467,3.477647216107848,0.8407458843504222,Right,Correct,0.0,0.0,-45,45,2007,1670,-0.89
"{'cat': 'II', 'resp': 'reach'}",40,341,Left,40.040310468235205,63.922024677134985,2.0020155234117603,1.0040848156413638,Right,Incorrect,0.0,0.0,-45,45,2012,587,-0.9
"{'cat': 'II', 'resp': 'reach'}",40,342,Left,50.43305589894871,69.53125073089669,2.5216527949474354,1.092194332455475,Left,Correct,0.0,0.0,-45,45,2001,593,-2.59
"{'cat': 'II', 'resp': 'reach'}",40,343,Right,67.38070459097796,58.348973445777425,3.369035229548898,0.9165435316088012,Right,Correct,0.0,0.0,-45,45,2011,533,-0.86
"{'cat': 'II', 'resp': 'reach'}",40,344,Right,66.89330758305,48.54991982608266,3.3446653791525,0.7626203572899736,Right,Correct,0.0,0.0,-45,45,2004,527,-0.89
"{'cat': 'II', 'resp': 'reach'}",40,345,Right,82.72649949680941,65.31009598229235,4.136324974840471,1.0258885887160696,Right,Correct,0.0,0.0,-45,45,2001,498,-0.89
"{'cat': 'II', 'resp': 'reach'}",40,346,Left,31.694466171868374,48.48950352888324,1.5847233085934187,0.7616713403127797,Left,Correct,0.0,0.0,-45,45,2009,610,-2.58
"{'cat': 'II', 'resp': 'reach'}",40,347,Left,24.596895955099118,37.103193585981444,1.2298447977549558,0.5828156019721962,Left,Correct,0.0,0.0,-45,45,2013,564,-2.49
"{'cat': 'II', 'resp': 'reach'}",40,348,Left,39.39133932973231,61.37782158405228,1.9695669664866156,0.9641205669090184,Right,Incorrect,0.0,0.0,-45,45,2001,522,-0.85
"{'cat': 'II', 'resp': 'reach'}",40,349,Left,39.061072662865534,55.34004125014066,1.9530536331432768,0.8692793352039901,Left,Correct,0.0,0.0,-45,45,2009,1008,-2.54
"{'cat': 'II', 'resp': 'reach'}",40,350,Left,58.62101868589682,81.52987387748571,2.931050934294841,1.2806682641080576,Left,Correct,0.0,0.0,-45,45,2002,654,-2.53
"{'cat': 'II', 'resp': 'reach'}",40,351,Left,20.269589281624825,40.37987604665649,1.0134794640812412,0.6342856097052124,Right,Incorrect,0.0,0.0,-45,45,2004,507,-0.82
"{'cat': 'II', 'resp': 'reach'}",40,352,Right,63.47417655216845,50.854655739837796,3.1737088276084227,0.798823064365562,Right,Correct,0.0,0.0,-45,45,2007,563,-0.88
"{'cat': 'II', 'resp': 'reach'}",40,353,Right,70.03310361706002,48.90693741681377,3.501655180853001,0.7682283764911896,Left,Incorrect,0.0,0.0,-45,45,2002,542,-2.5
"{'cat': 'II', 'resp': 'reach'}",40,354,Right,53.627524054686475,31.41023902754995,2.6813762027343238,0.49339088088225164,Right,Correct,0.0,0.0,-45,45,2008,1669,-0.86
"{'cat': 'II', 'resp': 'reach'}",40,355,Right,68.51005145005587,58.91795972600055,3.4255025725027934,0.925481147198513,Right,Correct,0.0,0.0,-45,45,2004,720,-0.94
"{'cat': 'II', 'resp': 'reach'}",40,356,Left,34.985863604688745,52.93107995840409,1.7492931802344374,0.8314394597194812,Left,Correct,0.0,0.0,-45,45,2003,537,-2.55
"{'cat': 'II', 'resp': 'reach'}",40,357,Right,80.86984260897898,62.78207105566395,4.043492130448949,0.9861784660281313,Right,Correct,0.0,0.0,-45,45,2009,468,-0.85
"{'cat': 'II', 'resp': 'reach'}",40,358,Right,33.949415150389456,15.234333328655776,1.6974707575194727,0.23930034833821562,Right,Correct,0.0,0.0,-45,45,2005,501,-0.88
"{'cat': 'II', 'resp': 'reach'}",40,359,Right,76.84381126343752,56.90325351674963,3.8421905631718754,0.8938342160678909,Right,Correct,0.0,0.0,-45,45,2002,523,-0.89
"{'cat': 'II', 'resp': 'reach'}",40,360,Left,39.7176378450566,59.068219592773396,1.98588189225283,0.9278414236664279,Right,Incorrect,0.0,0.0,-45,45,2003,540,-0.93
"{'cat': 'II', 'resp': 'reach'}",40,361,Left,59.8787948665814,77.59923811574755,2.9939397433290704,1.2189259819429876,Left,Correct,0.0,0.0,-45,45,2005,654,-2.56
"{'cat': 'II', 'resp': 'reach'}",40,362,Right,66.82730620435966,44.69947424331587,3.341365310217983,0.7021376995106365,Right,Correct,0.0,0.0,-45,45,2007,525,-0.91
"{'cat': 'II', 'resp': 'reach'}",40,363,Right,81.93482127250496,52.16533704046998,4.096741063625248,0.8194111980918799,Left,Incorrect,0.0,0.0,-45,45,2004,583,-2.57
"{'cat': 'II', 'resp': 'reach'}",40,364,Right,52.48422446350736,24.998838145191485,2.624211223175368,0.39268083132606935,Right,Correct,0.0,0.0,-45,45,2011,502,-0.85
"{'cat': 'II', 'resp': 'reach'}",40,365,Left,56.20926009232655,80.34402681030232,2.8104630046163277,1.2620410219353357,Right,Incorrect,0.0,0.0,-45,45,2009,501,-0.88
"{'cat': 'II', 'resp': 'reach'}",40,366,Left,44.84043515525279,73.79859598198281,2.2420217577626396,1.1592256349111922,Right,Incorrect,0.0,0.0,-45,45,2005,546,-0.88
"{'cat': 'II', 'resp': 'reach'}",40,367,Left,34.18820643067378,65.67553062857428,1.7094103215336889,1.0316288227167019,Left,Correct,0.0,0.0,-45,45,2007,533,-2.57
"{'cat': 'II', 'resp': 'reach'}",40,368,Left,54.2264426717556,68.53888005104527,2.71132213358778,1.0766062102681793,Right,Incorrect,0.0,0.0,-45,45,2001,531,-0.9
"{'cat': 'II', 'resp': 'reach'}",40,369,Left,24.175033933060874,37.07350089456737,1.2087516966530436,0.5823491902661373,Right,Incorrect,0.0,0.0,-45,45,2012,636,-0.92
"{'cat': 'II', 'resp': 'reach'}",40,370,Left,19.816818266940828,41.57905430105428,0.9908409133470414,0.653122257677016,Right,Incorrect,0.0,0.0,-45,45,2006,632,-0.9
"{'cat': 'II', 'resp': 'reach'}",40,371,Left,36.26488300044589,68.06475145180195,1.8132441500222944,1.069158615646981,Right,Incorrect,0.0,0.0,-45,45,2005,754,-0.89
"{'cat': 'II', 'resp': 'reach'}",40,372,Left,30.562011265564696,46.605766488592515,1.5281005632782347,0.7320816680774181,Right,Incorrect,0.0,0.0,-45,45,2009,656,-0.92
"{'cat': 'II', 'resp': 'reach'}",40,373,Left,24.243126460248575,45.120727627921866,1.2121563230124288,0.7087547322025267,Right,Incorrect,0.0,0.0,-45,45,2004,819,-0.92
"{'cat': 'II', 'resp': 'reach'}",40,374,Left,54.97824127860336,79.59796256076075,2.7489120639301685,1.2503218721080067,Right,Incorrect,0.0,0.0,-45,45,2011,571,-0.92
"{'cat': 'II', 'resp': 'reach'}",40,375,Right,55.0611906978103,34.4384145631511,2.753059534890515,0.5409573509643761,Right,Correct,0.0,0.0,-45,45,2008,591,-0.92
"{'cat': 'II', 'resp': 'reach'}",40,376,Right,50.5781570642301,28.718429892858612,2.528907853211505,0.4511080418701907,Right,Correct,0.0,0.0,-45,45,2007,476,-0.9
"{'cat': 'II', 'resp': 'reach'}",40,377,Left,54.11297126244489,75.65388676753696,2.7056485631222444,1.188368474422041,Left,Correct,0.0,0.0,-45,45,2012,602,-2.56
"{'cat': 'II', 'resp': 'reach'}",40,378,Right,46.0104326962495,28.30397537562535,2.300521634812475,0.44459780553725503,Right,Correct,0.0,0.0,-45,45,2010,499,-0.89
"{'cat': 'II', 'resp': 'reach'}",40,379,Left,32.39788159475781,54.5593238607588,1.6198940797378907,0.8570158551289309,Right,Incorrect,0.0,0.0,-45,45,2006,479,-0.91
"{'cat': 'II', 'resp': 'reach'}",40,380,Right,45.43550940171205,35.639842366424986,2.2717754700856028,0.5598293347672951,Right,Correct,0.0,0.0,-45,45,2003,595,-0.94
"{'cat': 'II', 'resp': 'reach'}",40,381,Left,55.101915521010156,80.56212962378231,2.7550957760505077,1.2654669729181158,Right,Incorrect,0.0,0.0,-45,45,2009,548,-0.95
"{'cat': 'II', 'resp': 'reach'}",40,382,Right,88.93237967336411,65.16379195219409,4.4466189836682055,1.0235904503853333,Right,Correct,0.0,0.0,-45,45,2004,553,-0.92
"{'cat': 'II', 'resp': 'reach'}",40,383,Left,15.213160344450706,40.5819206101908,0.7606580172225352,0.6374593182876982,Right,Incorrect,0.0,0.0,-45,45,2001,551,-0.92
"{'cat': 'II', 'resp': 'reach'}",40,384,Right,66.27456895008389,36.73186310031602,3.313728447504195,0.576982756343094,Right,Correct,0.0,0.0,-45,45,2002,561,-0.89
"{'cat': 'II', 'resp': 'reach'}",40,385,Right,59.93609337616767,28.609102642964615,2.996804668808384,0.44939073344466984,Right,Correct,0.0,0.0,-45,45,2001,508,-0.92
"{'cat': 'II', 'resp': 'reach'}",40,386,Left,30.786253881905743,50.04758857146087,1.539312694095287,0.7861456829299298,Right,Incorrect,0.0,0.0,-45,45,2003,499,-0.9
"{'cat': 'II', 'resp': 'reach'}",40,387,Right,83.99508890879082,64.7928108955485,4.199754445439541,1.0177630935744393,Left,Incorrect,0.0,0.0,-45,45,2010,572,-2.55
"{'cat': 'II', 'resp': 'reach'}",40,388,Left,36.86102538491794,55.22465054272265,1.8430512692458967,0.8674667822104054,Left,Correct,0.0,0.0,-45,45,2002,673,-2.59
"{'cat': 'II', 'resp': 'reach'}",40,389,Left,22.33499088587038,36.130679466429726,1.116749544293519,0.5675393859047161,Left,Correct,0.0,0.0,-45,45,2012,744,-2.55
"{'cat': 'II', 'resp': 'reach'}",40,390,Left,26.633456550349948,46.4212778356314,1.3316728275174972,0.7291837270933514,Right,Incorrect,0.0,0.0,-45,45,2004,581,-0.87
"{'cat': 'II', 'resp': 'reach'}",40,391,Left,23.389771037574,38.327073157390956,1.1694885518787002,0.60204025732429,Right,Incorrect,0.0,0.0,-45,45,2008,1042,-0.89
"{'cat': 'II', 'resp': 'reach'}",40,392,Left,45.237509417597515,75.91467355324559,2.261875470879876,1.1924649036727186,Right,Incorrect,0.0,0.0,-45,45,2001,579,-0.87
"{'cat': 'II', 'resp': 'reach'}",40,393,Right,72.71345329756241,52.90388896661976,3.6356726648781206,0.8310123446193137,Left,Incorrect,0.0,0.0,-45,45,2004,1026,-2.57
"{'cat': 'II', 'resp': 'reach'}",40,394,Right,85.2264650502159,68.67776192262355,4.2613232525107945,1.0787877616055148,Right,Correct,0.0,0.0,-45,45,2002,1953,-0.94
"{'cat': 'II', 'resp': 'reach'}",40,395,Right,56.82957307083729,34.2153992101387,2.8414786535418646,0.5374542339910687,Right,Correct,0.0,0.0,-45,45,2013,2838,-0.94
"{'cat': 'II', 'resp': 'reach'}",40,396,Left,24.6647006151995,48.71944402745453,1.233235030759975,0.7652832372181513,Left,Correct,0.0,0.0,-45,45,2003,981,-2.5
"{'cat': 'II', 'resp': 'reach'}",40,397,Right,38.45897431489285,23.078774387850387,1.9229487157446425,0.36252054035363523,Right,Correct,0.0,0.0,-45,45,2009,693,-0.91
"{'cat': 'II', 'resp': 'reach'}",40,398,Right,59.0081380993185,33.09967564883178,2.950406904965925,0.5199284892728744,Right,Correct,0.0,0.0,-45,45,2004,509,-0.91
"{'cat': 'II', 'resp': 'reach'}",40,399,Right,35.36535377753856,24.913676239833396,1.768267688876928,0.3913431112448759,Right,Correct,0.0,0.0,-45,45,2006,511,-0.9
