condition,subject,trial,cat,x,y,xt,yt,resp,fb,rotation,su,target_angle_left,target_angle_right,rt,mt,ep
"{'cat': 'II', 'resp': 'reach'}",20,0,Right,76.49601996567307,46.17972584747923,3.8248009982836537,0.7253894373361572,Right,Correct,0.0,0.0,-45,45,2004,1279,-0.8
"{'cat': 'II', 'resp': 'reach'}",20,1,Left,40.443890448694546,71.60589031714355,2.0221945224347273,1.1247826948704733,Right,Incorrect,0.0,0.0,-45,45,2012,930,-0.91
"{'cat': 'II', 'resp': 'reach'}",20,2,Left,61.65164284935783,72.11641096201622,3.082582142467891,1.132801934407663,Left,Correct,0.0,0.0,-45,45,2004,2075,-2.55
"{'cat': 'II', 'resp': 'reach'}",20,3,Left,16.561309434635774,43.04547187195421,0.8280654717317887,0.6761566910161873,Right,Incorrect,0.0,0.0,-45,45,2004,4150,-0.94
"{'cat': 'II', 'resp': 'reach'}",20,4,Left,47.5233938552613,62.29122601819112,2.376169692763065,0.978468290209253,Left,Correct,0.0,0.0,-45,45,2004,4933,-2.6
"{'cat': 'II', 'resp': 'reach'}",20,5,Right,34.54604731067489,18.807641657163632,1.7273023655337447,0.29542974430747315,Left,Incorrect,0.0,0.0,-45,45,2009,1470,-2.5
"{'cat': 'II', 'resp': 'reach'}",20,6,Left,52.554044261874935,67.27392734972364,2.627702213093747,1.0567363797001261,Left,Correct,0.0,0.0,-45,45,2013,950,-2.48
"{'cat': 'II', 'resp': 'reach'}",20,7,Left,36.19856544333653,65.51554553006467,1.8099282721668262,1.0291157826658939,Right,Incorrect,0.0,0.0,-45,45,2004,725,-0.87
"{'cat': 'II', 'resp': 'reach'}",20,8,Left,44.88815699333577,76.23907005410015,2.2444078496667883,1.197560511992393,Right,Incorrect,0.0,0.0,-45,45,2004,688,-0.91
"{'cat': 'II', 'resp': 'reach'}",20,9,Right,34.77187616193153,16.273230192518454,1.7385938080965764,0.255619302114958,Right,Correct,0.0,0.0,-45,45,2008,1296,-0.95
"{'cat': 'II', 'resp': 'reach'}",20,10,Right,54.528891551273645,32.35525265834808,2.7264445775636825,0.5082351202825397,Left,Incorrect,0.0,0.0,-45,45,2004,788,-2.4
"{'cat': 'II', 'resp': 'reach'}",20,11,Left,44.8105598424008,60.74652569847051,2.24052799212004,0.9542041943270928,Right,Incorrect,0.0,0.0,-45,45,2004,867,-0.9
"{'cat': 'II', 'resp': 'reach'}",20,12,Right,84.24462297550693,64.13399941500421,4.212231148775346,1.0074145070375464,Left,Incorrect,0.0,0.0,-45,45,2004,638,-2.64
"{'cat': 'II', 'resp': 'reach'}",20,13,Right,80.10794749136869,58.82061782750624,4.005397374568434,0.923952104232532,Right,Correct,0.0,0.0,-45,45,2017,533,-0.89
"{'cat': 'II', 'resp': 'reach'}",20,14,Left,43.14850068497972,62.46293629736389,2.1574250342489862,0.9811655089672282,Left,Correct,0.0,0.0,-45,45,2005,450,-2.64
"{'cat': 'II', 'resp': 'reach'}",20,15,Left,23.00490157436202,44.187209944040184,1.150245078718101,0.6940910707141325,Right,Incorrect,0.0,0.0,-45,45,2004,542,-0.93
"{'cat': 'II', 'resp': 'reach'}",20,16,Left,31.199219690638373,45.01983325850614,1.5599609845319184,0.7071698871538017,Left,Correct,0.0,0.0,-45,45,2004,404,-2.61
"{'cat': 'II', 'resp': 'reach'}",20,17,Right,57.74915405216559,47.558909631336576,2.8874577026082795,0.7470536055527393,Left,Incorrect,0.0,0.0,-45,45,2004,538,-2.56
"{'cat': 'II', 'resp': 'reach'}",20,18,Left,48.914508397716816,58.42138911928999,2.4457254198858407,0.9176810343483606,Right,Incorrect,0.0,0.0,-45,45,2004,483,-0.91
"{'cat': 'II', 'resp': 'reach'}",20,19,Right,60.0190588753187,35.86968434518106,3.0009529437659346,0.563439684127028,Right,Correct,0.0,0.0,-45,45,2005,416,-0.92
"{'cat': 'II', 'resp': 'reach'}",20,20,Right,50.96598446638597,31.655868284369554,2.5482992233192987,0.49724921622590756,Left,Incorrect,0.0,0.0,-45,45,2004,454,-2.54
"{'cat': 'II', 'resp': 'reach'}",20,21,Right,50.621145317174026,30.386862050066437,2.531057265858701,0.4773157129106761,Right,Correct,0.0,0.0,-45,45,2004,475,-0.94
"{'cat': 'II', 'resp': 'reach'}",20,22,Left,37.53725830159403,67.32615789320127,1.8768629150797014,1.057556815158538,Left,Correct,0.0,0.0,-45,45,2005,391,-2.42
"{'cat': 'II', 'resp': 'reach'}",20,23,Left,50.061319274773616,71.7792116387358,2.5030659637386807,1.1275052198235969,Left,Correct,0.0,0.0,-45,45,2004,417,-2.47
"{'cat': 'II', 'resp': 'reach'}",20,24,Right,53.63080948692087,22.98503341104321,2.681540474346043,0.36104806053324645,Right,Correct,0.0,0.0,-45,45,2013,454,-0.88
"{'cat': 'II', 'resp': 'reach'}",20,25,Left,36.05648223738495,60.078690151462744,1.8028241118692474,0.9437138580856642,Right,Incorrect,0.0,0.0,-45,45,2005,362,-0.9
"{'cat': 'II', 'resp': 'reach'}",20,26,Left,34.80268448558752,60.910659601073405,1.740134224279376,0.9567824036402041,Right,Incorrect,0.0,0.0,-45,45,2004,362,-0.89
"{'cat': 'II', 'resp': 'reach'}",20,27,Left,25.52801874990245,52.670765785513765,1.2764009374951226,0.8273504542535933,Right,Incorrect,0.0,0.0,-45,45,2004,384,-0.94
"{'cat': 'II', 'resp': 'reach'}",20,28,Left,50.924948621832485,63.17433457728963,2.546247431091624,0.9923401270171837,Left,Correct,0.0,0.0,-45,45,2004,383,-2.47
"{'cat': 'II', 'resp': 'reach'}",20,29,Left,16.936313331952817,38.608769779938484,0.8468156665976408,0.6064651375239718,Left,Correct,0.0,0.0,-45,45,2005,391,-2.49
"{'cat': 'II', 'resp': 'reach'}",20,30,Right,59.18726377142103,30.435074458385312,2.959363188571052,0.4780730316496082,Left,Incorrect,0.0,0.0,-45,45,2008,463,-2.47
"{'cat': 'II', 'resp': 'reach'}",20,31,Right,71.1961991000865,61.58612642004803,3.5598099550043254,0.9673926116213758,Right,Correct,0.0,0.0,-45,45,2004,938,-0.87
"{'cat': 'II', 'resp': 'reach'}",20,32,Right,46.326516776046965,21.454574450962816,2.316325838802348,0.3370076674052003,Right,Correct,0.0,0.0,-45,45,2004,362,-0.88
"{'cat': 'II', 'resp': 'reach'}",20,33,Right,84.28505688147455,56.599896245888246,4.2142528440737275,0.8890690912001351,Left,Incorrect,0.0,0.0,-45,45,2004,346,-2.52
"{'cat': 'II', 'resp': 'reach'}",20,34,Right,55.40071631249216,26.677526516974048,2.770035815624608,0.4190496066083628,Right,Correct,0.0,0.0,-45,45,2005,333,-0.8
"{'cat': 'II', 'resp': 'reach'}",20,35,Left,63.543171109735994,83.02276499167436,3.1771585554868,1.3041185428927802,Right,Incorrect,0.0,0.0,-45,45,2008,342,-0.85
"{'cat': 'II', 'resp': 'reach'}",20,36,Left,47.2313405749834,70.98714128330325,2.3615670287491697,1.1150634077748312,Left,Correct,0.0,0.0,-45,45,2004,520,-2.59
"{'cat': 'II', 'resp': 'reach'}",20,37,Left,53.289140637930345,68.35658622930254,2.6644570318965175,1.0737427456122703,Left,Correct,0.0,0.0,-45,45,2004,412,-2.54
"{'cat': 'II', 'resp': 'reach'}",20,38,Right,54.4613227175697,26.296642739450824,2.723066135878485,0.4130666982216704,Left,Incorrect,0.0,0.0,-45,45,2004,383,-2.52
"{'cat': 'II', 'resp': 'reach'}",20,39,Left,26.84457659581716,43.41886453538409,1.342228829790858,0.6820219292578653,Right,Incorrect,0.0,0.0,-45,45,2004,412,-0.83
"{'cat': 'II', 'resp': 'reach'}",20,40,Right,59.71515801962292,41.16604443755304,2.9857579009811457,0.6466347139118379,Right,Correct,0.0,0.0,-45,45,2004,295,-0.84
"{'cat': 'II', 'resp': 'reach'}",20,41,Left,21.584433103304765,38.77901291301809,1.0792216551652383,0.6091393104050068,Right,Incorrect,0.0,0.0,-45,45,2004,350,-0.87
"{'cat': 'II', 'resp': 'reach'}",20,42,Right,82.03450360521639,61.51182595011599,4.10172518026082,0.966225502568892,Left,Incorrect,0.0,0.0,-45,45,2009,412,-2.56
"{'cat': 'II', 'resp': 'reach'}",20,43,Right,66.533693542041,36.57395956658364,3.3266846771020493,0.5745024134353465,Left,Incorrect,0.0,0.0,-45,45,2004,454,-2.57
"{'cat': 'II', 'resp': 'reach'}",20,44,Right,70.64576444565671,47.59970435382133,3.5322882222828356,0.7476944075550558,Left,Incorrect,0.0,0.0,-45,45,2008,429,-2.48
"{'cat': 'II', 'resp': 'reach'}",20,45,Right,46.7699009903142,25.824100596223587,2.3384950495157097,0.40564402359329904,Right,Correct,0.0,0.0,-45,45,2004,454,-0.92
"{'cat': 'II', 'resp': 'reach'}",20,46,Left,54.75310879257107,73.83188052306272,2.7376554396285537,1.159748467259866,Left,Correct,0.0,0.0,-45,45,2004,312,-2.48
"{'cat': 'II', 'resp': 'reach'}",20,47,Left,49.84896524409082,70.09160279158944,2.492448262204541,1.100996322041956,Left,Correct,0.0,0.0,-45,45,2004,413,-2.43
"{'cat': 'II', 'resp': 'reach'}",20,48,Right,82.59065127302858,60.03732979149393,4.129532563651429,0.9430641710705249,Right,Correct,0.0,0.0,-45,45,2004,492,-0.92
"{'cat': 'II', 'resp': 'reach'}",20,49,Left,39.60903739340877,54.60210253303019,1.9804518696704383,0.8576878209416214,Left,Correct,0.0,0.0,-45,45,2004,351,-2.5
"{'cat': 'II', 'resp': 'reach'}",20,50,Left,14.834223610511188,41.94081731891203,0.7417111805255594,0.658804817873228,Left,Correct,0.0,0.0,-45,45,2004,404,-2.54
"{'cat': 'II', 'resp': 'reach'}",20,51,Right,48.897778399553886,21.580643083598314,2.444888919977694,0.3389879488558792,Left,Incorrect,0.0,0.0,-45,45,2005,375,-2.55
"{'cat': 'II', 'resp': 'reach'}",20,52,Right,65.78789779250303,38.95157179543019,3.2893948896251515,0.6118498589914944,Right,Correct,0.0,0.0,-45,45,2004,363,-0.89
"{'cat': 'II', 'resp': 'reach'}",20,53,Left,25.763823422060227,37.3485425244243,1.2881911711030114,0.5866695340850868,Right,Incorrect,0.0,0.0,-45,45,2005,383,-0.87
"{'cat': 'II', 'resp': 'reach'}",20,54,Right,49.072901946421794,37.142616677317584,2.4536450973210897,0.5834348584428133,Left,Incorrect,0.0,0.0,-45,45,2004,362,-2.45
"{'cat': 'II', 'resp': 'reach'}",20,55,Right,55.97652285708958,42.72547331681819,2.7988261428544785,0.6711301654663139,Right,Correct,0.0,0.0,-45,45,2004,329,-0.87
"{'cat': 'II', 'resp': 'reach'}",20,56,Left,10.877486793946886,35.71716906536388,0.5438743396973443,0.561043979713859,Left,Correct,0.0,0.0,-45,45,2008,350,-2.41
"{'cat': 'II', 'resp': 'reach'}",20,57,Left,26.672133125799675,53.21552382543591,1.333606656289984,0.8359074935346102,Right,Incorrect,0.0,0.0,-45,45,2004,412,-0.9
"{'cat': 'II', 'resp': 'reach'}",20,58,Right,58.10099006896833,49.199628245017706,2.9050495034484163,0.7728259532694826,Left,Incorrect,0.0,0.0,-45,45,2012,446,-2.42
"{'cat': 'II', 'resp': 'reach'}",20,59,Left,44.35953517199363,65.91196138741275,2.2179767585996815,1.03534266839195,Left,Correct,0.0,0.0,-45,45,2004,446,-2.46
"{'cat': 'II', 'resp': 'reach'}",20,60,Left,24.668576014448476,46.45003517803066,1.233428800722424,0.7296354463714431,Right,Incorrect,0.0,0.0,-45,45,2004,346,-0.91
"{'cat': 'II', 'resp': 'reach'}",20,61,Right,86.61822647700012,67.18326990324908,4.330911323850006,1.0553123358609378,Left,Incorrect,0.0,0.0,-45,45,2004,433,-2.5
"{'cat': 'II', 'resp': 'reach'}",20,62,Left,45.77817902468041,55.516959813654665,2.2889089512340206,0.8720583655010864,Right,Incorrect,0.0,0.0,-45,45,2008,521,-0.92
"{'cat': 'II', 'resp': 'reach'}",20,63,Right,61.613126607487274,53.78807116240894,3.0806563303743637,0.8449010460729446,Right,Correct,0.0,0.0,-45,45,2012,363,-0.87
"{'cat': 'II', 'resp': 'reach'}",20,64,Right,57.04909261397799,34.78361951446135,2.8524546306988996,0.5463798176594717,Right,Correct,0.0,0.0,-45,45,2004,583,-0.87
"{'cat': 'II', 'resp': 'reach'}",20,65,Left,64.51725582249767,89.59274358951428,3.2258627911248836,1.4073195253788606,Left,Correct,0.0,0.0,-45,45,2008,292,-2.53
"{'cat': 'II', 'resp': 'reach'}",20,66,Right,42.15236069025301,14.612875799381186,2.1076180345126505,0.22953851629578004,Right,Correct,0.0,0.0,-45,45,2012,434,-0.91
"{'cat': 'II', 'resp': 'reach'}",20,67,Right,57.149599202109236,27.835471447043318,2.8574799601054615,0.4372385630361987,Left,Incorrect,0.0,0.0,-45,45,2004,333,-2.54
"{'cat': 'II', 'resp': 'reach'}",20,68,Right,64.9651358775702,51.79068429371807,3.2482567938785105,0.8135261665076651,Left,Incorrect,0.0,0.0,-45,45,2005,350,-2.48
"{'cat': 'II', 'resp': 'reach'}",20,69,Left,14.378021205360849,34.01305013958941,0.7189010602680425,0.5342757422235768,Right,Incorrect,0.0,0.0,-45,45,2004,334,-0.96
"{'cat': 'II', 'resp': 'reach'}",20,70,Right,79.69218565814688,59.969103293247095,3.984609282907344,0.9419924717421627,Left,Incorrect,0.0,0.0,-45,45,2008,534,-2.53
"{'cat': 'II', 'resp': 'reach'}",20,71,Left,15.641029804864331,36.56643348785148,0.7820514902432165,0.57438419406707,Right,Incorrect,0.0,0.0,-45,45,2004,329,-0.86
"{'cat': 'II', 'resp': 'reach'}",20,72,Left,46.074457580921845,57.85960713799795,2.303722879046092,0.9088565836216295,Right,Incorrect,0.0,0.0,-45,45,2004,383,-0.88
"{'cat': 'II', 'resp': 'reach'}",20,73,Right,59.968836631951795,39.01699526860449,2.99844183159759,0.6128775285049779,Left,Incorrect,0.0,0.0,-45,45,2005,433,-2.62
"{'cat': 'II', 'resp': 'reach'}",20,74,Left,27.915844128250257,59.87417569204809,1.3957922064125128,0.9405013524694142,Right,Incorrect,0.0,0.0,-45,45,2013,466,-0.93
"{'cat': 'II', 'resp': 'reach'}",20,75,Left,53.270390969179054,77.93164836843343,2.6635195484589524,1.2241474699820674,Right,Incorrect,0.0,0.0,-45,45,2016,363,-0.9
"{'cat': 'II', 'resp': 'reach'}",20,76,Left,13.490844010753005,40.06657046822346,0.6745422005376502,0.6293642171875429,Left,Correct,0.0,0.0,-45,45,2004,384,-2.53
"{'cat': 'II', 'resp': 'reach'}",20,77,Left,36.443390202540066,69.38249454871747,1.8221695101270032,1.0898576758099234,Left,Correct,0.0,0.0,-45,45,2008,533,-2.47
"{'cat': 'II', 'resp': 'reach'}",20,78,Right,73.22540991033809,42.955070496055534,3.6612704955169044,0.6747366695241988,Left,Incorrect,0.0,0.0,-45,45,2005,370,-2.48
"{'cat': 'II', 'resp': 'reach'}",20,79,Right,68.2639388919767,43.939380328135286,3.413196944598835,0.6901981722107884,Left,Incorrect,0.0,0.0,-45,45,2004,375,-2.58
"{'cat': 'II', 'resp': 'reach'}",20,80,Left,63.99354335719154,88.59653532363151,3.199677167859577,1.3916711225311467,Right,Incorrect,0.0,0.0,-45,45,2004,379,-0.82
"{'cat': 'II', 'resp': 'reach'}",20,81,Left,45.58391685512294,73.84279733097907,2.279195842756147,1.1599199480776192,Right,Incorrect,0.0,0.0,-45,45,2017,433,-0.95
"{'cat': 'II', 'resp': 'reach'}",20,82,Right,64.01382695055975,31.419171240741935,3.2006913475279872,0.4935311877589728,Left,Incorrect,0.0,0.0,-45,45,2004,405,-2.64
"{'cat': 'II', 'resp': 'reach'}",20,83,Left,37.09332288117369,61.063830683323516,1.8546661440586845,0.9591884093739007,Left,Correct,0.0,0.0,-45,45,2008,450,-2.39
"{'cat': 'II', 'resp': 'reach'}",20,84,Left,20.286836557595688,51.608012977205846,1.0143418278797844,0.810656772177783,Left,Correct,0.0,0.0,-45,45,2005,462,-2.45
"{'cat': 'II', 'resp': 'reach'}",20,85,Left,45.14169608285959,61.84276822756075,2.2570848041429796,0.9714239317068055,Right,Incorrect,0.0,0.0,-45,45,2004,329,-0.86
"{'cat': 'II', 'resp': 'reach'}",20,86,Left,64.05468372140474,77.35617010054739,3.202734186070237,1.2151078784886105,Left,Correct,0.0,0.0,-45,45,2013,325,-2.6
"{'cat': 'II', 'resp': 'reach'}",20,87,Right,74.28988270824016,50.827088101634864,3.714494135412008,0.7983900329172864,Left,Incorrect,0.0,0.0,-45,45,2008,292,-2.53
"{'cat': 'II', 'resp': 'reach'}",20,88,Right,37.08132333336886,23.037493547317393,1.8540661666684428,0.3618721024268729,Left,Incorrect,0.0,0.0,-45,45,2012,537,-2.49
"{'cat': 'II', 'resp': 'reach'}",20,89,Right,36.14696704827635,17.507451061260415,1.8073483524138174,0.2750063981856927,Right,Correct,0.0,0.0,-45,45,2017,308,-0.78
"{'cat': 'II', 'resp': 'reach'}",20,90,Left,38.61512940815998,47.787752158308756,1.9307564704079991,0.7506482555605629,Right,Incorrect,0.0,0.0,-45,45,2013,271,-0.75
"{'cat': 'II', 'resp': 'reach'}",20,91,Right,49.2119284515222,24.764637672334523,2.46059642257611,0.3890020189010959,Right,Correct,0.0,0.0,-45,45,2009,342,-0.91
"{'cat': 'II', 'resp': 'reach'}",20,92,Left,45.24196243076276,70.47766537405559,2.262098121538138,1.1070605789064638,Left,Correct,0.0,0.0,-45,45,2004,313,-2.52
"{'cat': 'II', 'resp': 'reach'}",20,93,Left,59.58860966306508,82.7966635739308,2.9794304831532537,1.300566950128033,Right,Incorrect,0.0,0.0,-45,45,2005,370,-0.9
"{'cat': 'II', 'resp': 'reach'}",20,94,Left,19.075402999947116,41.12106455503666,0.9537701499973558,0.6459281715694739,Left,Correct,0.0,0.0,-45,45,2004,392,-2.38
"{'cat': 'II', 'resp': 'reach'}",20,95,Left,10.882102641144382,36.38831959614083,0.5441051320572191,0.5715863875985676,Left,Correct,0.0,0.0,-45,45,2004,329,-2.52
"{'cat': 'II', 'resp': 'reach'}",20,96,Left,66.54965400463844,84.5739158212934,3.327482700231922,1.3284839631474845,Left,Correct,0.0,0.0,-45,45,2004,258,-2.48
"{'cat': 'II', 'resp': 'reach'}",20,97,Right,65.47337422580635,44.765857247242025,3.273668711290318,0.7031804412979248,Left,Incorrect,0.0,0.0,-45,45,2004,367,-2.58
"{'cat': 'II', 'resp': 'reach'}",20,98,Left,30.64043206573448,54.019997466606654,1.532021603286724,0.8485441359401535,Right,Incorrect,0.0,0.0,-45,45,2017,312,-0.83
"{'cat': 'II', 'resp': 'reach'}",20,99,Right,43.39654956734762,29.124731342972655,2.169827478367381,0.45749021012429636,Left,Incorrect,0.0,0.0,-45,45,2008,400,-2.46
"{'cat': 'II', 'resp': 'reach'}",20,100,Right,78.46983177478614,56.84167970113702,3.9234915887393074,0.8928670168339805,Right,Correct,0.0,0.0,-45,45,2016,434,-0.84
"{'cat': 'II', 'resp': 'reach'}",20,101,Left,14.969753963498192,32.0976910917403,0.7484876981749096,0.5041893526550294,Right,Incorrect,0.0,0.0,-45,45,2004,325,-0.91
"{'cat': 'II', 'resp': 'reach'}",20,102,Left,18.086305936382217,37.19582765591564,0.9043152968191108,0.5842706945400832,Left,Correct,0.0,0.0,-45,45,2008,329,-2.33
"{'cat': 'II', 'resp': 'reach'}",20,103,Left,58.42214754899467,70.60803580467328,2.9211073774497334,1.1091084328418332,Left,Correct,0.0,0.0,-45,45,2004,342,-2.45
"{'cat': 'II', 'resp': 'reach'}",20,104,Left,40.621212571462706,51.476287350495944,2.0310606285731354,0.8085876308719763,Left,Correct,0.0,0.0,-45,45,2004,396,-2.46
"{'cat': 'II', 'resp': 'reach'}",20,105,Left,40.54034256257752,71.88478916100705,2.027017128128876,1.1291636276653547,Right,Incorrect,0.0,0.0,-45,45,2004,396,-0.91
"{'cat': 'II', 'resp': 'reach'}",20,106,Left,10.717388651403525,34.98496690307902,0.5358694325701763,0.5495425750439756,Right,Incorrect,0.0,0.0,-45,45,2008,342,-0.84
"{'cat': 'II', 'resp': 'reach'}",20,107,Left,31.732059783431353,53.908403565376034,1.5866029891715676,0.8467912230386958,Left,Correct,0.0,0.0,-45,45,2004,405,-2.44
"{'cat': 'II', 'resp': 'reach'}",20,108,Right,36.90114671775025,12.178518910943662,1.8450573358875124,0.19129972771112486,Left,Incorrect,0.0,0.0,-45,45,2012,396,-2.4
"{'cat': 'II', 'resp': 'reach'}",20,109,Left,52.35869409019063,62.15291964984765,2.6179347045095316,0.9762957788555904,Right,Incorrect,0.0,0.0,-45,45,2004,492,-0.73
"{'cat': 'II', 'resp': 'reach'}",20,110,Right,72.10277150667666,52.4608858603883,3.605138575333833,0.8240536680990428,Right,Correct,0.0,0.0,-45,45,2004,396,-0.79
"{'cat': 'II', 'resp': 'reach'}",20,111,Left,53.685096059681705,62.33368803887465,2.684254802984085,0.9791352820704328,Left,Correct,0.0,0.0,-45,45,2009,603,-2.43
"{'cat': 'II', 'resp': 'reach'}",20,112,Right,52.95802675188212,37.24203331725828,2.647901337594106,0.5849964913712246,Right,Correct,0.0,0.0,-45,45,2012,446,-0.79
"{'cat': 'II', 'resp': 'reach'}",20,113,Right,54.741193239805035,41.076495061128014,2.737059661990252,0.6452280755962859,Left,Incorrect,0.0,0.0,-45,45,2012,779,-2.47
"{'cat': 'II', 'resp': 'reach'}",20,114,Right,60.107526006391204,45.109945901457856,3.0053763003195604,0.708585373239265,Right,Correct,0.0,0.0,-45,45,2004,2375,-0.83
"{'cat': 'II', 'resp': 'reach'}",20,115,Left,31.41448950233017,55.842908614687616,1.5707244751165086,0.8771783572949439,Right,Incorrect,0.0,0.0,-45,45,2004,375,-0.87
"{'cat': 'II', 'resp': 'reach'}",20,116,Right,80.42451741066333,52.00244069037345,4.021225870533167,0.8168524282080808,Left,Incorrect,0.0,0.0,-45,45,2004,446,-2.56
"{'cat': 'II', 'resp': 'reach'}",20,117,Right,58.8082629395307,48.59995378160059,2.940413146976535,0.7634062888253995,Left,Incorrect,0.0,0.0,-45,45,2004,425,-2.41
"{'cat': 'II', 'resp': 'reach'}",20,118,Right,88.42253495688146,62.442753390404825,4.421126747844073,0.9808484766060749,Right,Correct,0.0,0.0,-45,45,2004,363,-0.85
"{'cat': 'II', 'resp': 'reach'}",20,119,Left,46.728807567948365,64.02353638785488,2.3364403783974184,1.0056793578646184,Left,Correct,0.0,0.0,-45,45,2005,379,-2.49
"{'cat': 'II', 'resp': 'reach'}",20,120,Left,49.68736869861328,62.38015374894186,2.484368434930664,0.9798651637373877,Right,Incorrect,0.0,0.0,-45,45,2004,375,-0.88
"{'cat': 'II', 'resp': 'reach'}",20,121,Right,48.072735425999916,25.846469879383147,2.403636771299996,0.4059953994714997,Left,Incorrect,0.0,0.0,-45,45,2004,412,-2.42
"{'cat': 'II', 'resp': 'reach'}",20,122,Right,75.03344159745033,50.70357586397056,3.7516720798725167,0.7964499072249134,Right,Correct,0.0,0.0,-45,45,2008,329,-0.92
"{'cat': 'II', 'resp': 'reach'}",20,123,Right,73.27239146246974,61.13830077308943,3.663619573123487,0.9603581828085047,Left,Incorrect,0.0,0.0,-45,45,2012,396,-2.52
"{'cat': 'II', 'resp': 'reach'}",20,124,Left,53.958227099162364,71.02296758781173,2.6979113549581184,1.1156261660500766,Right,Incorrect,0.0,0.0,-45,45,2004,333,-0.84
"{'cat': 'II', 'resp': 'reach'}",20,125,Left,17.022722105845986,38.68874799105635,0.8511361052922993,0.6077214323264476,Right,Incorrect,0.0,0.0,-45,45,2004,417,-0.93
"{'cat': 'II', 'resp': 'reach'}",20,126,Right,63.76614339687288,40.37189680084029,3.1883071698436436,0.6341602720050257,Left,Incorrect,0.0,0.0,-45,45,2012,396,-2.39
"{'cat': 'II', 'resp': 'reach'}",20,127,Left,52.83370392947126,69.60280918239641,2.6416851964735635,1.0933183699831437,Left,Correct,0.0,0.0,-45,45,2004,383,-2.47
"{'cat': 'II', 'resp': 'reach'}",20,128,Right,55.52802830243861,24.724646145620554,2.7764014151219305,0.3883738334684437,Left,Incorrect,0.0,0.0,-45,45,2004,504,-2.51
"{'cat': 'II', 'resp': 'reach'}",20,129,Left,68.52207506317129,81.80791529639384,3.4261037531585647,1.2850357285032348,Right,Incorrect,0.0,0.0,-45,45,2008,379,-0.86
"{'cat': 'II', 'resp': 'reach'}",20,130,Right,65.43203590334288,57.40048703781136,3.2716017951671437,0.9016447419523216,Right,Correct,0.0,0.0,-45,45,2004,367,-0.86
"{'cat': 'II', 'resp': 'reach'}",20,131,Right,49.74857408971023,39.1426674909702,2.4874287044855117,0.6148515831576999,Left,Incorrect,0.0,0.0,-45,45,2005,395,-2.45
"{'cat': 'II', 'resp': 'reach'}",20,132,Right,60.57742599213658,31.951385051101177,3.0288712996068288,0.5018911827427909,Left,Incorrect,0.0,0.0,-45,45,2004,455,-2.36
"{'cat': 'II', 'resp': 'reach'}",20,133,Left,29.56526822673616,57.59449414668389,1.4782634113368078,0.9046921984922124,Right,Incorrect,0.0,0.0,-45,45,2008,483,-0.9
"{'cat': 'II', 'resp': 'reach'}",20,134,Right,51.43561301068597,34.312788858355106,2.571780650534299,0.5389840270079305,Left,Incorrect,0.0,0.0,-45,45,2005,424,-2.58
"{'cat': 'II', 'resp': 'reach'}",20,135,Right,54.20679983402409,45.6447348489822,2.7103399917012045,0.7169858183830824,Right,Correct,0.0,0.0,-45,45,2012,363,-0.84
"{'cat': 'II', 'resp': 'reach'}",20,136,Right,58.59490890636555,37.31703579280823,2.9297454453182774,0.5861746275021684,Left,Incorrect,0.0,0.0,-45,45,2004,384,-2.42
"{'cat': 'II', 'resp': 'reach'}",20,137,Left,46.76624962820574,57.60322580650636,2.338312481410287,0.9048293550839719,Left,Correct,0.0,0.0,-45,45,2004,433,-2.48
"{'cat': 'II', 'resp': 'reach'}",20,138,Right,70.60674787612312,40.85786406497547,3.530337393806156,0.6417938279394868,Left,Incorrect,0.0,0.0,-45,45,2008,363,-2.41
"{'cat': 'II', 'resp': 'reach'}",20,139,Left,39.338117972717896,49.16320159147146,1.9669058986358947,0.7722537647336039,Left,Correct,0.0,0.0,-45,45,2008,450,-2.49
"{'cat': 'II', 'resp': 'reach'}",20,140,Right,68.25137012865031,51.82098020561785,3.4125685064325153,0.8140020535789555,Left,Incorrect,0.0,0.0,-45,45,2004,1108,-2.44
"{'cat': 'II', 'resp': 'reach'}",20,141,Left,67.28566224813851,89.5915692144984,3.3642831124069255,1.4073010783392483,Left,Correct,0.0,0.0,-45,45,2004,888,-2.43
"{'cat': 'II', 'resp': 'reach'}",20,142,Right,82.26013490317905,68.08801999417405,4.113006745158953,1.0695241170558607,Right,Correct,0.0,0.0,-45,45,2004,1350,-0.83
"{'cat': 'II', 'resp': 'reach'}",20,143,Right,74.8015695932881,54.70107782441056,3.7400784796644047,0.8592425211830589,Left,Incorrect,0.0,0.0,-45,45,2008,1104,-2.35
"{'cat': 'II', 'resp': 'reach'}",20,144,Left,13.504781957138022,32.27552517020438,0.6752390978569011,0.5069827638273328,Right,Incorrect,0.0,0.0,-45,45,2009,1279,-0.95
"{'cat': 'II', 'resp': 'reach'}",20,145,Left,32.755133073376086,54.23925385789851,1.6377566536688044,0.8519882072808291,Left,Correct,0.0,0.0,-45,45,2004,1933,-2.46
"{'cat': 'II', 'resp': 'reach'}",20,146,Right,46.569516349056485,16.62150080805335,2.328475817452824,0.2610899241510861,Right,Correct,0.0,0.0,-45,45,2004,954,-0.91
"{'cat': 'II', 'resp': 'reach'}",20,147,Right,41.850926963662744,30.970032850777947,2.092546348183137,0.4864761384271928,Right,Correct,0.0,0.0,-45,45,2004,1804,-0.87
"{'cat': 'II', 'resp': 'reach'}",20,148,Left,54.33546326726952,69.81779133974021,2.716773163363476,1.0966953018139647,Left,Correct,0.0,0.0,-45,45,2004,1329,-2.38
"{'cat': 'II', 'resp': 'reach'}",20,149,Left,68.06380456897547,82.26473603653584,3.403190228448773,1.2922114519094228,Right,Incorrect,0.0,0.0,-45,45,2009,2174,-0.88
"{'cat': 'II', 'resp': 'reach'}",20,150,Left,63.85323995993736,82.53931292730276,3.1926619979968685,1.296524495623817,Left,Correct,0.0,0.0,-45,45,2004,1571,-2.48
"{'cat': 'II', 'resp': 'reach'}",20,151,Left,32.55974847802947,51.78368389956999,1.6279874239014733,0.8134162045735257,Left,Correct,0.0,0.0,-45,45,2004,1746,-2.52
"{'cat': 'II', 'resp': 'reach'}",20,152,Right,61.827915424265235,52.478112228873755,3.0913957712132616,0.8243242592624522,Left,Incorrect,0.0,0.0,-45,45,2004,1842,-2.44
"{'cat': 'II', 'resp': 'reach'}",20,153,Left,44.10750419280304,74.34317488500884,2.205375209640152,1.167779860316425,Left,Correct,0.0,0.0,-45,45,2009,2245,-2.47
"{'cat': 'II', 'resp': 'reach'}",20,154,Left,66.69910757686213,82.93631793398251,3.334955378843107,1.3027606356859343,Right,Incorrect,0.0,0.0,-45,45,2004,1700,-0.85
"{'cat': 'II', 'resp': 'reach'}",20,155,Left,27.79822390579347,56.70100657004575,1.3899111952896734,0.8906573284580115,Left,Correct,0.0,0.0,-45,45,2008,854,-2.47
"{'cat': 'II', 'resp': 'reach'}",20,156,Left,25.305511442200242,54.65090676472409,1.2652755721100122,0.8584544360203897,Left,Correct,0.0,0.0,-45,45,2005,1245,-2.55
"{'cat': 'II', 'resp': 'reach'}",20,157,Right,79.74455431936737,54.872424040301524,3.987227715968368,0.861934021248376,Left,Incorrect,0.0,0.0,-45,45,2004,2075,-2.52
"{'cat': 'II', 'resp': 'reach'}",20,158,Left,26.602841517745155,45.71686639744567,1.3301420758872577,0.7181188580968071,Left,Correct,0.0,0.0,-45,45,2005,958,-2.49
"{'cat': 'II', 'resp': 'reach'}",20,159,Right,36.55611880275589,26.26413876622424,1.8278059401377944,0.4125561270041648,Left,Incorrect,0.0,0.0,-45,45,2013,2441,-2.53
"{'cat': 'II', 'resp': 'reach'}",20,160,Right,78.98721800381816,54.20731925555561,3.949360900190908,0.8514865797202502,Left,Incorrect,0.0,0.0,-45,45,2004,779,-2.45
"{'cat': 'II', 'resp': 'reach'}",20,161,Left,47.86605554208107,68.86003456302223,2.393302777104054,1.0816508935456495,Right,Incorrect,0.0,0.0,-45,45,2004,1650,-0.86
"{'cat': 'II', 'resp': 'reach'}",20,162,Right,46.251298526820655,18.819366196274835,2.312564926341033,0.29561391293716555,Right,Correct,0.0,0.0,-45,45,2004,1805,-0.8
"{'cat': 'II', 'resp': 'reach'}",20,163,Left,66.10396976374881,87.91460711416096,3.3051984881874406,1.3809594192654053,Right,Incorrect,0.0,0.0,-45,45,2012,950,-0.83
"{'cat': 'II', 'resp': 'reach'}",20,164,Right,63.24942703982507,51.91773806904564,3.1624713519912535,0.8155219225435646,Right,Correct,0.0,0.0,-45,45,2009,1658,-0.9
"{'cat': 'II', 'resp': 'reach'}",20,165,Right,70.82340961331008,41.04362054367202,3.541170480665504,0.6447116838836356,Right,Correct,0.0,0.0,-45,45,2004,2921,-0.93
"{'cat': 'II', 'resp': 'reach'}",20,166,Left,44.07188212181414,58.4148108412465,2.203594106090707,0.917577702998487,Left,Correct,0.0,0.0,-45,45,2008,1259,-2.37
"{'cat': 'II', 'resp': 'reach'}",20,167,Left,45.32304782296802,54.06024087071599,2.266152391148401,0.84917627785368,Left,Correct,0.0,0.0,-45,45,2004,1266,-2.45
"{'cat': 'II', 'resp': 'reach'}",20,168,Right,75.3107189363492,44.139866078360825,3.76553594681746,0.6933473950110784,Right,Correct,0.0,0.0,-45,45,2004,1330,-0.87
"{'cat': 'II', 'resp': 'reach'}",20,169,Left,66.77797572069227,85.1293362216674,3.3388987860346133,1.337208486394829,Right,Incorrect,0.0,0.0,-45,45,2012,3217,-0.72
"{'cat': 'II', 'resp': 'reach'}",20,170,Left,33.856709376520584,55.115416144145286,1.6928354688260294,0.8657509322899556,Left,Correct,0.0,0.0,-45,45,2004,967,-2.44
"{'cat': 'II', 'resp': 'reach'}",20,171,Right,33.888467422640744,13.032061942483185,1.6944233711320373,0.20470715029816156,Left,Incorrect,0.0,0.0,-45,45,2012,917,-2.56
"{'cat': 'II', 'resp': 'reach'}",20,172,Right,50.333717052256,36.40062907519088,2.5166858526127998,0.5717797444433335,Right,Correct,0.0,0.0,-45,45,2004,2025,-0.84
"{'cat': 'II', 'resp': 'reach'}",20,173,Left,30.307193867716165,41.94193738910041,1.5153596933858082,0.6588224118946046,Left,Correct,0.0,0.0,-45,45,2012,917,-2.54
"{'cat': 'II', 'resp': 'reach'}",20,174,Left,42.65244991538605,50.85727858263765,2.1326224957693025,0.7988642638839198,Right,Incorrect,0.0,0.0,-45,45,2004,1354,-0.91
"{'cat': 'II', 'resp': 'reach'}",20,175,Left,51.62164491391225,79.45110998949345,2.581082245695612,1.248015117312736,Left,Correct,0.0,0.0,-45,45,2004,3858,-2.5
"{'cat': 'II', 'resp': 'reach'}",20,176,Right,56.04918929077618,44.42081334107893,2.802459464538809,0.6977605042940853,Right,Correct,0.0,0.0,-45,45,2017,996,-0.86
"{'cat': 'II', 'resp': 'reach'}",20,177,Left,51.01423064560315,58.097404967819955,2.5507115322801575,0.9125919031976717,Right,Incorrect,0.0,0.0,-45,45,2004,2004,-0.92
"{'cat': 'II', 'resp': 'reach'}",20,178,Left,43.8625886403047,59.511477850722244,2.193129432015235,0.9348041081005034,Left,Correct,0.0,0.0,-45,45,2004,1130,-2.35
"{'cat': 'II', 'resp': 'reach'}",20,179,Right,78.14126853129824,56.66488198790037,3.907063426564912,0.890089884848602,Right,Correct,0.0,0.0,-45,45,2013,1896,-0.86
"{'cat': 'II', 'resp': 'reach'}",20,180,Right,78.11082358250258,66.61177068349188,3.905541179125129,1.0463352471093303,Right,Correct,0.0,0.0,-45,45,2004,1229,-0.83
"{'cat': 'II', 'resp': 'reach'}",20,181,Left,15.653848190365949,36.33953412064453,0.7826924095182974,0.5708200671414624,Left,Correct,0.0,0.0,-45,45,2004,987,-2.38
"{'cat': 'II', 'resp': 'reach'}",20,182,Left,40.91838482864102,73.28583029666176,2.045919241432051,1.1511711303611043,Left,Correct,0.0,0.0,-45,45,2012,2108,-2.37
"{'cat': 'II', 'resp': 'reach'}",20,183,Left,38.75982994557492,58.102535555058445,1.937991497278746,0.9126724942735568,Left,Correct,0.0,0.0,-45,45,2004,1441,-2.37
"{'cat': 'II', 'resp': 'reach'}",20,184,Left,34.593680500215996,67.19508540365516,1.7296840250107999,1.0554979333073091,Left,Correct,0.0,0.0,-45,45,2013,1263,-2.39
"{'cat': 'II', 'resp': 'reach'}",20,185,Left,38.813998076364605,67.9709399308781,1.9406999038182304,1.0676850277221988,Left,Correct,0.0,0.0,-45,45,2004,1038,-2.47
"{'cat': 'II', 'resp': 'reach'}",20,186,Right,36.97280851211834,24.733836852376974,1.8486404256059172,0.3885182007525799,Left,Incorrect,0.0,0.0,-45,45,2017,1883,-2.47
"{'cat': 'II', 'resp': 'reach'}",20,187,Right,56.61120512861515,25.16741998726738,2.8305602564307573,0.39532890870904064,Right,Correct,0.0,0.0,-45,45,2005,1212,-0.79
"{'cat': 'II', 'resp': 'reach'}",20,188,Left,31.031044425755994,54.13496107091818,1.5515522212877997,0.85034998001383,Left,Correct,0.0,0.0,-45,45,2004,1329,-2.45
"{'cat': 'II', 'resp': 'reach'}",20,189,Left,33.34240175979101,48.480831109963056,1.6671200879895505,0.761535114274937,Right,Incorrect,0.0,0.0,-45,45,2005,3133,-0.84
"{'cat': 'II', 'resp': 'reach'}",20,190,Left,36.25259824079094,48.40738328174658,1.812629912039547,0.7603813984872022,Left,Correct,0.0,0.0,-45,45,2004,1179,-2.41
"{'cat': 'II', 'resp': 'reach'}",20,191,Right,67.09999062094766,54.623263260456525,3.3549995310473832,0.8580202128707574,Right,Correct,0.0,0.0,-45,45,2004,1200,-0.9
"{'cat': 'II', 'resp': 'reach'}",20,192,Right,71.2851294895703,51.10274898874389,3.5642564744785146,0.8027201040064053,Right,Correct,0.0,0.0,-45,45,2004,1059,-0.86
"{'cat': 'II', 'resp': 'reach'}",20,193,Right,87.16985530345403,68.30408961345978,4.358492765172701,1.0729181306989206,Right,Correct,0.0,0.0,-45,45,2004,1187,-0.91
"{'cat': 'II', 'resp': 'reach'}",20,194,Right,42.978345883323996,14.860283684670623,2.1489172941662,0.23342479027010749,Right,Correct,0.0,0.0,-45,45,2004,1783,-0.89
"{'cat': 'II', 'resp': 'reach'}",20,195,Right,34.43179133453181,19.190920209434356,1.7215895667265904,0.3014502697279343,Right,Correct,0.0,0.0,-45,45,2012,1875,-0.86
"{'cat': 'II', 'resp': 'reach'}",20,196,Right,79.75174751993345,63.61917880159626,3.9875873759966725,0.9993277237525516,Right,Correct,0.0,0.0,-45,45,2013,1000,-0.89
"{'cat': 'II', 'resp': 'reach'}",20,197,Left,37.62157289493413,49.63116068550181,1.8810786447467067,0.7796044489935352,Left,Correct,0.0,0.0,-45,45,2016,2425,-2.31
"{'cat': 'II', 'resp': 'reach'}",20,198,Right,79.51299361310468,49.23680761804987,3.975649680655234,0.7734099654953973,Right,Correct,0.0,0.0,-45,45,2012,980,-0.86
"{'cat': 'II', 'resp': 'reach'}",20,199,Right,66.89348036338907,39.14149801673754,3.344674018169454,0.6148332130994107,Right,Correct,0.0,0.0,-45,45,2008,825,-0.85
"{'cat': 'II', 'resp': 'reach'}",20,200,Right,60.703231408421885,29.377792899837587,3.035161570421094,0.4614652917640607,Right,Correct,0.0,0.0,-45,45,2016,804,-0.89
"{'cat': 'II', 'resp': 'reach'}",20,201,Left,26.662094678071888,55.525791407435385,1.3331047339035944,0.8721970918517913,Left,Correct,0.0,0.0,-45,45,2008,1037,-2.41
"{'cat': 'II', 'resp': 'reach'}",20,202,Right,79.2098712942472,47.71730847485473,3.9604935647123596,0.7495417287684081,Right,Correct,0.0,0.0,-45,45,2004,958,-0.9
"{'cat': 'II', 'resp': 'reach'}",20,203,Left,64.69890768335235,88.4873538868107,3.234945384167617,1.3899561045320235,Right,Incorrect,0.0,0.0,-45,45,2012,667,-0.79
"{'cat': 'II', 'resp': 'reach'}",20,204,Left,58.960225709336044,69.6802565855212,2.9480112854668024,1.094534910946626,Left,Correct,0.0,0.0,-45,45,2004,2679,-2.51
"{'cat': 'II', 'resp': 'reach'}",20,205,Left,28.289469257019284,54.70651176761576,1.414473462850964,0.8593278773633262,Left,Correct,0.0,0.0,-45,45,2004,2062,-2.45
"{'cat': 'II', 'resp': 'reach'}",20,206,Right,63.496768452657555,45.433907540815824,3.174838422632878,0.7136741507705244,Right,Correct,0.0,0.0,-45,45,2004,896,-0.83
"{'cat': 'II', 'resp': 'reach'}",20,207,Right,82.39681512797611,65.24562579214948,4.119840756398805,1.0248758933374276,Right,Correct,0.0,0.0,-45,45,2004,887,-0.85
"{'cat': 'II', 'resp': 'reach'}",20,208,Right,43.60382077228369,30.13486010398758,2.1801910386141845,0.47335727559821766,Right,Correct,0.0,0.0,-45,45,2017,1833,-0.87
"{'cat': 'II', 'resp': 'reach'}",20,209,Right,71.48253860829084,61.00194926092,3.574126930414542,0.9582163782638179,Right,Correct,0.0,0.0,-45,45,2004,879,-0.88
"{'cat': 'II', 'resp': 'reach'}",20,210,Right,88.28584521213685,68.56695553281409,4.414292260606842,1.077047218904534,Right,Correct,0.0,0.0,-45,45,2004,867,-0.87
"{'cat': 'II', 'resp': 'reach'}",20,211,Left,35.977308501282046,59.07932621557795,1.7988654250641023,0.9280158860894728,Left,Correct,0.0,0.0,-45,45,2008,1558,-2.34
"{'cat': 'II', 'resp': 'reach'}",20,212,Left,46.96179957503453,55.576860652058066,2.3480899787517266,0.8729992856704463,Left,Correct,0.0,0.0,-45,45,2004,1371,-2.5
"{'cat': 'II', 'resp': 'reach'}",20,213,Right,66.23262384413887,37.148224573795446,3.3116311922069435,0.583522947074698,Right,Correct,0.0,0.0,-45,45,2004,875,-0.89
"{'cat': 'II', 'resp': 'reach'}",20,214,Right,52.86409742204739,37.94517371955077,2.6432048711023692,0.596041394982646,Left,Incorrect,0.0,0.0,-45,45,2004,3575,-2.47
"{'cat': 'II', 'resp': 'reach'}",20,215,Right,54.50895209303764,32.05328812992028,2.7254476046518823,0.5034918725617724,Right,Correct,0.0,0.0,-45,45,2013,2045,-0.86
"{'cat': 'II', 'resp': 'reach'}",20,216,Left,65.57649928684414,85.85912092246335,3.2788249643422067,1.3486719176684427,Left,Correct,0.0,0.0,-45,45,2005,3079,-2.38
"{'cat': 'II', 'resp': 'reach'}",20,217,Right,78.07436435374156,62.46847063905632,3.9037182176870777,0.9812524422032451,Right,Correct,0.0,0.0,-45,45,2004,3342,-0.81
"{'cat': 'II', 'resp': 'reach'}",20,218,Left,30.100036458464842,52.882651272665626,1.505001822923242,0.8306787437027863,Left,Correct,0.0,0.0,-45,45,2004,1158,-2.44
"{'cat': 'II', 'resp': 'reach'}",20,219,Right,48.316760185283655,23.801658748847732,2.415838009264183,0.3738755813431563,Right,Correct,0.0,0.0,-45,45,2009,3191,-0.85
"{'cat': 'II', 'resp': 'reach'}",20,220,Right,54.81422132692604,33.35170924584114,2.740711066346302,0.5238874237569866,Right,Correct,0.0,0.0,-45,45,2005,1837,-0.87
"{'cat': 'II', 'resp': 'reach'}",20,221,Right,65.1639556344397,44.56983713955444,3.2581977817219854,0.7001013646465887,Right,Correct,0.0,0.0,-45,45,2013,2108,-0.8
"{'cat': 'II', 'resp': 'reach'}",20,222,Left,45.43724577571847,65.97058854600859,2.2718622887859237,1.0362635816456776,Right,Incorrect,0.0,0.0,-45,45,2004,1975,-0.88
"{'cat': 'II', 'resp': 'reach'}",20,223,Left,31.1291369351436,45.51426302706239,1.55645684675718,0.7149363717968638,Left,Correct,0.0,0.0,-45,45,2004,879,-2.48
"{'cat': 'II', 'resp': 'reach'}",20,224,Left,46.79920930086193,65.75911080656972,2.339960465043097,1.0329416970825833,Right,Incorrect,0.0,0.0,-45,45,2004,2217,-0.79
"{'cat': 'II', 'resp': 'reach'}",20,225,Left,16.981957909120233,40.80745872352694,0.8490978954560117,0.6410020626875048,Left,Correct,0.0,0.0,-45,45,2008,867,-2.48
"{'cat': 'II', 'resp': 'reach'}",20,226,Left,22.749899457518143,42.42603089118565,1.1374949728759072,0.6664265348436123,Left,Correct,0.0,0.0,-45,45,2005,1108,-2.5
"{'cat': 'II', 'resp': 'reach'}",20,227,Left,37.08165871148153,45.24071230371837,1.8540829355740767,0.7106394470826549,Left,Correct,0.0,0.0,-45,45,2009,1237,-2.42
"{'cat': 'II', 'resp': 'reach'}",20,228,Left,31.899631069594314,50.355384874229614,1.5949815534797156,0.7909805359478316,Left,Correct,0.0,0.0,-45,45,2016,1196,-2.4
"{'cat': 'II', 'resp': 'reach'}",20,229,Right,43.7971360296282,33.23825156220028,2.18985680148141,0.5221052346298893,Right,Correct,0.0,0.0,-45,45,2017,3354,-0.84
"{'cat': 'II', 'resp': 'reach'}",20,230,Right,82.46516861014464,64.70074635300692,4.123258430507232,1.0163169471219158,Right,Correct,0.0,0.0,-45,45,2004,1109,-0.77
"{'cat': 'II', 'resp': 'reach'}",20,231,Right,56.83370849215633,46.08346436688626,2.841685424607817,0.7238773655348845,Right,Correct,0.0,0.0,-45,45,2004,1009,-0.85
"{'cat': 'II', 'resp': 'reach'}",20,232,Left,65.75075175928039,79.2390114423769,3.287537587964019,1.2446834811254444,Right,Incorrect,0.0,0.0,-45,45,2013,1746,-0.86
"{'cat': 'II', 'resp': 'reach'}",20,233,Right,65.91799418628268,45.14380939961871,3.295899709314134,0.7091172998244999,Right,Correct,0.0,0.0,-45,45,2004,1171,-0.81
"{'cat': 'II', 'resp': 'reach'}",20,234,Left,37.064896841063096,46.60900197349491,1.8532448420531549,0.732132490955419,Left,Correct,0.0,0.0,-45,45,2004,1229,-2.49
"{'cat': 'II', 'resp': 'reach'}",20,235,Right,54.328605027686514,45.046574698322765,2.7164302513843257,0.7075899407081733,Right,Correct,0.0,0.0,-45,45,2012,2458,-0.79
"{'cat': 'II', 'resp': 'reach'}",20,236,Right,44.70329229273756,18.350349713597858,2.235164614636878,0.288246619255213,Left,Incorrect,0.0,0.0,-45,45,2004,2266,-2.41
"{'cat': 'II', 'resp': 'reach'}",20,237,Right,74.43462123557656,63.360008596782805,3.721731061778828,0.9952566876951948,Right,Correct,0.0,0.0,-45,45,2004,1258,-0.94
"{'cat': 'II', 'resp': 'reach'}",20,238,Left,24.3388552131133,37.6604416437866,1.216942760655665,0.5915688339953356,Left,Correct,0.0,0.0,-45,45,2004,1609,-2.33
"{'cat': 'II', 'resp': 'reach'}",20,239,Right,42.38181743249042,29.661875677634633,2.1190908716245214,0.4659276536027537,Right,Correct,0.0,0.0,-45,45,2004,4554,-0.86
"{'cat': 'II', 'resp': 'reach'}",20,240,Left,19.27387091175113,48.4281545840675,0.9636935455875565,0.7607076733410866,Left,Correct,0.0,0.0,-45,45,2013,1312,-2.53
"{'cat': 'II', 'resp': 'reach'}",20,241,Right,44.29451792296621,25.385831402852542,2.2147258961483103,0.39875970720235304,Right,Correct,0.0,0.0,-45,45,2004,2163,-0.88
"{'cat': 'II', 'resp': 'reach'}",20,242,Left,37.471373356564285,61.38892154921003,1.8735686678282144,0.9642949247539919,Left,Correct,0.0,0.0,-45,45,2004,2366,-2.42
"{'cat': 'II', 'resp': 'reach'}",20,243,Right,42.433373641813574,21.201034810064154,2.1216686820906787,0.3330250760389951,Right,Correct,0.0,0.0,-45,45,2004,1330,-0.87
"{'cat': 'II', 'resp': 'reach'}",20,244,Left,24.73189414554306,47.525911366458814,1.236594707277153,0.7465352700201333,Left,Correct,0.0,0.0,-45,45,2004,1312,-2.44
"{'cat': 'II', 'resp': 'reach'}",20,245,Right,54.8896426011073,34.43140830286104,2.7444821300553652,0.5408472968850943,Right,Correct,0.0,0.0,-45,45,2004,1087,-0.83
"{'cat': 'II', 'resp': 'reach'}",20,246,Right,49.94175983784774,42.91025146478891,2.497087991892387,0.6740326538273573,Right,Correct,0.0,0.0,-45,45,2012,1983,-0.78
"{'cat': 'II', 'resp': 'reach'}",20,247,Left,32.61822569602984,61.86138530401901,1.630911284801492,0.9717163680599685,Left,Correct,0.0,0.0,-45,45,2004,1388,-2.41
"{'cat': 'II', 'resp': 'reach'}",20,248,Right,41.10636154572828,18.66664919928969,2.055318077286414,0.2932150399581314,Right,Correct,0.0,0.0,-45,45,2004,1454,-0.82
"{'cat': 'II', 'resp': 'reach'}",20,249,Right,71.89346465681975,50.64262611570538,3.594673232840987,0.7954925108179732,Right,Correct,0.0,0.0,-45,45,2012,967,-0.89
"{'cat': 'II', 'resp': 'reach'}",20,250,Right,54.36738377615194,24.530747568963882,2.718369188807597,0.385328081748613,Right,Correct,0.0,0.0,-45,45,2004,979,-0.84
"{'cat': 'II', 'resp': 'reach'}",20,251,Left,22.369594776651013,44.2742889385611,1.1184797388325507,0.695458904361477,Left,Correct,0.0,0.0,-45,45,2004,887,-2.38
"{'cat': 'II', 'resp': 'reach'}",20,252,Left,38.76119186868254,65.2559975411481,1.938059593434127,1.0250388123897225,Left,Correct,0.0,0.0,-45,45,2004,1250,-2.49
"{'cat': 'II', 'resp': 'reach'}",20,253,Right,51.153595548823894,36.93710415049502,2.557679777441195,0.5802066752203809,Right,Correct,0.0,0.0,-45,45,2004,754,-0.9
"{'cat': 'II', 'resp': 'reach'}",20,254,Left,61.589578314617484,88.42503108014625,3.079478915730874,1.388977140174183,Left,Correct,0.0,0.0,-45,45,2004,4171,-2.43
"{'cat': 'II', 'resp': 'reach'}",20,255,Right,81.44120046362343,54.465236494059084,4.072060023181171,0.8555379342288336,Right,Correct,0.0,0.0,-45,45,2004,996,-0.9
"{'cat': 'II', 'resp': 'reach'}",20,256,Right,43.269902919584865,33.47528476544934,2.163495145979243,0.5258285434798098,Right,Correct,0.0,0.0,-45,45,2004,1996,-0.8
"{'cat': 'II', 'resp': 'reach'}",20,257,Left,30.913690001155793,57.63184076693184,1.5456845000577897,0.905278837831249,Left,Correct,0.0,0.0,-45,45,2012,1050,-2.41
"{'cat': 'II', 'resp': 'reach'}",20,258,Right,44.690111709354746,22.861777281026438,2.2345055854677374,0.35911195777039345,Right,Correct,0.0,0.0,-45,45,2005,2074,-0.83
"{'cat': 'II', 'resp': 'reach'}",20,259,Right,81.4044128515525,63.30529125522699,4.070220642577625,0.9943971897039166,Right,Correct,0.0,0.0,-45,45,2004,1158,-0.86
"{'cat': 'II', 'resp': 'reach'}",20,260,Left,28.060057447750573,42.30241971930254,1.4030028723875287,0.6644848550961643,Left,Correct,0.0,0.0,-45,45,2004,950,-2.44
"{'cat': 'II', 'resp': 'reach'}",20,261,Left,56.765415611010624,84.42466634547942,2.838270780550531,1.326139557863638,Left,Correct,0.0,0.0,-45,45,2008,2767,-2.57
"{'cat': 'II', 'resp': 'reach'}",20,262,Left,40.37440408228584,64.5856518027979,2.018720204114292,1.0145090461548913,Right,Incorrect,0.0,0.0,-45,45,2004,2446,-0.85
"{'cat': 'II', 'resp': 'reach'}",20,263,Left,17.718265750784735,39.990831762487076,0.8859132875392368,0.6281745163798738,Left,Correct,0.0,0.0,-45,45,2004,1021,-2.42
"{'cat': 'II', 'resp': 'reach'}",20,264,Right,88.02034616581062,68.19142798264538,4.401017308290531,1.0711484459403808,Right,Correct,0.0,0.0,-45,45,2004,1180,-0.78
"{'cat': 'II', 'resp': 'reach'}",20,265,Left,49.39865159053036,66.02838531859094,2.4699325795265183,1.0371714512264072,Left,Correct,0.0,0.0,-45,45,2008,4179,-2.38
"{'cat': 'II', 'resp': 'reach'}",20,266,Left,66.13021486790575,86.24595625276132,3.3065107433952874,1.3547483128275082,Right,Incorrect,0.0,0.0,-45,45,2009,966,-0.83
"{'cat': 'II', 'resp': 'reach'}",20,267,Right,46.2907939261021,29.266945021919604,2.3145396963051046,0.45972409736939496,Right,Correct,0.0,0.0,-45,45,2013,1883,-0.86
"{'cat': 'II', 'resp': 'reach'}",20,268,Left,23.225758448770694,44.6739366678306,1.1612879224385346,0.7017365562129615,Left,Correct,0.0,0.0,-45,45,2005,904,-2.35
"{'cat': 'II', 'resp': 'reach'}",20,269,Right,42.20180660801212,30.601275535139315,2.110090330400606,0.48068371205835375,Right,Correct,0.0,0.0,-45,45,2004,916,-0.84
"{'cat': 'II', 'resp': 'reach'}",20,270,Right,37.96027108670297,27.592559739552577,1.8980135543351482,0.4334229148575794,Left,Incorrect,0.0,0.0,-45,45,2004,1954,-2.47
"{'cat': 'II', 'resp': 'reach'}",20,271,Right,67.53309023427809,46.23663948719976,3.376654511713905,0.7262834346983326,Right,Correct,0.0,0.0,-45,45,2004,1037,-0.88
"{'cat': 'II', 'resp': 'reach'}",20,272,Left,37.03116804870506,56.3171699183321,1.8515584024352532,0.884628036432001,Left,Correct,0.0,0.0,-45,45,2004,1700,-2.37
"{'cat': 'II', 'resp': 'reach'}",20,273,Right,57.12523752400552,45.10795971226843,2.8562618762002763,0.7085541742524343,Right,Correct,0.0,0.0,-45,45,2016,1009,-0.85
"{'cat': 'II', 'resp': 'reach'}",20,274,Right,43.59340693799195,15.489294843496516,2.1796703468995973,0.24330527444807462,Right,Correct,0.0,0.0,-45,45,2008,2588,-0.85
"{'cat': 'II', 'resp': 'reach'}",20,275,Right,59.24030979585404,39.445735217963794,2.9620154897927016,0.6196121598810161,Right,Correct,0.0,0.0,-45,45,2004,2216,-0.83
"{'cat': 'II', 'resp': 'reach'}",20,276,Left,48.882924416572095,77.88771357444578,2.444146220828605,1.2234573438519243,Left,Correct,0.0,0.0,-45,45,2012,1846,-2.48
"{'cat': 'II', 'resp': 'reach'}",20,277,Right,71.48366838990081,50.3349431212344,3.5741834194950406,0.7906594376426503,Right,Correct,0.0,0.0,-45,45,2008,1437,-0.83
"{'cat': 'II', 'resp': 'reach'}",20,278,Left,61.20701354944997,81.34800554524358,3.0603506774724987,1.2778114830255949,Left,Correct,0.0,0.0,-45,45,2016,2017,-2.45
"{'cat': 'II', 'resp': 'reach'}",20,279,Right,77.98372199575144,64.03004090785704,3.8991860997875722,1.0057815306258882,Right,Correct,0.0,0.0,-45,45,2004,1321,-0.82
"{'cat': 'II', 'resp': 'reach'}",20,280,Right,66.07949206540131,35.27382452458498,3.3039746032700656,0.5540799399522582,Right,Correct,0.0,0.0,-45,45,2004,1458,-0.87
"{'cat': 'II', 'resp': 'reach'}",20,281,Left,38.477316568600166,69.19395099337996,1.9238658284300083,1.0868960405682733,Left,Correct,0.0,0.0,-45,45,2004,1117,-2.38
"{'cat': 'II', 'resp': 'reach'}",20,282,Left,34.23645730490952,63.21475844830711,1.711822865245476,0.9929751036982746,Left,Correct,0.0,0.0,-45,45,2009,825,-2.48
"{'cat': 'II', 'resp': 'reach'}",20,283,Right,66.53696334532565,37.14806665264987,3.3268481672662826,0.583520466455144,Right,Correct,0.0,0.0,-45,45,2004,1037,-0.84
"{'cat': 'II', 'resp': 'reach'}",20,284,Right,54.92665110346156,48.152470139803576,2.746332555173078,0.7563772322170441,Right,Correct,0.0,0.0,-45,45,2004,946,-0.82
"{'cat': 'II', 'resp': 'reach'}",20,285,Right,38.049297766764916,26.3250078774822,1.9024648883382458,0.4135122567679575,Left,Incorrect,0.0,0.0,-45,45,2004,1604,-2.39
"{'cat': 'II', 'resp': 'reach'}",20,286,Right,58.71708779979281,44.084889430349,2.9358543899896405,0.6924838238435137,Right,Correct,0.0,0.0,-45,45,2004,796,-0.91
"{'cat': 'II', 'resp': 'reach'}",20,287,Right,45.4704989067629,21.54051226110182,2.2735249453381448,0.33835757537019173,Right,Correct,0.0,0.0,-45,45,2004,975,-0.88
"{'cat': 'II', 'resp': 'reach'}",20,288,Right,75.28240669142465,51.3116048459257,3.7641203345712326,0.8060008041393131,Right,Correct,0.0,0.0,-45,45,2004,1541,-0.87
"{'cat': 'II', 'resp': 'reach'}",20,289,Right,51.52131346256871,39.28863638280746,2.576065673128436,0.617144457148943,Right,Correct,0.0,0.0,-45,45,2004,2600,-0.78
"{'cat': 'II', 'resp': 'reach'}",20,290,Left,67.54502241566206,84.17142021934602,3.377251120783103,1.322161577016584,Right,Incorrect,0.0,0.0,-45,45,2004,1683,-0.88
"{'cat': 'II', 'resp': 'reach'}",20,291,Left,13.977876733715409,35.498022949902975,0.6988938366857704,0.5576016405818852,Left,Correct,0.0,0.0,-45,45,2012,1209,-2.41
"{'cat': 'II', 'resp': 'reach'}",20,292,Right,73.05347127449143,63.06820924824042,3.652673563724571,0.9906731142466798,Right,Correct,0.0,0.0,-45,45,2012,2279,-0.79
"{'cat': 'II', 'resp': 'reach'}",20,293,Left,33.912425611721986,52.4667567463096,1.695621280586099,0.8241458877594448,Right,Incorrect,0.0,0.0,-45,45,2004,3163,-0.86
"{'cat': 'II', 'resp': 'reach'}",20,294,Left,38.6310735439276,51.83611698040395,1.9315536771963797,0.8142398214812909,Left,Correct,0.0,0.0,-45,45,2005,3245,-2.53
"{'cat': 'II', 'resp': 'reach'}",20,295,Left,64.10539663679221,75.52874789046763,3.20526983183961,1.1864027975376434,Right,Incorrect,0.0,0.0,-45,45,2012,1384,-0.82
"{'cat': 'II', 'resp': 'reach'}",20,296,Left,11.631649081844898,30.43934813143857,0.581582454092245,0.4781401623489481,Left,Correct,0.0,0.0,-45,45,2004,3113,-2.48
"{'cat': 'II', 'resp': 'reach'}",20,297,Right,45.297532008052116,30.619936182896176,2.264876600402606,0.4809768328278746,Right,Correct,0.0,0.0,-45,45,2004,4038,-0.77
"{'cat': 'II', 'resp': 'reach'}",20,298,Right,77.79207183528763,53.966179926443075,3.8896035917643816,0.8476987719960927,Right,Correct,0.0,0.0,-45,45,2004,1367,-0.85
"{'cat': 'II', 'resp': 'reach'}",20,299,Right,84.74113193677438,60.64931603136193,4.237056596838719,0.9526772284468614,Right,Correct,0.0,0.0,-45,45,2004,1492,-0.78
"{'cat': 'II', 'resp': 'reach'}",20,300,Left,36.44563223807134,54.831716656800786,1.822281611903567,0.8612945911636121,Left,Correct,0.0,0.0,-45,45,2008,2729,-2.47
"{'cat': 'II', 'resp': 'reach'}",20,301,Right,49.548031932263925,29.764367151468498,2.4774015966131966,0.4675375859090139,Right,Correct,0.0,0.0,-45,45,2008,2054,-0.85
"{'cat': 'II', 'resp': 'reach'}",20,302,Left,63.90061468228109,88.04389549599713,3.1950307341140545,1.3829902764182602,Left,Correct,0.0,0.0,-45,45,2004,1279,-2.44
"{'cat': 'II', 'resp': 'reach'}",20,303,Right,51.36863931305423,27.411286676518984,2.568431965652712,0.43057548424197906,Right,Correct,0.0,0.0,-45,45,2004,1371,-0.81
"{'cat': 'II', 'resp': 'reach'}",20,304,Right,56.22679619487068,41.30059078571462,2.811339809743534,0.6487481630065967,Right,Correct,0.0,0.0,-45,45,2004,1609,-0.82
"{'cat': 'II', 'resp': 'reach'}",20,305,Right,39.49907576401371,24.745403624097328,1.9749537882006853,0.38869989117789205,Right,Correct,0.0,0.0,-45,45,2004,2459,-0.87
"{'cat': 'II', 'resp': 'reach'}",20,306,Left,14.926620706676768,43.690728318049025,0.7463310353338385,0.6862923555698518,Left,Correct,0.0,0.0,-45,45,2012,917,-2.44
"{'cat': 'II', 'resp': 'reach'}",20,307,Right,35.967332593617584,24.951988154186157,1.7983666296808791,0.3919449133882538,Right,Correct,0.0,0.0,-45,45,2004,1600,-0.82
"{'cat': 'II', 'resp': 'reach'}",20,308,Left,15.056300003388628,39.60721845671649,0.7528150001694314,0.6221487326637328,Left,Correct,0.0,0.0,-45,45,2017,925,-2.53
"{'cat': 'II', 'resp': 'reach'}",20,309,Right,70.34658060811394,57.26468723306492,3.5173290304056968,0.8995116036075697,Right,Correct,0.0,0.0,-45,45,2004,1459,-0.79
"{'cat': 'II', 'resp': 'reach'}",20,310,Left,31.460121541989345,51.19069781040482,1.5730060770994672,0.8041016008665145,Left,Correct,0.0,0.0,-45,45,2004,2025,-2.45
"{'cat': 'II', 'resp': 'reach'}",20,311,Left,42.37712218087506,54.271159294775,2.118856109043753,0.8524893767113327,Left,Correct,0.0,0.0,-45,45,2013,2387,-2.47
"{'cat': 'II', 'resp': 'reach'}",20,312,Right,35.25402825954684,10.711778382200055,1.762701412977342,0.16826022136200827,Right,Correct,0.0,0.0,-45,45,2004,1234,-0.86
"{'cat': 'II', 'resp': 'reach'}",20,313,Left,56.31758739092848,71.3989102570595,2.815879369546424,1.1215314596894752,Right,Incorrect,0.0,0.0,-45,45,2017,1158,-0.84
"{'cat': 'II', 'resp': 'reach'}",20,314,Right,42.49811380230073,32.47392656356825,2.1249056901150367,0.5100992456266021,Right,Correct,0.0,0.0,-45,45,2012,1088,-0.92
"{'cat': 'II', 'resp': 'reach'}",20,315,Left,13.695999110202287,32.443732304604936,0.6847999555101143,0.5096249553159035,Left,Correct,0.0,0.0,-45,45,2012,929,-2.45
"{'cat': 'II', 'resp': 'reach'}",20,316,Left,53.864941515087956,70.61107919790703,2.693247075754398,1.109156238350959,Right,Incorrect,0.0,0.0,-45,45,2004,1662,-0.87
"{'cat': 'II', 'resp': 'reach'}",20,317,Left,45.871758841752346,68.35425209124068,2.2935879420876173,1.0737060810573322,Left,Correct,0.0,0.0,-45,45,2012,2217,-2.31
"{'cat': 'II', 'resp': 'reach'}",20,318,Left,25.86444314606208,51.078108287586915,1.293222157303104,0.8023330487777349,Left,Correct,0.0,0.0,-45,45,2004,1009,-2.51
"{'cat': 'II', 'resp': 'reach'}",20,319,Left,45.88144219170817,73.81557568214423,2.2940721095854086,1.1594923514176285,Left,Correct,0.0,0.0,-45,45,2012,2492,-2.44
"{'cat': 'II', 'resp': 'reach'}",20,320,Left,51.5145297070682,70.29555245843082,2.57572648535341,1.1041999559172109,Left,Correct,0.0,0.0,-45,45,2009,1137,-2.35
"{'cat': 'II', 'resp': 'reach'}",20,321,Left,50.87568588803216,69.99651158469418,2.543784294401608,1.0995026328569404,Left,Correct,0.0,0.0,-45,45,2013,858,-2.45
"{'cat': 'II', 'resp': 'reach'}",20,322,Right,46.263070938861816,24.59846831983823,2.3131535469430906,0.38639183681582523,Right,Correct,0.0,0.0,-45,45,2004,975,-0.84
"{'cat': 'II', 'resp': 'reach'}",20,323,Right,47.99170824678451,20.74469692690991,2.399585412339226,0.32585693733263466,Right,Correct,0.0,0.0,-45,45,2004,925,-0.86
"{'cat': 'II', 'resp': 'reach'}",20,324,Right,61.237071829589276,37.42374039539711,3.061853591479464,0.5878507394801556,Right,Correct,0.0,0.0,-45,45,2005,845,-0.83
"{'cat': 'II', 'resp': 'reach'}",20,325,Left,38.96181918980404,66.66664070413339,1.9480909594902018,1.0471971433780785,Right,Incorrect,0.0,0.0,-45,45,2008,1658,-0.88
"{'cat': 'II', 'resp': 'reach'}",20,326,Right,64.24414195459332,54.37166329889218,3.212207097729666,0.8540680899162874,Right,Correct,0.0,0.0,-45,45,2009,2325,-0.84
"{'cat': 'II', 'resp': 'reach'}",20,327,Left,36.25348766072684,61.89215502684413,1.812674383036342,0.9721996977358706,Left,Correct,0.0,0.0,-45,45,2004,1450,-2.35
"{'cat': 'II', 'resp': 'reach'}",20,328,Left,26.150288288643765,50.985864510412696,1.3075144144321882,0.8008840869141854,Left,Correct,0.0,0.0,-45,45,2004,1008,-2.47
"{'cat': 'II', 'resp': 'reach'}",20,329,Right,32.200349879439855,14.777950776390107,1.6100174939719927,0.2321315079710937,Right,Correct,0.0,0.0,-45,45,2008,1850,-0.84
"{'cat': 'II', 'resp': 'reach'}",20,330,Right,62.06911698680396,52.394143560045414,3.1034558493401985,0.8230052824968382,Right,Correct,0.0,0.0,-45,45,2009,741,-0.79
"{'cat': 'II', 'resp': 'reach'}",20,331,Right,46.19881445751897,21.747559339245555,2.3099407228759485,0.34160986326840964,Right,Correct,0.0,0.0,-45,45,2009,1037,-0.88
"{'cat': 'II', 'resp': 'reach'}",20,332,Left,51.65486172687753,82.47853736203484,2.5827430863438763,1.2955698352769998,Left,Correct,0.0,0.0,-45,45,2004,1791,-2.52
"{'cat': 'II', 'resp': 'reach'}",20,333,Left,45.73145889683536,69.07453274635121,2.286572944841768,1.085020223130423,Left,Correct,0.0,0.0,-45,45,2004,1400,-2.42
"{'cat': 'II', 'resp': 'reach'}",20,334,Right,45.670894508643016,18.460831448133018,2.283544725432151,0.28998206228307055,Right,Correct,0.0,0.0,-45,45,2004,696,-0.83
"{'cat': 'II', 'resp': 'reach'}",20,335,Left,38.55110782917565,47.94108319305937,1.9275553914587824,0.7530567738222621,Right,Incorrect,0.0,0.0,-45,45,2008,854,-0.88
"{'cat': 'II', 'resp': 'reach'}",20,336,Right,62.628189055740386,44.18509820418728,3.131409452787019,0.6940578995820915,Right,Correct,0.0,0.0,-45,45,2008,746,-0.83
"{'cat': 'II', 'resp': 'reach'}",20,337,Left,51.57810837767304,63.4079805923399,2.578905418883652,0.996010230039296,Left,Correct,0.0,0.0,-45,45,2004,1333,-2.43
"{'cat': 'II', 'resp': 'reach'}",20,338,Left,49.80550702184089,65.03508478112855,2.4902753510920443,1.021568722869914,Left,Correct,0.0,0.0,-45,45,2017,5733,-2.58
"{'cat': 'II', 'resp': 'reach'}",20,339,Right,56.47120570330829,40.73541485059765,2.823560285165415,0.6398704001778507,Right,Correct,0.0,0.0,-45,45,2004,946,-0.84
"{'cat': 'II', 'resp': 'reach'}",20,340,Right,81.94806129592368,51.8496915966614,4.097403064796184,0.8144530510548394,Right,Correct,0.0,0.0,-45,45,2013,1137,-0.85
"{'cat': 'II', 'resp': 'reach'}",20,341,Right,61.736393668206,38.833129263426336,3.0868196834102997,0.609989368049415,Right,Correct,0.0,0.0,-45,45,2004,846,-0.84
"{'cat': 'II', 'resp': 'reach'}",20,342,Left,37.80809620209375,52.90172434190893,1.8904048101046873,0.8309783427738672,Left,Correct,0.0,0.0,-45,45,2004,738,-2.38
"{'cat': 'II', 'resp': 'reach'}",20,343,Right,53.03872948861354,35.68047234283604,2.6519364744306766,0.5604675489443375,Right,Correct,0.0,0.0,-45,45,2012,759,-0.89
"{'cat': 'II', 'resp': 'reach'}",20,344,Left,16.755502238773982,40.298527227745666,0.8377751119386991,0.6330077854458702,Left,Correct,0.0,0.0,-45,45,2004,767,-2.3
"{'cat': 'II', 'resp': 'reach'}",20,345,Left,15.541549909017228,39.935726895282926,0.7770774954508614,0.6273089311499458,Left,Correct,0.0,0.0,-45,45,2004,846,-2.55
"{'cat': 'II', 'resp': 'reach'}",20,346,Left,20.809058659927285,42.56522041307841,1.0404529329963643,0.6686129187407872,Left,Correct,0.0,0.0,-45,45,2013,758,-2.44
"{'cat': 'II', 'resp': 'reach'}",20,347,Right,68.89841696913332,58.63249102604047,3.4449208484566665,0.9209970153453909,Right,Correct,0.0,0.0,-45,45,2009,845,-0.81
"{'cat': 'II', 'resp': 'reach'}",20,348,Right,62.572290996392034,44.23665243886951,3.1286145498196016,0.6948677116067873,Right,Correct,0.0,0.0,-45,45,2004,704,-0.79
"{'cat': 'II', 'resp': 'reach'}",20,349,Left,66.22935885311513,83.67521776293523,3.3114679426557565,1.3143672470578174,Left,Correct,0.0,0.0,-45,45,2004,966,-2.5
"{'cat': 'II', 'resp': 'reach'}",20,350,Right,40.64221443101868,15.771670207398188,2.032110721550934,0.2477408162920158,Right,Correct,0.0,0.0,-45,45,2004,904,-0.83
"{'cat': 'II', 'resp': 'reach'}",20,351,Right,76.55200358963968,53.27389275005663,3.8276001794819843,0.8368243504585422,Right,Correct,0.0,0.0,-45,45,2004,1125,-0.77
"{'cat': 'II', 'resp': 'reach'}",20,352,Right,48.13218961137208,32.46664436040932,2.4066094805686036,0.5099848570468719,Right,Correct,0.0,0.0,-45,45,2004,692,-0.85
"{'cat': 'II', 'resp': 'reach'}",20,353,Right,73.67664284108197,51.00201904225871,3.6838321420540985,0.8011378417070336,Right,Correct,0.0,0.0,-45,45,2017,1537,-0.88
"{'cat': 'II', 'resp': 'reach'}",20,354,Right,50.81497708102681,41.341395551245235,2.5407488540513405,0.6493891227647091,Right,Correct,0.0,0.0,-45,45,2013,946,-0.85
"{'cat': 'II', 'resp': 'reach'}",20,355,Right,48.51264967182619,23.104771822137376,2.4256324835913095,0.3629289070964762,Right,Correct,0.0,0.0,-45,45,2005,775,-0.81
"{'cat': 'II', 'resp': 'reach'}",20,356,Right,52.723003718926066,25.746212593777376,2.6361501859463035,0.40442056171186,Right,Correct,0.0,0.0,-45,45,2008,692,-0.8
"{'cat': 'II', 'resp': 'reach'}",20,357,Left,48.29991607149719,72.84476353114088,2.4149958035748593,1.1442428698095894,Left,Correct,0.0,0.0,-45,45,2004,825,-2.58
"{'cat': 'II', 'resp': 'reach'}",20,358,Right,75.28291363563052,60.43642992720025,3.764145681781526,0.9493332213424333,Right,Correct,0.0,0.0,-45,45,2009,1037,-0.87
"{'cat': 'II', 'resp': 'reach'}",20,359,Left,25.11657685489903,42.98358957030956,1.2558288427449513,0.6751846460950168,Left,Correct,0.0,0.0,-45,45,2004,846,-2.34
"{'cat': 'II', 'resp': 'reach'}",20,360,Left,12.37105800882755,31.020618222807702,0.6185529004413775,0.48727073159293166,Left,Correct,0.0,0.0,-45,45,2009,804,-2.47
"{'cat': 'II', 'resp': 'reach'}",20,361,Left,29.15321790565551,52.09327213116048,1.4576608952827754,0.8182792051435384,Right,Incorrect,0.0,0.0,-45,45,2004,746,-0.82
"{'cat': 'II', 'resp': 'reach'}",20,362,Right,67.214429335153,37.95666227840728,3.36072146675765,0.5962218568431656,Right,Correct,0.0,0.0,-45,45,2004,1333,-0.82
"{'cat': 'II', 'resp': 'reach'}",20,363,Left,59.42856137813586,84.10422087083333,2.971428068906793,1.3211060121185167,Left,Correct,0.0,0.0,-45,45,2005,895,-2.39
"{'cat': 'II', 'resp': 'reach'}",20,364,Left,56.95529300714303,70.5626561563275,2.8477646503571514,1.1083956109925053,Left,Correct,0.0,0.0,-45,45,2012,796,-2.4
"{'cat': 'II', 'resp': 'reach'}",20,365,Right,57.14442415424176,48.642415956188785,2.857221207712088,0.7640732831041083,Right,Correct,0.0,0.0,-45,45,2004,1038,-0.82
"{'cat': 'II', 'resp': 'reach'}",20,366,Right,75.65814940102908,61.26141579055506,3.7829074700514536,0.9622920689805877,Right,Correct,0.0,0.0,-45,45,2008,884,-0.86
"{'cat': 'II', 'resp': 'reach'}",20,367,Left,49.11380615565566,65.56495111583867,2.455690307782783,1.0298918437924633,Left,Correct,0.0,0.0,-45,45,2017,1137,-2.34
"{'cat': 'II', 'resp': 'reach'}",20,368,Right,38.73424372991532,24.806047215221422,1.936712186495766,0.3896524784797058,Right,Correct,0.0,0.0,-45,45,2013,687,-0.87
"{'cat': 'II', 'resp': 'reach'}",20,369,Right,60.54037796966838,45.64674805581195,3.0270188984834188,0.7170174417620149,Right,Correct,0.0,0.0,-45,45,2004,1096,-0.71
"{'cat': 'II', 'resp': 'reach'}",20,370,Right,77.78359245025118,55.52910704498484,3.8891796225125588,0.8722491737646282,Right,Correct,0.0,0.0,-45,45,2008,863,-0.79
"{'cat': 'II', 'resp': 'reach'}",20,371,Left,32.69111551807645,46.26526541143753,1.6345557759038227,0.7267330896647707,Left,Correct,0.0,0.0,-45,45,2008,1925,-2.31
"{'cat': 'II', 'resp': 'reach'}",20,372,Right,41.84334956371046,30.993205326063567,2.092167478185523,0.4868401308178068,Right,Correct,0.0,0.0,-45,45,2004,775,-0.87
"{'cat': 'II', 'resp': 'reach'}",20,373,Right,45.44292667378964,29.778795095117303,2.2721463336894825,0.4677642195178814,Right,Correct,0.0,0.0,-45,45,2005,866,-0.79
"{'cat': 'II', 'resp': 'reach'}",20,374,Left,69.0683553740599,85.93394459697893,3.4534177687029954,1.3498472451993067,Left,Correct,0.0,0.0,-45,45,2004,954,-2.24
"{'cat': 'II', 'resp': 'reach'}",20,375,Left,22.270202216779825,34.59777644252816,1.1135101108389913,0.5434606015119424,Left,Correct,0.0,0.0,-45,45,2017,884,-2.54
"{'cat': 'II', 'resp': 'reach'}",20,376,Right,53.71619803599276,32.8413155064108,2.685809901799638,0.5158701776458237,Right,Correct,0.0,0.0,-45,45,2017,712,-0.82
"{'cat': 'II', 'resp': 'reach'}",20,377,Left,25.496051712290317,36.53970717681213,1.274802585614516,0.5739643781549761,Right,Incorrect,0.0,0.0,-45,45,2004,846,-0.88
"{'cat': 'II', 'resp': 'reach'}",20,378,Left,33.537531864350036,63.039420337877424,1.6768765932175018,0.9902208991001735,Left,Correct,0.0,0.0,-45,45,2016,1763,-2.4
"{'cat': 'II', 'resp': 'reach'}",20,379,Right,79.44265763892132,58.361627409691735,3.972132881946066,0.9167422996091613,Right,Correct,0.0,0.0,-45,45,2004,1350,-0.78
"{'cat': 'II', 'resp': 'reach'}",20,380,Left,30.685741840583205,45.07646094493739,1.5342870920291602,0.7080593927722126,Left,Correct,0.0,0.0,-45,45,2005,899,-2.43
"{'cat': 'II', 'resp': 'reach'}",20,381,Right,40.7473225380025,15.88666259684095,2.037366126900125,0.24954711252147635,Right,Correct,0.0,0.0,-45,45,2009,2508,-0.75
"{'cat': 'II', 'resp': 'reach'}",20,382,Left,45.969835273137384,76.17785392293118,2.298491763656869,1.1965989312525849,Left,Correct,0.0,0.0,-45,45,2005,979,-2.38
"{'cat': 'II', 'resp': 'reach'}",20,383,Right,38.70336867100169,25.882067430521786,1.9351684335500847,0.40655456449721455,Right,Correct,0.0,0.0,-45,45,2004,796,-0.78
"{'cat': 'II', 'resp': 'reach'}",20,384,Right,86.7409022330923,66.1668201140173,4.337045111654615,1.0393459799079705,Right,Correct,0.0,0.0,-45,45,2004,1438,-0.8
"{'cat': 'II', 'resp': 'reach'}",20,385,Left,38.93731445608078,55.240183033299445,1.9468657228040387,0.8677107660018453,Left,Correct,0.0,0.0,-45,45,2017,925,-2.48
"{'cat': 'II', 'resp': 'reach'}",20,386,Left,35.32672857370391,67.816629460524,1.7663364286851957,1.0652611245220167,Left,Correct,0.0,0.0,-45,45,2008,1921,-2.38
"{'cat': 'II', 'resp': 'reach'}",20,387,Right,56.75754638138992,30.103859857353942,2.837877319069496,0.4728703248627992,Right,Correct,0.0,0.0,-45,45,2004,938,-0.84
"{'cat': 'II', 'resp': 'reach'}",20,388,Right,61.22536598461713,49.528262176031014,3.0612682992308566,0.7779881229864414,Right,Correct,0.0,0.0,-45,45,2005,816,-0.78
"{'cat': 'II', 'resp': 'reach'}",20,389,Right,36.15490888342865,23.79882472573154,1.8077454441714322,0.37383106461214666,Right,Correct,0.0,0.0,-45,45,2004,3233,-0.82
"{'cat': 'II', 'resp': 'reach'}",20,390,Left,34.956768053115546,45.13951888608727,1.7478384026557774,0.7090499045955474,Left,Correct,0.0,0.0,-45,45,2004,2441,-2.43
"{'cat': 'II', 'resp': 'reach'}",20,391,Left,14.587474088041994,32.521019687747724,0.7293737044020997,0.5108389826913864,Left,Correct,0.0,0.0,-45,45,2009,933,-2.33
"{'cat': 'II', 'resp': 'reach'}",20,392,Left,52.46279256564138,73.09438188822537,2.623139628282069,1.1481638657936784,Left,Correct,0.0,0.0,-45,45,2012,1021,-2.41
"{'cat': 'II', 'resp': 'reach'}",20,393,Left,10.085357264412746,33.15154259393698,0.5042678632206373,0.5207432133414076,Left,Correct,0.0,0.0,-45,45,2012,917,-2.51
"{'cat': 'II', 'resp': 'reach'}",20,394,Right,70.13671522576934,41.1127531544363,3.5068357612884666,0.6457976163941385,Right,Correct,0.0,0.0,-45,45,2004,788,-0.82
"{'cat': 'II', 'resp': 'reach'}",20,395,Left,21.673055118231215,33.20023155629653,1.0836527559115607,0.521508017773706,Left,Correct,0.0,0.0,-45,45,2009,904,-2.4
"{'cat': 'II', 'resp': 'reach'}",20,396,Left,45.3481734976947,66.82521357242032,2.267408674884735,1.049688000168423,Left,Correct,0.0,0.0,-45,45,2012,1867,-2.27
"{'cat': 'II', 'resp': 'reach'}",20,397,Right,84.37318230256042,57.582855339571864,4.218659115128021,0.9045093765376138,Right,Correct,0.0,0.0,-45,45,2012,888,-0.81
"{'cat': 'II', 'resp': 'reach'}",20,398,Left,36.67602487973052,47.48227845192253,1.8338012439865259,0.7458498858013238,Left,Correct,0.0,0.0,-45,45,2004,937,-2.43
"{'cat': 'II', 'resp': 'reach'}",20,399,Right,72.29699683788635,44.46130506634381,3.614849841894318,0.6983965468272018,Right,Correct,0.0,0.0,-45,45,2004,866,-0.85
