condition,subject,trial,cat,x,y,xt,yt,resp,fb,rotation,su,target_angle_left,target_angle_right,rt,mt,ep
"{'cat': 'II', 'resp': 'reach'}",56,0,Left,48.4261115662266,60.70527032894687,2.42130557831133,0.9535561564980096,Right,Incorrect,0.0,0.0,-45,45,2004,10368,-0.59
"{'cat': 'II', 'resp': 'reach'}",56,1,Left,67.0499528224185,86.39709711503768,3.3524976411209253,1.3571224279404315,Right,Incorrect,0.0,0.0,-45,45,2004,1905,-0.82
"{'cat': 'II', 'resp': 'reach'}",56,2,Right,72.63763973866733,47.75954542660321,3.6318819869333665,0.7502051852550232,Left,Incorrect,0.0,0.0,-45,45,2007,7499,-2.45
"{'cat': 'II', 'resp': 'reach'}",56,3,Left,46.007410500444365,74.5365587285665,2.300370525022218,1.1708175266276433,Right,Incorrect,0.0,0.0,-45,45,2010,6169,-0.64
"{'cat': 'II', 'resp': 'reach'}",56,4,Right,49.56467094209803,19.32747636477798,2.4782335471049013,0.30359528880008424,Right,Correct,0.0,0.0,-45,45,2007,13491,-0.69
"{'cat': 'II', 'resp': 'reach'}",56,5,Right,38.020934009729054,25.873519081317134,1.9010467004864526,0.4064202873419062,Right,Correct,0.0,0.0,-45,45,2012,9288,-0.77
"{'cat': 'II', 'resp': 'reach'}",56,6,Left,33.79792412003981,54.640503845320715,1.6898962060019904,0.858291027344522,Right,Incorrect,0.0,0.0,-45,45,2009,3252,-0.78
"{'cat': 'II', 'resp': 'reach'}",56,7,Left,37.32341323801847,65.22613363847843,1.8661706619009235,1.0245697113035497,Left,Correct,0.0,0.0,-45,45,2004,2176,-2.4
"{'cat': 'II', 'resp': 'reach'}",56,8,Left,47.464813669075276,74.6992524105766,2.373240683453764,1.1733731130085858,Left,Correct,0.0,0.0,-45,45,2014,18418,-2.37
"{'cat': 'II', 'resp': 'reach'}",56,9,Right,30.718485083536713,14.022653485483737,1.5359242541768356,0.22026732586915507,Left,Incorrect,0.0,0.0,-45,45,2004,15936,-2.5
"{'cat': 'II', 'resp': 'reach'}",56,10,Left,57.519158064063305,80.92806671007631,2.875957903203165,1.2712150992280022,Left,Correct,0.0,0.0,-45,45,2006,4233,-2.4
"{'cat': 'II', 'resp': 'reach'}",56,11,Right,61.624548503324576,31.929822536576637,3.081227425166229,0.5015524795566749,Right,Correct,0.0,0.0,-45,45,2005,17698,-0.67
"{'cat': 'II', 'resp': 'reach'}",56,12,Left,11.762035912508018,37.34572891391793,0.5881017956254009,0.5866253379946025,Right,Incorrect,0.0,0.0,-45,45,2013,23196,-0.68
"{'cat': 'II', 'resp': 'reach'}",56,13,Left,26.155772152174205,43.15868371718638,1.3077886076087102,0.6779350185225907,Right,Incorrect,0.0,0.0,-45,45,2004,1117,-0.77
"{'cat': 'II', 'resp': 'reach'}",56,14,Right,38.91019878411084,29.853377584101693,1.945509939205542,0.46893575851528047,Right,Correct,0.0,0.0,-45,45,2003,2361,-0.81
"{'cat': 'II', 'resp': 'reach'}",56,15,Left,37.71723498506674,60.52505015957796,1.885861749253337,0.9507252646974192,Left,Correct,0.0,0.0,-45,45,2013,2326,-2.4
"{'cat': 'II', 'resp': 'reach'}",56,16,Right,50.36811452438451,28.368669779072338,2.5184057262192256,0.44561402285024215,Left,Incorrect,0.0,0.0,-45,45,2014,3637,-2.48
"{'cat': 'II', 'resp': 'reach'}",56,17,Left,19.299065009375237,37.26591004493021,0.9649532504687619,0.5853715461324542,Left,Correct,0.0,0.0,-45,45,2009,12658,-2.27
"{'cat': 'II', 'resp': 'reach'}",56,18,Right,64.0595855825827,56.21083500070742,3.202979279129135,0.8829577314518521,Left,Incorrect,0.0,0.0,-45,45,2002,2318,-2.35
"{'cat': 'II', 'resp': 'reach'}",56,19,Right,60.74798478994853,41.519511982933295,3.0373992394974265,0.6521869691310831,Left,Incorrect,0.0,0.0,-45,45,2003,2150,-2.42
"{'cat': 'II', 'resp': 'reach'}",56,20,Left,38.87466702021307,70.24111411621334,1.9437333510106531,1.1033448404372908,Right,Incorrect,0.0,0.0,-45,45,2006,313,-0.7
"{'cat': 'II', 'resp': 'reach'}",56,21,Right,34.87588931832687,12.470762621453009,1.7437944659163436,0.19589028118109483,Right,Correct,0.0,0.0,-45,45,2002,1944,-0.72
"{'cat': 'II', 'resp': 'reach'}",56,22,Right,67.56572529252176,49.24579864038512,3.378286264626088,0.7735511961439806,Left,Incorrect,0.0,0.0,-45,45,2006,12067,-2.47
"{'cat': 'II', 'resp': 'reach'}",56,23,Right,54.71242887915291,29.127851097880654,2.735621443957646,0.4575392151197962,Left,Incorrect,0.0,0.0,-45,45,2003,4409,-2.35
"{'cat': 'II', 'resp': 'reach'}",56,24,Left,38.42529682400606,54.38092921900285,1.921264841200303,0.8542136386490294,Left,Correct,0.0,0.0,-45,45,2006,9488,-2.42
"{'cat': 'II', 'resp': 'reach'}",56,25,Left,50.06460511067533,76.91726972192896,2.5032302555337664,1.2082136474629832,Left,Correct,0.0,0.0,-45,45,2007,1024,-2.44
"{'cat': 'II', 'resp': 'reach'}",56,26,Right,36.02285340450797,24.647423505458463,1.8011426702253985,0.3871608230733234,Right,Correct,0.0,0.0,-45,45,2006,1107,-0.73
"{'cat': 'II', 'resp': 'reach'}",56,27,Right,58.06823781206821,49.857576112787484,2.9034118906034103,0.7831609742086355,Left,Incorrect,0.0,0.0,-45,45,2013,1138,-2.35
"{'cat': 'II', 'resp': 'reach'}",56,28,Left,41.31539585475755,53.13777670373364,2.0657697927378775,0.8346862446027223,Right,Incorrect,0.0,0.0,-45,45,2005,1720,-0.84
"{'cat': 'II', 'resp': 'reach'}",56,29,Right,59.583273253193006,46.013060414541314,2.9791636626596505,0.7227714628375316,Left,Incorrect,0.0,0.0,-45,45,2005,1193,-2.4
"{'cat': 'II', 'resp': 'reach'}",56,30,Left,48.800907526065714,58.04481129110788,2.440045376303286,0.911765763655752,Left,Correct,0.0,0.0,-45,45,2002,1021,-2.52
"{'cat': 'II', 'resp': 'reach'}",56,31,Left,21.13954923271777,43.86266366628125,1.0569774616358885,0.6889931097043457,Left,Correct,0.0,0.0,-45,45,2010,1138,-2.48
"{'cat': 'II', 'resp': 'reach'}",56,32,Left,13.175918497137218,31.445031879796097,0.6587959248568609,0.49393740572732137,Left,Correct,0.0,0.0,-45,45,2007,2090,-2.56
"{'cat': 'II', 'resp': 'reach'}",56,33,Right,59.99857937212958,35.65549855257025,2.999928968606479,0.5600752615641811,Left,Incorrect,0.0,0.0,-45,45,2012,905,-2.43
"{'cat': 'II', 'resp': 'reach'}",56,34,Right,75.20910243900593,59.232079981589976,3.760455121950297,0.9304153366350306,Right,Correct,0.0,0.0,-45,45,2006,2353,-0.7
"{'cat': 'II', 'resp': 'reach'}",56,35,Right,56.50094651560517,43.809833535425334,2.825047325780259,0.68816325594942,Right,Correct,0.0,0.0,-45,45,2006,1105,-0.77
"{'cat': 'II', 'resp': 'reach'}",56,36,Left,52.55831226837788,63.85570611453882,2.627915613418894,1.0030430860961201,Right,Incorrect,0.0,0.0,-45,45,2005,924,-0.79
"{'cat': 'II', 'resp': 'reach'}",56,37,Left,44.59928587568106,64.46397452222844,2.229964293784053,1.0125977439011624,Left,Correct,0.0,0.0,-45,45,2002,765,-2.4
"{'cat': 'II', 'resp': 'reach'}",56,38,Right,57.4260726496744,37.14867082992344,2.8713036324837202,0.5835299568495645,Left,Incorrect,0.0,0.0,-45,45,2005,761,-2.4
"{'cat': 'II', 'resp': 'reach'}",56,39,Right,88.38691981268454,63.84445618499794,4.419345990634227,1.0028663726161247,Left,Incorrect,0.0,0.0,-45,45,2007,5700,-2.35
"{'cat': 'II', 'resp': 'reach'}",56,40,Right,64.70946368284616,50.755987153887446,3.235473184142308,0.7972731818417536,Left,Incorrect,0.0,0.0,-45,45,2003,8347,-2.44
"{'cat': 'II', 'resp': 'reach'}",56,41,Left,39.25502661722593,57.34655702012396,1.9627513308612965,0.9007976112154482,Left,Correct,0.0,0.0,-45,45,2006,6210,-2.36
"{'cat': 'II', 'resp': 'reach'}",56,42,Right,53.241245587101986,23.044353884039356,2.662062279355099,0.3619798643441073,Left,Incorrect,0.0,0.0,-45,45,2003,2948,-2.26
"{'cat': 'II', 'resp': 'reach'}",56,43,Right,64.04544351031699,55.32566673786617,3.2022721755158496,0.8690535408931876,Right,Correct,0.0,0.0,-45,45,2007,2097,-0.73
"{'cat': 'II', 'resp': 'reach'}",56,44,Right,65.3207425377455,32.64555697072693,3.266037126887275,0.5127952097579139,Right,Correct,0.0,0.0,-45,45,2002,664,-0.76
"{'cat': 'II', 'resp': 'reach'}",56,45,Right,79.1424560922809,54.485566047406955,3.9571228046140448,0.8558572701060757,Left,Incorrect,0.0,0.0,-45,45,2007,995,-2.41
"{'cat': 'II', 'resp': 'reach'}",56,46,Left,19.75337093094874,34.321531551956085,0.987668546547437,0.5391213569178777,Right,Incorrect,0.0,0.0,-45,45,2007,20938,-0.68
"{'cat': 'II', 'resp': 'reach'}",56,47,Left,34.42495027614706,62.72936938669132,1.7212475138073529,0.9853506301477495,Left,Correct,0.0,0.0,-45,45,2001,1871,-2.34
"{'cat': 'II', 'resp': 'reach'}",56,48,Left,30.51596108289292,39.79414745867614,1.525798054144646,0.6250850065602296,Left,Correct,0.0,0.0,-45,45,2007,840,-2.42
"{'cat': 'II', 'resp': 'reach'}",56,49,Left,19.895803730359187,40.09692429806624,0.9947901865179594,0.629841014031755,Left,Correct,0.0,0.0,-45,45,2007,873,-2.39
"{'cat': 'II', 'resp': 'reach'}",56,50,Right,63.93459651638726,31.98162750458245,3.196729825819363,0.5023662300912074,Left,Incorrect,0.0,0.0,-45,45,2006,1240,-2.33
"{'cat': 'II', 'resp': 'reach'}",56,51,Left,26.95509772642716,49.155791661648905,1.347754886321358,0.7721373698281329,Right,Incorrect,0.0,0.0,-45,45,2005,552,-0.7
"{'cat': 'II', 'resp': 'reach'}",56,52,Right,43.78309065947889,29.974664576940732,2.1891545329739444,0.47084093014367606,Left,Incorrect,0.0,0.0,-45,45,2006,663,-2.35
"{'cat': 'II', 'resp': 'reach'}",56,53,Right,48.79256660794914,21.89311900444222,2.439628330397457,0.34389630914261377,Left,Incorrect,0.0,0.0,-45,45,2003,808,-2.35
"{'cat': 'II', 'resp': 'reach'}",56,54,Left,33.065546220912886,45.7737593324332,1.6532773110456445,0.719012530229797,Right,Incorrect,0.0,0.0,-45,45,2007,936,-0.74
"{'cat': 'II', 'resp': 'reach'}",56,55,Right,74.03830315235469,43.690208527944336,3.701915157617734,0.6862841907259802,Left,Incorrect,0.0,0.0,-45,45,2006,1072,-2.29
"{'cat': 'II', 'resp': 'reach'}",56,56,Left,28.816184795768056,60.24885597376972,1.4408092397884027,0.9463868165719226,Right,Incorrect,0.0,0.0,-45,45,2008,4038,-0.71
"{'cat': 'II', 'resp': 'reach'}",56,57,Right,73.9503042272645,52.582896997052494,3.697515211363225,0.8259702145520447,Right,Correct,0.0,0.0,-45,45,2010,1817,-0.78
"{'cat': 'II', 'resp': 'reach'}",56,58,Left,69.31189870063164,87.14265926145097,3.4655949350315827,1.3688336907502645,Right,Incorrect,0.0,0.0,-45,45,2001,625,-0.76
"{'cat': 'II', 'resp': 'reach'}",56,59,Left,51.33688259523587,67.9646307951106,2.566844129761794,1.0675859240493102,Left,Correct,0.0,0.0,-45,45,2003,16615,-2.45
"{'cat': 'II', 'resp': 'reach'}",56,60,Right,45.8576385607641,28.994869270762024,2.292881928038205,0.4554503414641121,Left,Incorrect,0.0,0.0,-45,45,2011,358,-2.43
"{'cat': 'II', 'resp': 'reach'}",56,61,Left,28.641266135877753,60.34953024788417,1.4320633067938877,0.9479682043717393,Left,Correct,0.0,0.0,-45,45,2014,600,-2.28
"{'cat': 'II', 'resp': 'reach'}",56,62,Left,53.368165439837384,78.25583490444723,2.6684082719918694,1.2292397801817356,Right,Incorrect,0.0,0.0,-45,45,2009,306,-0.7
"{'cat': 'II', 'resp': 'reach'}",56,63,Right,78.62035678594778,62.22849999938745,3.9310178392973887,0.9774829922099403,Right,Correct,0.0,0.0,-45,45,2005,292,-0.72
"{'cat': 'II', 'resp': 'reach'}",56,64,Left,57.712755079068664,85.31432718525546,2.8856377539534335,1.3401143176557728,Right,Incorrect,0.0,0.0,-45,45,2007,306,-0.7
"{'cat': 'II', 'resp': 'reach'}",56,65,Right,68.36004109279074,58.66331717419652,3.4180020546395373,0.9214812313483185,Right,Correct,0.0,0.0,-45,45,2007,284,-0.66
"{'cat': 'II', 'resp': 'reach'}",56,66,Left,23.901619760208725,47.72913753204423,1.195080988010436,0.7497275391642351,Left,Correct,0.0,0.0,-45,45,2009,341,-2.43
"{'cat': 'II', 'resp': 'reach'}",56,67,Right,73.28066308859228,47.40532550222195,3.664033154429614,0.7446411116940667,Left,Incorrect,0.0,0.0,-45,45,2001,299,-2.5
"{'cat': 'II', 'resp': 'reach'}",56,68,Left,39.140425653876264,54.79324164050364,1.9570212826938131,0.8606902270208828,Left,Correct,0.0,0.0,-45,45,2007,359,-2.5
"{'cat': 'II', 'resp': 'reach'}",56,69,Right,71.3607005163707,59.983921062181054,3.568035025818535,0.9422252287122903,Right,Correct,0.0,0.0,-45,45,2005,302,-0.66
"{'cat': 'II', 'resp': 'reach'}",56,70,Left,41.20575057998921,51.14958378199726,2.0602875289994604,0.8034557832184911,Left,Correct,0.0,0.0,-45,45,2008,378,-2.48
"{'cat': 'II', 'resp': 'reach'}",56,71,Right,60.887120289115394,34.42040895021736,3.04435601445577,0.5406745194577961,Right,Correct,0.0,0.0,-45,45,2012,309,-0.69
"{'cat': 'II', 'resp': 'reach'}",56,72,Left,16.797912088321535,33.57882238947299,0.8398956044160768,0.527454908674824,Left,Correct,0.0,0.0,-45,45,2001,361,-2.44
"{'cat': 'II', 'resp': 'reach'}",56,73,Right,47.21536306889948,36.390566335005985,2.360768153444974,0.5716216792901343,Right,Correct,0.0,0.0,-45,45,2003,309,-0.76
"{'cat': 'II', 'resp': 'reach'}",56,74,Left,65.87074725270665,80.30942486371008,3.2935373626353326,1.2614974958292653,Left,Correct,0.0,0.0,-45,45,2004,369,-2.49
"{'cat': 'II', 'resp': 'reach'}",56,75,Left,64.51295966616807,85.78551850983644,3.2256479833084035,1.3475157736744667,Right,Incorrect,0.0,0.0,-45,45,2006,338,-0.7
"{'cat': 'II', 'resp': 'reach'}",56,76,Right,49.187208762853494,25.992953438068213,2.459360438142675,0.4082963578306832,Right,Correct,0.0,0.0,-45,45,2003,342,-0.82
"{'cat': 'II', 'resp': 'reach'}",56,77,Left,67.70298936927952,86.89927911726619,3.3851494684639762,1.365010684385262,Left,Correct,0.0,0.0,-45,45,2001,415,-2.46
"{'cat': 'II', 'resp': 'reach'}",56,78,Right,69.91560127750175,47.14666095028338,3.4957800638750878,0.7405780184134951,Right,Correct,0.0,0.0,-45,45,2009,388,-0.7
"{'cat': 'II', 'resp': 'reach'}",56,79,Right,61.938889411238925,43.358196356508515,3.0969444705619464,0.6810689557325544,Left,Incorrect,0.0,0.0,-45,45,2003,437,-2.42
"{'cat': 'II', 'resp': 'reach'}",56,80,Left,57.11641628272393,68.61478431915585,2.8558208141361967,1.0777985117235407,Left,Correct,0.0,0.0,-45,45,2009,598,-2.46
"{'cat': 'II', 'resp': 'reach'}",56,81,Right,45.59811101035796,33.555673580291874,2.2799055505178982,0.5270912880305103,Right,Correct,0.0,0.0,-45,45,2006,435,-0.72
"{'cat': 'II', 'resp': 'reach'}",56,82,Left,60.443491095788936,74.29018830967078,3.0221745547894465,1.1669475491373202,Left,Correct,0.0,0.0,-45,45,2007,548,-2.48
"{'cat': 'II', 'resp': 'reach'}",56,83,Right,43.253128155902,32.05603409133308,2.1626564077951,0.5035350060227798,Right,Correct,0.0,0.0,-45,45,2003,376,-0.71
"{'cat': 'II', 'resp': 'reach'}",56,84,Right,37.261072095644046,16.803661794522156,1.8630536047822022,0.2639513022353915,Left,Incorrect,0.0,0.0,-45,45,2005,527,-2.44
"{'cat': 'II', 'resp': 'reach'}",56,85,Left,19.74470435707996,32.17058385811488,0.9872352178539981,0.5053343495517405,Left,Correct,0.0,0.0,-45,45,2013,452,-2.44
"{'cat': 'II', 'resp': 'reach'}",56,86,Left,50.226933877390664,69.68398588278882,2.511346693869533,1.094593490611121,Right,Incorrect,0.0,0.0,-45,45,2003,333,-0.66
"{'cat': 'II', 'resp': 'reach'}",56,87,Right,56.58405022615146,47.940390292843915,2.829202511307573,0.7530458897711294,Right,Correct,0.0,0.0,-45,45,2006,361,-0.72
"{'cat': 'II', 'resp': 'reach'}",56,88,Left,66.11081568934031,84.30188685823518,3.3055407844670155,1.3242109421879475,Left,Correct,0.0,0.0,-45,45,2014,385,-2.48
"{'cat': 'II', 'resp': 'reach'}",56,89,Right,70.60466567364932,37.528546953114464,3.530233283682466,0.58949703703902,Right,Correct,0.0,0.0,-45,45,2004,361,-0.72
"{'cat': 'II', 'resp': 'reach'}",56,90,Left,38.06444400241336,54.39597844911736,1.903222200120668,0.854450031402879,Left,Correct,0.0,0.0,-45,45,2004,450,-2.44
"{'cat': 'II', 'resp': 'reach'}",56,91,Left,68.2189499844445,87.66021235735782,3.4109474992222255,1.3769633957699827,Right,Incorrect,0.0,0.0,-45,45,2001,297,-0.73
"{'cat': 'II', 'resp': 'reach'}",56,92,Left,47.36522023570085,74.35512906874217,2.3682610117850427,1.1679676361954063,Right,Incorrect,0.0,0.0,-45,45,2013,323,-0.67
"{'cat': 'II', 'resp': 'reach'}",56,93,Left,27.620870028162933,42.351595024349706,1.3810435014081466,0.6652572989815354,Right,Incorrect,0.0,0.0,-45,45,2012,292,-0.71
"{'cat': 'II', 'resp': 'reach'}",56,94,Right,73.493931787675,55.73053187087403,3.67469658938375,0.8754131475309485,Right,Correct,0.0,0.0,-45,45,2004,338,-0.76
"{'cat': 'II', 'resp': 'reach'}",56,95,Right,59.60127473004007,46.09308372206826,2.9800637365020033,0.7240284660127446,Left,Incorrect,0.0,0.0,-45,45,2002,727,-2.31
"{'cat': 'II', 'resp': 'reach'}",56,96,Left,45.83870708496244,71.38389974177488,2.291935354248122,1.1212956750667515,Left,Correct,0.0,0.0,-45,45,2002,541,-2.39
"{'cat': 'II', 'resp': 'reach'}",56,97,Right,58.03401400384745,31.98974402721996,2.9017007001923725,0.5024937241306608,Right,Correct,0.0,0.0,-45,45,2009,366,-0.75
"{'cat': 'II', 'resp': 'reach'}",56,98,Right,67.31902374108736,57.262372077348985,3.365951187054368,0.8994752372266244,Left,Incorrect,0.0,0.0,-45,45,2009,402,-2.31
"{'cat': 'II', 'resp': 'reach'}",56,99,Left,25.8646860679404,56.189433004139495,1.2932343033970202,0.8826215496759023,Right,Incorrect,0.0,0.0,-45,45,2009,479,-0.84
"{'cat': 'II', 'resp': 'reach'}",56,100,Right,52.55045741285276,38.756333383918445,2.627522870642638,0.6087830611949752,Right,Correct,0.0,0.0,-45,45,2008,460,-0.75
"{'cat': 'II', 'resp': 'reach'}",56,101,Right,69.01488325376245,47.30576712413651,3.4507441626881223,0.743077252348084,Left,Incorrect,0.0,0.0,-45,45,2006,481,-2.32
"{'cat': 'II', 'resp': 'reach'}",56,102,Left,29.346553206362756,45.784110885536506,1.4673276603181378,0.7191751320457098,Right,Incorrect,0.0,0.0,-45,45,2001,481,-0.69
"{'cat': 'II', 'resp': 'reach'}",56,103,Left,46.37224369212332,73.17205828526642,2.3186121846061662,1.1493840037851857,Right,Incorrect,0.0,0.0,-45,45,2009,369,-0.78
"{'cat': 'II', 'resp': 'reach'}",56,104,Left,15.075039200747309,38.58502108181722,0.7537519600373654,0.6060920938462213,Right,Incorrect,0.0,0.0,-45,45,2006,369,-0.77
"{'cat': 'II', 'resp': 'reach'}",56,105,Left,44.324700602360636,65.69642861845485,2.216235030118032,1.0319570875741197,Right,Incorrect,0.0,0.0,-45,45,2008,347,-0.77
"{'cat': 'II', 'resp': 'reach'}",56,106,Left,54.91522441244379,62.73242845600853,2.7457612206221893,0.9853986818962184,Left,Correct,0.0,0.0,-45,45,2004,487,-2.31
"{'cat': 'II', 'resp': 'reach'}",56,107,Left,22.31086408622331,40.4888401616311,1.1155432043111657,0.6359972140207582,Right,Incorrect,0.0,0.0,-45,45,2010,375,-0.86
"{'cat': 'II', 'resp': 'reach'}",56,108,Right,55.22546419133904,24.48207622397207,2.761273209566952,0.38456355404927994,Right,Correct,0.0,0.0,-45,45,2004,382,-0.76
"{'cat': 'II', 'resp': 'reach'}",56,109,Right,52.59705426682989,27.85705679265771,2.6298527133414944,0.4375776248522355,Left,Incorrect,0.0,0.0,-45,45,2012,700,-2.45
"{'cat': 'II', 'resp': 'reach'}",56,110,Right,68.34701030919783,39.003873986585454,3.417350515459891,0.6126714198889945,Left,Incorrect,0.0,0.0,-45,45,2001,1347,-2.31
"{'cat': 'II', 'resp': 'reach'}",56,111,Right,80.28062026075703,62.524275652605326,4.014031013037852,0.9821290253062404,Left,Incorrect,0.0,0.0,-45,45,2006,10291,-2.33
"{'cat': 'II', 'resp': 'reach'}",56,112,Right,54.14168429592012,43.10887705133776,2.707084214796006,0.6771526572449417,Left,Incorrect,0.0,0.0,-45,45,2005,16609,-2.33
"{'cat': 'II', 'resp': 'reach'}",56,113,Left,51.16267303827864,59.31849562790618,2.558133651913932,0.9317727504331416,Right,Incorrect,0.0,0.0,-45,45,2001,375,-0.85
"{'cat': 'II', 'resp': 'reach'}",56,114,Right,56.16708963027948,36.394039444149826,2.8083544815139736,0.5716762347609912,Left,Incorrect,0.0,0.0,-45,45,2001,457,-2.29
"{'cat': 'II', 'resp': 'reach'}",56,115,Left,42.839179096076066,56.96861521956914,2.1419589548038034,0.8948609152949103,Right,Incorrect,0.0,0.0,-45,45,2010,375,-0.75
"{'cat': 'II', 'resp': 'reach'}",56,116,Right,67.99113766965746,52.28050039116489,3.399556883482873,0.8212201797744095,Right,Correct,0.0,0.0,-45,45,2001,433,-0.78
"{'cat': 'II', 'resp': 'reach'}",56,117,Right,63.96782919767337,44.37528158562688,3.1983914598836685,0.6970452931519191,Left,Incorrect,0.0,0.0,-45,45,2004,717,-2.28
"{'cat': 'II', 'resp': 'reach'}",56,118,Left,31.255576424943357,59.275750218957725,1.5627788212471676,0.9311013071195059,Right,Incorrect,0.0,0.0,-45,45,2009,7373,-0.73
"{'cat': 'II', 'resp': 'reach'}",56,119,Left,61.81662415376668,71.9615854373278,3.0908312076883337,1.1303699407529162,Right,Incorrect,0.0,0.0,-45,45,2005,2190,-0.75
"{'cat': 'II', 'resp': 'reach'}",56,120,Right,33.10914662334392,19.07403001444879,1.6554573311671958,0.2996141628387177,Left,Incorrect,0.0,0.0,-45,45,2001,743,-2.38
"{'cat': 'II', 'resp': 'reach'}",56,121,Left,37.12818465196051,50.32336093958625,1.8564092325980255,0.7904775051587586,Right,Incorrect,0.0,0.0,-45,45,2003,423,-0.7
"{'cat': 'II', 'resp': 'reach'}",56,122,Left,43.27653935986661,57.99506250949371,2.1638269679933306,0.9109843116215313,Left,Correct,0.0,0.0,-45,45,2008,412,-2.34
"{'cat': 'II', 'resp': 'reach'}",56,123,Right,81.93211624632484,51.88600622739235,4.096605812316242,0.8150234799404502,Left,Incorrect,0.0,0.0,-45,45,2002,407,-2.3
"{'cat': 'II', 'resp': 'reach'}",56,124,Left,24.25078495825388,38.5880132330909,1.2125392479126942,0.6061390944485205,Right,Incorrect,0.0,0.0,-45,45,2009,11197,-0.77
"{'cat': 'II', 'resp': 'reach'}",56,125,Right,67.24250633935475,48.56458488521223,3.362125316967737,0.7628507155001033,Left,Incorrect,0.0,0.0,-45,45,2004,12885,-2.37
"{'cat': 'II', 'resp': 'reach'}",56,126,Right,56.75351922562144,49.03855013062559,2.837675961281072,0.7702957441653407,Right,Correct,0.0,0.0,-45,45,2013,2227,-0.64
"{'cat': 'II', 'resp': 'reach'}",56,127,Right,72.89088022776241,46.86268594960757,3.6445440113881205,0.7361173495338638,Right,Correct,0.0,0.0,-45,45,2007,1032,-0.81
"{'cat': 'II', 'resp': 'reach'}",56,128,Right,56.09196112853211,42.092522112722115,2.8045980564266055,0.6611877912019686,Right,Correct,0.0,0.0,-45,45,2007,1582,-0.77
"{'cat': 'II', 'resp': 'reach'}",56,129,Left,60.28247104098301,68.84430749111874,3.0141235520491505,1.081403853277877,Right,Incorrect,0.0,0.0,-45,45,2009,915,-0.75
"{'cat': 'II', 'resp': 'reach'}",56,130,Right,37.36008796755891,26.229566735689342,1.8680043983779455,0.41201307081842425,Right,Correct,0.0,0.0,-45,45,2007,19090,-0.76
"{'cat': 'II', 'resp': 'reach'}",56,131,Left,45.927927019530316,55.37125655942107,2.296396350976516,0.8697696641355643,Right,Incorrect,0.0,0.0,-45,45,2003,4424,-0.8
"{'cat': 'II', 'resp': 'reach'}",56,132,Right,64.83091214377478,51.91608592107802,3.2415456071887387,0.8154959706639759,Right,Correct,0.0,0.0,-45,45,2012,1744,-0.73
"{'cat': 'II', 'resp': 'reach'}",56,133,Left,46.957679302581184,65.70372894000982,2.3478839651290593,1.0320717607569498,Right,Incorrect,0.0,0.0,-45,45,2003,6109,-0.75
"{'cat': 'II', 'resp': 'reach'}",56,134,Left,12.546904815435717,36.24724470195459,0.6273452407717859,0.5693703883426604,Left,Correct,0.0,0.0,-45,45,2011,16327,-2.36
"{'cat': 'II', 'resp': 'reach'}",56,135,Right,78.60870766212022,57.68048893652305,3.930435383106011,0.9060430014922408,Right,Correct,0.0,0.0,-45,45,2007,1531,-0.81
"{'cat': 'II', 'resp': 'reach'}",56,136,Right,67.27705496780939,34.669370659622636,3.363852748390469,0.5445852008442599,Right,Correct,0.0,0.0,-45,45,2002,1744,-0.81
"{'cat': 'II', 'resp': 'reach'}",56,137,Right,78.34431577314703,57.24454647705679,3.917215788657352,0.8991952333520052,Right,Correct,0.0,0.0,-45,45,2012,1232,-0.84
"{'cat': 'II', 'resp': 'reach'}",56,138,Left,23.83099906657787,53.21217692048214,1.1915499533288936,0.8358549204745352,Right,Incorrect,0.0,0.0,-45,45,2013,4054,-0.82
"{'cat': 'II', 'resp': 'reach'}",56,139,Left,28.601463729957633,44.04576458601556,1.4300731864978817,0.6918692522258598,Right,Incorrect,0.0,0.0,-45,45,2010,3264,-0.76
"{'cat': 'II', 'resp': 'reach'}",56,140,Left,20.891941649391345,34.73615675117125,1.0445970824695672,0.5456342743171155,Left,Correct,0.0,0.0,-45,45,2001,2580,-2.35
"{'cat': 'II', 'resp': 'reach'}",56,141,Left,27.873570074945416,39.41469459990543,1.3936785037472708,0.619124574992741,Right,Incorrect,0.0,0.0,-45,45,2009,2051,-0.79
"{'cat': 'II', 'resp': 'reach'}",56,142,Left,31.26584342005,62.772942358495555,1.5632921710024998,0.9860350727883258,Right,Incorrect,0.0,0.0,-45,45,2012,1923,-0.8
"{'cat': 'II', 'resp': 'reach'}",56,143,Left,31.893890187085773,47.80288630089897,1.5946945093542888,0.7508859821164618,Left,Correct,0.0,0.0,-45,45,2006,909,-2.47
"{'cat': 'II', 'resp': 'reach'}",56,144,Left,16.85025023204696,37.04492651378084,0.842512511602348,0.5819003449423381,Right,Incorrect,0.0,0.0,-45,45,2007,8394,-0.72
"{'cat': 'II', 'resp': 'reach'}",56,145,Right,57.50202185666342,41.13194687273886,2.875101092833171,0.6460991106162104,Right,Correct,0.0,0.0,-45,45,2001,1679,-0.82
"{'cat': 'II', 'resp': 'reach'}",56,146,Left,40.886203454302056,62.60910816946913,2.044310172715103,0.9834615713650646,Left,Correct,0.0,0.0,-45,45,2005,3127,-2.35
"{'cat': 'II', 'resp': 'reach'}",56,147,Right,65.13332111705449,47.396146907094725,3.2566660558527247,0.7444969346589568,Right,Correct,0.0,0.0,-45,45,2002,2918,-0.74
"{'cat': 'II', 'resp': 'reach'}",56,148,Right,45.97799747806526,21.143493260009897,2.298899873903263,0.332121215484362,Left,Incorrect,0.0,0.0,-45,45,2007,2057,-2.41
"{'cat': 'II', 'resp': 'reach'}",56,149,Right,67.86799767574223,41.57702975850918,3.3933998837871115,0.6530904562370832,Left,Incorrect,0.0,0.0,-45,45,2006,14543,-2.57
"{'cat': 'II', 'resp': 'reach'}",56,150,Left,24.55077437927076,35.086510940074746,1.227538718963538,0.5511376250471837,Left,Correct,0.0,0.0,-45,45,2008,6752,-2.27
"{'cat': 'II', 'resp': 'reach'}",56,151,Left,38.01520564221778,53.44755143447429,1.9007602821108889,0.8395521746945351,Left,Correct,0.0,0.0,-45,45,2005,932,-2.3
"{'cat': 'II', 'resp': 'reach'}",56,152,Right,76.95481347343316,57.633036961862125,3.847740673671658,0.9052976276172754,Right,Correct,0.0,0.0,-45,45,2004,2546,-0.81
"{'cat': 'II', 'resp': 'reach'}",56,153,Right,58.23626367568763,42.503495275079786,2.9118131837843815,0.6676433425403957,Right,Correct,0.0,0.0,-45,45,2014,9131,-0.83
"{'cat': 'II', 'resp': 'reach'}",56,154,Right,40.812255147007235,23.09080996995897,2.040612757350362,0.36270959483530524,Left,Incorrect,0.0,0.0,-45,45,2010,5898,-2.44
"{'cat': 'II', 'resp': 'reach'}",56,155,Right,75.94257354957222,46.099735064690194,3.797128677478611,0.7241329450583324,Right,Correct,0.0,0.0,-45,45,2002,1634,-0.68
"{'cat': 'II', 'resp': 'reach'}",56,156,Left,44.446926989856706,51.89726094301027,2.2223463494928355,0.8152002685999677,Right,Incorrect,0.0,0.0,-45,45,2004,3554,-0.71
"{'cat': 'II', 'resp': 'reach'}",56,157,Left,25.867032500219842,56.77828430210152,1.293351625010992,0.891871204234574,Left,Correct,0.0,0.0,-45,45,2002,5923,-2.37
"{'cat': 'II', 'resp': 'reach'}",56,158,Left,13.624354350653174,41.131187681198085,0.6812177175326588,0.6460871852633746,Left,Correct,0.0,0.0,-45,45,2012,1292,-2.34
"{'cat': 'II', 'resp': 'reach'}",56,159,Right,31.72276668413545,10.966054311805252,1.5861383342067725,0.17225437832417026,Left,Incorrect,0.0,0.0,-45,45,2005,5236,-2.33
"{'cat': 'II', 'resp': 'reach'}",56,160,Left,42.21957488810106,68.65793025120972,2.110978744405053,1.0784762464394042,Right,Incorrect,0.0,0.0,-45,45,2005,3834,-0.86
"{'cat': 'II', 'resp': 'reach'}",56,161,Left,61.62942754489579,81.58202826902888,3.0814713772447897,1.2814875033746798,Left,Correct,0.0,0.0,-45,45,2001,2183,-2.39
"{'cat': 'II', 'resp': 'reach'}",56,162,Left,43.476652622856804,68.07906972684208,2.17383263114284,1.0693835265853717,Right,Incorrect,0.0,0.0,-45,45,2003,6340,-0.78
"{'cat': 'II', 'resp': 'reach'}",56,163,Right,53.09714050325907,30.768286662954843,2.6548570251629537,0.48330711671941873,Right,Correct,0.0,0.0,-45,45,2003,5446,-0.76
"{'cat': 'II', 'resp': 'reach'}",56,164,Right,86.38750121424496,60.07045012736857,4.319375060712248,0.9435844240898658,Left,Incorrect,0.0,0.0,-45,45,2002,2484,-2.43
"{'cat': 'II', 'resp': 'reach'}",56,165,Right,52.75538462705998,28.481928710536877,2.637769231352999,0.44739308998545424,Right,Correct,0.0,0.0,-45,45,2007,2119,-0.71
"{'cat': 'II', 'resp': 'reach'}",56,166,Right,47.70785691621112,39.05187477939427,2.3853928458105558,0.6134254145792677,Right,Correct,0.0,0.0,-45,45,2009,2129,-0.72
"{'cat': 'II', 'resp': 'reach'}",56,167,Right,74.63410118545723,43.51843891493745,3.731705059272861,0.6835860399543183,Left,Incorrect,0.0,0.0,-45,45,2006,2848,-2.35
"{'cat': 'II', 'resp': 'reach'}",56,168,Right,67.8215163948037,40.4244409423543,3.3910758197401845,0.6349856334498736,Right,Correct,0.0,0.0,-45,45,2003,3523,-0.72
"{'cat': 'II', 'resp': 'reach'}",56,169,Left,47.067480672268815,68.79278192172691,2.3533740336134406,1.08059449152651,Right,Incorrect,0.0,0.0,-45,45,2005,2899,-0.88
"{'cat': 'II', 'resp': 'reach'}",56,170,Left,50.08786474723698,61.086190600245935,2.5043932373618487,0.9595396381275925,Right,Incorrect,0.0,0.0,-45,45,2002,1443,-0.77
"{'cat': 'II', 'resp': 'reach'}",56,171,Right,57.91403670323416,49.945128479614965,2.895701835161708,0.7845362435707837,Left,Incorrect,0.0,0.0,-45,45,2011,1502,-2.42
"{'cat': 'II', 'resp': 'reach'}",56,172,Right,83.29582387437198,66.73741756207163,4.164791193718599,1.0483089036627933,Right,Correct,0.0,0.0,-45,45,2006,1739,-0.82
"{'cat': 'II', 'resp': 'reach'}",56,173,Left,34.45683517301618,46.60056957581915,1.722841758650809,0.7320000351624673,Left,Correct,0.0,0.0,-45,45,2003,1352,-2.35
"{'cat': 'II', 'resp': 'reach'}",56,174,Left,22.36590351054201,40.79001617477714,1.1182951755271007,0.6407280757724435,Left,Correct,0.0,0.0,-45,45,2004,1163,-2.24
"{'cat': 'II', 'resp': 'reach'}",56,175,Left,53.42699916376095,83.40541443637994,2.6713499581880473,1.3101291863147166,Left,Correct,0.0,0.0,-45,45,2003,1883,-2.32
"{'cat': 'II', 'resp': 'reach'}",56,176,Left,67.90425416223249,81.31044521011998,3.395212708111625,1.2772214866611415,Right,Incorrect,0.0,0.0,-45,45,2005,4854,-0.65
"{'cat': 'II', 'resp': 'reach'}",56,177,Right,64.57011437695122,52.860259479897906,3.228505718847561,0.8303270142444873,Left,Incorrect,0.0,0.0,-45,45,2006,1584,-2.52
"{'cat': 'II', 'resp': 'reach'}",56,178,Left,51.947421760816724,80.75547235667645,2.5973710880408363,1.268503993464542,Left,Correct,0.0,0.0,-45,45,2009,1584,-2.34
"{'cat': 'II', 'resp': 'reach'}",56,179,Left,54.03638304863636,72.56065693029238,2.701819152431818,1.1397801337592792,Left,Correct,0.0,0.0,-45,45,2004,873,-2.36
"{'cat': 'II', 'resp': 'reach'}",56,180,Right,72.86002342041112,50.78719987302192,3.6430011710205563,0.7977634700874107,Right,Correct,0.0,0.0,-45,45,2008,5088,-0.79
"{'cat': 'II', 'resp': 'reach'}",56,181,Left,16.858497463172554,35.356247554257635,0.8429248731586277,0.5553746378747894,Left,Correct,0.0,0.0,-45,45,2001,764,-2.27
"{'cat': 'II', 'resp': 'reach'}",56,182,Left,38.61775948594427,56.0633451494459,1.9308879742972136,0.8806409662858409,Left,Correct,0.0,0.0,-45,45,2006,896,-2.31
"{'cat': 'II', 'resp': 'reach'}",56,183,Left,59.70777079743168,73.92388784795445,2.9853885398715843,1.1611937149396474,Right,Incorrect,0.0,0.0,-45,45,2002,4019,-0.79
"{'cat': 'II', 'resp': 'reach'}",56,184,Left,58.754002978334526,86.76466368982322,2.9377001489167265,1.3628961501956887,Right,Incorrect,0.0,0.0,-45,45,2006,1882,-0.65
"{'cat': 'II', 'resp': 'reach'}",56,185,Left,63.324633658603474,76.02284101369273,3.166231682930174,1.1941639941682094,Left,Correct,0.0,0.0,-45,45,2002,1475,-2.36
"{'cat': 'II', 'resp': 'reach'}",56,186,Right,72.23423391518277,47.58498993268001,3.6117116957591384,0.7474632739682588,Right,Correct,0.0,0.0,-45,45,2004,2042,-0.71
"{'cat': 'II', 'resp': 'reach'}",56,187,Left,43.773135714787564,72.92359524265876,2.1886567857393784,1.1454811554384619,Left,Correct,0.0,0.0,-45,45,2005,870,-2.35
"{'cat': 'II', 'resp': 'reach'}",56,188,Right,47.50079021419489,36.88943162312369,2.375039510709745,0.5794578369115418,Left,Incorrect,0.0,0.0,-45,45,2007,801,-2.42
"{'cat': 'II', 'resp': 'reach'}",56,189,Right,60.3691253193296,30.96621161851845,3.01845626596648,0.4864161146512223,Right,Correct,0.0,0.0,-45,45,2011,2537,-0.72
"{'cat': 'II', 'resp': 'reach'}",56,190,Left,47.60667880532816,61.49108583694425,2.380333940266408,0.9658997176330172,Left,Correct,0.0,0.0,-45,45,2003,3061,-2.38
"{'cat': 'II', 'resp': 'reach'}",56,191,Left,43.15594458101571,57.02739458265934,2.1577972290507854,0.8957842193712447,Left,Correct,0.0,0.0,-45,45,2005,3531,-2.41
"{'cat': 'II', 'resp': 'reach'}",56,192,Left,37.34840515199316,51.53814391040629,1.8674202575996584,0.8095592714429297,Left,Correct,0.0,0.0,-45,45,2002,1150,-2.41
"{'cat': 'II', 'resp': 'reach'}",56,193,Right,72.42501627632105,49.54081075752752,3.6212508138160526,0.7781852356436533,Right,Correct,0.0,0.0,-45,45,2006,3135,-0.71
"{'cat': 'II', 'resp': 'reach'}",56,194,Right,80.01942300222449,50.74600357231971,4.000971150111224,0.797116360109205,Right,Correct,0.0,0.0,-45,45,2007,1796,-0.72
"{'cat': 'II', 'resp': 'reach'}",56,195,Right,59.86717822789144,28.60211061250371,2.993358911394572,0.4492809028870216,Right,Correct,0.0,0.0,-45,45,2002,2187,-0.73
"{'cat': 'II', 'resp': 'reach'}",56,196,Left,39.673618084390064,67.94270497063138,1.9836809042195032,1.0672415140037714,Left,Correct,0.0,0.0,-45,45,2005,1231,-2.28
"{'cat': 'II', 'resp': 'reach'}",56,197,Right,75.72006477479673,47.20822177041053,3.786003238739836,0.7415450135147973,Right,Correct,0.0,0.0,-45,45,2010,4677,-0.63
"{'cat': 'II', 'resp': 'reach'}",56,198,Right,48.361901292386804,23.780990256903948,2.41809506461934,0.37355092143089946,Left,Incorrect,0.0,0.0,-45,45,2010,1250,-2.3
"{'cat': 'II', 'resp': 'reach'}",56,199,Left,57.610881174645634,81.21730546232821,2.8805440587322817,1.2757584509240425,Right,Incorrect,0.0,0.0,-45,45,2009,1791,-0.68
"{'cat': 'II', 'resp': 'reach'}",56,200,Left,13.827429218181223,38.56776787012522,0.6913714609090611,0.6058210810307093,Left,Correct,0.0,0.0,-45,45,2003,929,-2.3
"{'cat': 'II', 'resp': 'reach'}",56,201,Right,47.35562207419001,22.707029943392765,2.3677811037095005,0.3566811922750308,Left,Incorrect,0.0,0.0,-45,45,2008,632,-2.49
"{'cat': 'II', 'resp': 'reach'}",56,202,Right,80.62117979428527,53.55078131096812,4.031058989714263,0.8411737058026552,Right,Correct,0.0,0.0,-45,45,2003,1456,-0.78
"{'cat': 'II', 'resp': 'reach'}",56,203,Left,40.03396424763888,70.10931171567235,2.0016982123819442,1.1012744931709653,Left,Correct,0.0,0.0,-45,45,2007,1103,-2.3
"{'cat': 'II', 'resp': 'reach'}",56,204,Left,13.550865631626138,30.813076023709193,0.6775432815813069,0.484010666352943,Left,Correct,0.0,0.0,-45,45,2003,2189,-2.38
"{'cat': 'II', 'resp': 'reach'}",56,205,Right,82.69435460954477,52.96577163981071,4.134717730477239,0.8319843953767196,Right,Correct,0.0,0.0,-45,45,2005,1770,-0.86
"{'cat': 'II', 'resp': 'reach'}",56,206,Right,66.58813317425304,56.90696397874389,3.329406658712652,0.8938924998686039,Left,Incorrect,0.0,0.0,-45,45,2002,4304,-2.31
"{'cat': 'II', 'resp': 'reach'}",56,207,Left,43.98324348407992,58.22467548128425,2.1991621742039964,0.9145910637482616,Right,Incorrect,0.0,0.0,-45,45,2011,3610,-0.73
"{'cat': 'II', 'resp': 'reach'}",56,208,Right,69.27407648197565,45.102769373236896,3.4637038240987827,0.7084726445975787,Right,Correct,0.0,0.0,-45,45,2009,2344,-0.67
"{'cat': 'II', 'resp': 'reach'}",56,209,Left,53.17505291957953,72.99259781572798,2.6587526459789763,1.1465650453216267,Left,Correct,0.0,0.0,-45,45,2001,10951,-2.5
"{'cat': 'II', 'resp': 'reach'}",56,210,Right,65.65330859528446,36.66874297215586,3.2826654297642226,0.5759912676884861,Right,Correct,0.0,0.0,-45,45,2004,5976,-0.79
"{'cat': 'II', 'resp': 'reach'}",56,211,Left,12.015602837684263,31.491083938914358,0.6007801418842131,0.4946607897803643,Left,Correct,0.0,0.0,-45,45,2007,785,-2.31
"{'cat': 'II', 'resp': 'reach'}",56,212,Left,31.763706497036413,46.0011950292782,1.5881853248518205,0.7225850818016584,Left,Correct,0.0,0.0,-45,45,2009,1029,-2.46
"{'cat': 'II', 'resp': 'reach'}",56,213,Right,62.39517388122293,36.67056773617751,3.119758694061147,0.5760199310147108,Right,Correct,0.0,0.0,-45,45,2004,1412,-0.75
"{'cat': 'II', 'resp': 'reach'}",56,214,Left,25.40739922166965,38.04690891946558,1.2703699610834824,0.5976394477659652,Left,Correct,0.0,0.0,-45,45,2007,746,-2.33
"{'cat': 'II', 'resp': 'reach'}",56,215,Left,59.6154490987816,76.56339092075456,2.98077245493908,1.20265493225283,Left,Correct,0.0,0.0,-45,45,2004,2866,-2.35
"{'cat': 'II', 'resp': 'reach'}",56,216,Right,64.54163841914361,34.21367679168493,3.227081920957181,0.537427178305265,Right,Correct,0.0,0.0,-45,45,2007,1248,-0.72
"{'cat': 'II', 'resp': 'reach'}",56,217,Left,47.38523241753681,60.895642610006064,2.369261620876841,0.9565465172961231,Left,Correct,0.0,0.0,-45,45,2004,3130,-2.28
"{'cat': 'II', 'resp': 'reach'}",56,218,Left,26.84509785767879,45.50645552986537,1.3422548928839395,0.7148137319176783,Left,Correct,0.0,0.0,-45,45,2005,3264,-2.42
"{'cat': 'II', 'resp': 'reach'}",56,219,Right,62.10189957029664,30.24444453131275,3.1050949785148316,0.47507862375738064,Left,Incorrect,0.0,0.0,-45,45,2007,3426,-2.38
"{'cat': 'II', 'resp': 'reach'}",56,220,Right,43.16729747621241,15.04518654477588,2.1583648738106205,0.23632923760477956,Left,Incorrect,0.0,0.0,-45,45,2011,2280,-2.31
"{'cat': 'II', 'resp': 'reach'}",56,221,Left,41.346565451482874,73.24282977936049,2.067328272574144,1.1504956798148334,Left,Correct,0.0,0.0,-45,45,2004,2832,-2.33
"{'cat': 'II', 'resp': 'reach'}",56,222,Left,52.8906036124256,67.4115927461776,2.64453018062128,1.0588988226908926,Right,Incorrect,0.0,0.0,-45,45,2011,2643,-0.73
"{'cat': 'II', 'resp': 'reach'}",56,223,Right,45.70214118586418,27.29899173761993,2.285107059293209,0.4288115594665761,Right,Correct,0.0,0.0,-45,45,2004,2124,-0.69
"{'cat': 'II', 'resp': 'reach'}",56,224,Left,39.73612783034621,48.2370076540549,1.9868063915173106,0.7577051443856675,Right,Incorrect,0.0,0.0,-45,45,2006,1027,-0.8
"{'cat': 'II', 'resp': 'reach'}",56,225,Right,48.696916623086224,33.31860408435676,2.4348458311543113,0.5233674090964103,Left,Incorrect,0.0,0.0,-45,45,2013,2698,-2.42
"{'cat': 'II', 'resp': 'reach'}",56,226,Left,28.25588369062904,39.68350668886666,1.4127941845314522,0.6233470654121246,Left,Correct,0.0,0.0,-45,45,2012,2482,-2.38
"{'cat': 'II', 'resp': 'reach'}",56,227,Right,60.029513815533164,31.86692961780741,3.001475690776658,0.5005645598988337,Right,Correct,0.0,0.0,-45,45,2006,1569,-0.79
"{'cat': 'II', 'resp': 'reach'}",56,228,Right,77.95107169677527,58.83495905587846,3.8975535848387635,0.92417737572102,Right,Correct,0.0,0.0,-45,45,2005,4332,-0.8
"{'cat': 'II', 'resp': 'reach'}",56,229,Left,10.777470694621872,30.85773249114894,0.5388735347310936,0.48471212850316286,Left,Correct,0.0,0.0,-45,45,2009,1069,-2.36
"{'cat': 'II', 'resp': 'reach'}",56,230,Right,41.99439677253139,27.509534977974532,2.0997198386265694,0.4321187649523812,Left,Incorrect,0.0,0.0,-45,45,2002,7239,-2.26
"{'cat': 'II', 'resp': 'reach'}",56,231,Right,53.78717235007148,34.63572622805187,2.689358617503574,0.5440567153489754,Right,Correct,0.0,0.0,-45,45,2008,12101,-0.79
"{'cat': 'II', 'resp': 'reach'}",56,232,Right,52.920840260221,32.876813503753965,2.6460420130110496,0.5164277788841758,Right,Correct,0.0,0.0,-45,45,2002,2103,-0.77
"{'cat': 'II', 'resp': 'reach'}",56,233,Right,66.3402228482301,43.755232778297,3.3170111424115047,0.6873055892620458,Right,Correct,0.0,0.0,-45,45,2005,1353,-0.79
"{'cat': 'II', 'resp': 'reach'}",56,234,Left,52.16177586724477,62.06193670191129,2.6080887933622385,0.9748666220513965,Right,Incorrect,0.0,0.0,-45,45,2011,3343,-0.71
"{'cat': 'II', 'resp': 'reach'}",56,235,Left,64.46047314733195,77.6264038536325,3.223023657366598,1.219352700355831,Right,Incorrect,0.0,0.0,-45,45,2002,9049,-0.83
"{'cat': 'II', 'resp': 'reach'}",56,236,Left,18.931104038206144,40.25990224988598,0.9465552019103072,0.6324010657124249,Left,Correct,0.0,0.0,-45,45,2001,774,-2.35
"{'cat': 'II', 'resp': 'reach'}",56,237,Left,41.423359417922406,51.54132701574941,2.0711679708961204,0.8096092715447374,Left,Correct,0.0,0.0,-45,45,2011,1696,-2.37
"{'cat': 'II', 'resp': 'reach'}",56,238,Right,81.46167980485889,56.11379207246666,4.073083990242944,0.8814333846996322,Right,Correct,0.0,0.0,-45,45,2012,1024,-0.68
"{'cat': 'II', 'resp': 'reach'}",56,239,Right,81.17692294351136,55.13058472177154,4.058846147175569,0.8659891997501359,Right,Correct,0.0,0.0,-45,45,2008,2148,-0.52
"{'cat': 'II', 'resp': 'reach'}",56,240,Right,36.08235892950894,13.361391810407895,1.8041179464754469,0.20988025176656136,Left,Incorrect,0.0,0.0,-45,45,2007,2357,-2.36
"{'cat': 'II', 'resp': 'reach'}",56,241,Left,17.67875759916276,48.059122432237096,0.8839378799581381,0.7549109298554425,Left,Correct,0.0,0.0,-45,45,2010,752,-2.52
"{'cat': 'II', 'resp': 'reach'}",56,242,Right,38.02630590161282,13.392269868995989,1.9013152950806411,0.21036528317664868,Left,Incorrect,0.0,0.0,-45,45,2005,1142,-2.21
"{'cat': 'II', 'resp': 'reach'}",56,243,Left,43.065571800511215,62.2843920590195,2.1532785900255607,0.9783609426296107,Left,Correct,0.0,0.0,-45,45,2008,1752,-2.46
"{'cat': 'II', 'resp': 'reach'}",56,244,Left,23.2871400164935,40.508924373050164,1.1643570008246749,0.6363126960759945,Left,Correct,0.0,0.0,-45,45,2002,3288,-2.15
"{'cat': 'II', 'resp': 'reach'}",56,245,Left,63.28934441588113,86.0990285722211,3.164467220794057,1.3524403782185375,Left,Correct,0.0,0.0,-45,45,2002,2907,-2.47
"{'cat': 'II', 'resp': 'reach'}",56,246,Right,39.036798756231576,27.62829915151092,1.9518399378115787,0.4339843082278391,Left,Incorrect,0.0,0.0,-45,45,2002,6455,-2.42
"{'cat': 'II', 'resp': 'reach'}",56,247,Left,65.08650038286385,86.89510355844452,3.2543250191431925,1.364945094860668,Left,Correct,0.0,0.0,-45,45,2007,2561,-2.42
"{'cat': 'II', 'resp': 'reach'}",56,248,Left,36.46709001768089,52.45594160793583,1.8233545008840446,0.8239760039631318,Right,Incorrect,0.0,0.0,-45,45,2007,5814,-0.72
"{'cat': 'II', 'resp': 'reach'}",56,249,Right,81.83500987416296,52.08598427039058,4.091750493708148,0.8181647276942628,Right,Correct,0.0,0.0,-45,45,2008,2361,-0.76
"{'cat': 'II', 'resp': 'reach'}",56,250,Left,56.57568754405683,78.35442984354822,2.828784377202841,1.2307885058635395,Right,Incorrect,0.0,0.0,-45,45,2009,1300,-0.74
"{'cat': 'II', 'resp': 'reach'}",56,251,Left,18.278905648466186,41.0271790449605,0.9139452824233092,0.6444534214258051,Left,Correct,0.0,0.0,-45,45,2005,1208,-2.09
"{'cat': 'II', 'resp': 'reach'}",56,252,Left,56.64759165688292,83.26290641528453,2.8323795828441463,1.3078906755539617,Left,Correct,0.0,0.0,-45,45,2012,3932,-2.32
"{'cat': 'II', 'resp': 'reach'}",56,253,Left,61.020487747649916,73.76439348926976,3.051024387382496,1.1586883834119832,Right,Incorrect,0.0,0.0,-45,45,2006,2416,-0.79
"{'cat': 'II', 'resp': 'reach'}",56,254,Right,67.01240868561257,34.171589237727375,3.3506204342806285,0.5367660685536618,Left,Incorrect,0.0,0.0,-45,45,2007,3260,-2.31
"{'cat': 'II', 'resp': 'reach'}",56,255,Left,17.424381268311866,31.505163411811484,0.8712190634155932,0.49488194962346455,Left,Correct,0.0,0.0,-45,45,2003,664,-2.36
"{'cat': 'II', 'resp': 'reach'}",56,256,Right,58.425929035713516,27.868541842711622,2.9212964517856754,0.43775803159661286,Right,Correct,0.0,0.0,-45,45,2001,1776,-0.74
"{'cat': 'II', 'resp': 'reach'}",56,257,Right,79.10811334389481,59.04188574086631,3.955405667194741,0.9274277724879678,Right,Correct,0.0,0.0,-45,45,2007,2100,-0.81
"{'cat': 'II', 'resp': 'reach'}",56,258,Left,35.34328516845133,64.79208311899187,1.7671642584225666,1.0177516616870206,Left,Correct,0.0,0.0,-45,45,2003,809,-2.33
"{'cat': 'II', 'resp': 'reach'}",56,259,Left,33.43543978497753,46.27587969880943,1.6717719892488765,0.7268998185009238,Left,Correct,0.0,0.0,-45,45,2005,793,-2.21
"{'cat': 'II', 'resp': 'reach'}",56,260,Right,71.10632337381949,52.14349489689246,3.5553161686909744,0.8190681025028711,Right,Correct,0.0,0.0,-45,45,2001,2556,-0.64
"{'cat': 'II', 'resp': 'reach'}",56,261,Right,45.99736481619687,31.959840808540925,2.2998682408098436,0.5020240054700573,Left,Incorrect,0.0,0.0,-45,45,2009,3875,-2.41
"{'cat': 'II', 'resp': 'reach'}",56,262,Right,79.38855548679676,56.183470105059044,3.969427774339838,0.8825278846761762,Right,Correct,0.0,0.0,-45,45,2007,2416,-0.84
"{'cat': 'II', 'resp': 'reach'}",56,263,Left,25.653529198287856,45.62545482866629,1.2826764599143927,0.7166829685321549,Left,Correct,0.0,0.0,-45,45,2001,1053,-2.26
"{'cat': 'II', 'resp': 'reach'}",56,264,Right,82.81819358889739,67.31972543099867,4.140909679444869,1.057455774278537,Left,Incorrect,0.0,0.0,-45,45,2002,8109,-2.28
"{'cat': 'II', 'resp': 'reach'}",56,265,Right,53.53022256684072,27.33746609312376,2.676511128342036,0.4294159132295883,Right,Correct,0.0,0.0,-45,45,2001,2340,-0.85
"{'cat': 'II', 'resp': 'reach'}",56,266,Right,73.87534794484208,41.13627918970558,3.693767397242104,0.6461671624919887,Right,Correct,0.0,0.0,-45,45,2007,1686,-0.81
"{'cat': 'II', 'resp': 'reach'}",56,267,Right,63.84263565154164,44.22323899777224,3.192131782577082,0.6946570137667346,Left,Incorrect,0.0,0.0,-45,45,2008,824,-2.22
"{'cat': 'II', 'resp': 'reach'}",56,268,Left,26.663564904593986,51.291176469750106,1.3331782452296994,0.805679915956723,Left,Correct,0.0,0.0,-45,45,2002,882,-2.42
"{'cat': 'II', 'resp': 'reach'}",56,269,Right,45.42844236124889,19.91303856059089,2.2714221180624445,0.312793278263013,Left,Incorrect,0.0,0.0,-45,45,2005,1172,-2.49
"{'cat': 'II', 'resp': 'reach'}",56,270,Right,66.2961009754735,48.162681884284,3.3148050487736747,0.7565376379242442,Right,Correct,0.0,0.0,-45,45,2008,3579,-0.7
"{'cat': 'II', 'resp': 'reach'}",56,271,Right,51.43987079276886,37.26323183300061,2.571993539638443,0.5853294768778402,Right,Correct,0.0,0.0,-45,45,2007,1792,-0.78
"{'cat': 'II', 'resp': 'reach'}",56,272,Right,43.5918937876901,29.588982381818035,2.179594689384505,0.46478264838958677,Right,Correct,0.0,0.0,-45,45,2009,3424,-0.92
"{'cat': 'II', 'resp': 'reach'}",56,273,Left,29.614896959012093,43.934312951629714,1.4807448479506047,0.6901185740467739,Right,Incorrect,0.0,0.0,-45,45,2008,1712,-0.8
"{'cat': 'II', 'resp': 'reach'}",56,274,Right,80.42680491463815,59.936507350940886,4.021340245731908,0.9414804558777324,Right,Correct,0.0,0.0,-45,45,2008,6273,-0.84
"{'cat': 'II', 'resp': 'reach'}",56,275,Left,39.98946965728437,50.23431631650472,1.9994734828642182,0.7890787954901854,Left,Correct,0.0,0.0,-45,45,2007,1773,-2.36
"{'cat': 'II', 'resp': 'reach'}",56,276,Right,70.69645065180951,58.278708618401645,3.534822532590476,0.9154398142813537,Right,Correct,0.0,0.0,-45,45,2006,1983,-0.76
"{'cat': 'II', 'resp': 'reach'}",56,277,Right,61.90200716195991,28.876866874357233,3.0951003580979957,0.4535967641558557,Right,Correct,0.0,0.0,-45,45,2004,10682,-0.75
"{'cat': 'II', 'resp': 'reach'}",56,278,Right,87.22156271851968,59.27180148918863,4.361078135925984,0.9310392806173378,Right,Correct,0.0,0.0,-45,45,2003,3473,-0.84
"{'cat': 'II', 'resp': 'reach'}",56,279,Left,66.98997999711455,84.68190282688896,3.3494989998557276,1.3301802190647953,Right,Incorrect,0.0,0.0,-45,45,2012,1676,-0.76
"{'cat': 'II', 'resp': 'reach'}",56,280,Left,34.521524250856075,49.548276902350985,1.726076212542804,0.7783025135722934,Left,Correct,0.0,0.0,-45,45,2005,957,-2.19
"{'cat': 'II', 'resp': 'reach'}",56,281,Left,38.38559318770554,48.71181289840261,1.9192796593852768,0.7651633677233108,Left,Correct,0.0,0.0,-45,45,2009,1261,-2.39
"{'cat': 'II', 'resp': 'reach'}",56,282,Left,24.52544898664801,42.69131866207974,1.2262724493324004,0.6705936654042526,Left,Correct,0.0,0.0,-45,45,2006,844,-2.39
"{'cat': 'II', 'resp': 'reach'}",56,283,Left,37.8634727924768,67.8799012807017,1.8931736396238399,1.0662549959492642,Left,Correct,0.0,0.0,-45,45,2003,1025,-2.41
"{'cat': 'II', 'resp': 'reach'}",56,284,Right,85.0163676214371,57.54649886386672,4.250818381071855,0.9039382903526854,Right,Correct,0.0,0.0,-45,45,2001,592,-0.66
"{'cat': 'II', 'resp': 'reach'}",56,285,Left,36.86054433957344,54.82604689986707,1.843027216978672,0.8612055308299593,Left,Correct,0.0,0.0,-45,45,2003,2048,-2.46
"{'cat': 'II', 'resp': 'reach'}",56,286,Right,53.665380297614256,46.619765358040006,2.683269014880713,0.732301561804492,Right,Correct,0.0,0.0,-45,45,2004,4056,-0.77
"{'cat': 'II', 'resp': 'reach'}",56,287,Left,31.44518278309576,63.621095415718635,1.572259139154788,0.9993578298567847,Left,Correct,0.0,0.0,-45,45,2007,1290,-2.4
"{'cat': 'II', 'resp': 'reach'}",56,288,Left,29.626717551445488,53.85475882247301,1.4813358775722745,0.8459485733876565,Left,Correct,0.0,0.0,-45,45,2008,1142,-2.26
"{'cat': 'II', 'resp': 'reach'}",56,289,Right,55.42981518838589,41.06031496034955,2.771490759419294,0.6449739191675861,Right,Correct,0.0,0.0,-45,45,2006,3765,-0.78
"{'cat': 'II', 'resp': 'reach'}",56,290,Left,45.0444927836221,68.14351804163229,2.252224639181105,1.0703958783467777,Left,Correct,0.0,0.0,-45,45,2004,3892,-2.32
"{'cat': 'II', 'resp': 'reach'}",56,291,Left,31.041098604654557,55.21867937275795,1.552054930232728,0.8673729872919329,Left,Correct,0.0,0.0,-45,45,2006,1039,-2.28
"{'cat': 'II', 'resp': 'reach'}",56,292,Right,42.33574348127357,34.511714583158735,2.1167871740636786,0.5421087449861961,Left,Incorrect,0.0,0.0,-45,45,2008,1989,-2.2
"{'cat': 'II', 'resp': 'reach'}",56,293,Left,34.19791209282391,49.37055378352778,1.7098956046411957,0.7755108453499533,Left,Correct,0.0,0.0,-45,45,2006,3811,-2.47
"{'cat': 'II', 'resp': 'reach'}",56,294,Right,52.77449988447548,27.00145611956085,2.6387249942237743,0.42413788090719756,Left,Incorrect,0.0,0.0,-45,45,2013,4561,-2.38
"{'cat': 'II', 'resp': 'reach'}",56,295,Right,57.69956363961724,49.601214408297906,2.8849781819808618,0.7791340539712045,Right,Correct,0.0,0.0,-45,45,2003,1253,-0.7
"{'cat': 'II', 'resp': 'reach'}",56,296,Left,56.26128404521806,75.76957584311533,2.8130642022609034,1.190185714171729,Right,Incorrect,0.0,0.0,-45,45,2007,1953,-0.66
"{'cat': 'II', 'resp': 'reach'}",56,297,Left,42.49106609242054,69.27289271286914,2.1245533046210268,1.088136054198318,Left,Correct,0.0,0.0,-45,45,2005,1681,-2.35
"{'cat': 'II', 'resp': 'reach'}",56,298,Left,65.03325362905636,87.6699988042796,3.2516626814528182,1.3771171209187536,Left,Correct,0.0,0.0,-45,45,2011,4738,-2.5
"{'cat': 'II', 'resp': 'reach'}",56,299,Left,37.80626329887632,48.812680470730506,1.890313164943816,0.7667477918443647,Left,Correct,0.0,0.0,-45,45,2005,953,-2.44
"{'cat': 'II', 'resp': 'reach'}",56,300,Right,43.606302016918704,29.7468250663608,2.1803151008459354,0.467262035480499,Left,Incorrect,0.0,0.0,-45,45,2007,3160,-2.42
"{'cat': 'II', 'resp': 'reach'}",56,301,Right,51.80800191547861,29.381079681773294,2.5904000957739304,0.46151692041397663,Right,Correct,0.0,0.0,-45,45,2007,2039,-0.73
"{'cat': 'II', 'resp': 'reach'}",56,302,Left,45.02309049492406,63.615164863192284,2.2511545247462035,0.9992646729555421,Right,Incorrect,0.0,0.0,-45,45,2004,3573,-0.71
"{'cat': 'II', 'resp': 'reach'}",56,303,Right,74.09305632224878,56.05691870902206,3.7046528161124392,0.8805400199957197,Right,Correct,0.0,0.0,-45,45,2004,3880,-0.71
"{'cat': 'II', 'resp': 'reach'}",56,304,Right,60.7557839017978,47.94662290766016,3.03778919508989,0.7531437914557263,Right,Correct,0.0,0.0,-45,45,2012,765,-0.76
"{'cat': 'II', 'resp': 'reach'}",56,305,Left,59.02460437398502,71.32785337265965,2.951230218699251,1.1204153007593873,Right,Incorrect,0.0,0.0,-45,45,2005,1562,-0.72
"{'cat': 'II', 'resp': 'reach'}",56,306,Left,43.86657040903991,67.52437812574274,2.1933285204519954,1.0606704512902636,Left,Correct,0.0,0.0,-45,45,2007,2498,-2.22
"{'cat': 'II', 'resp': 'reach'}",56,307,Right,44.5264510710895,27.79986591157931,2.226322553554475,0.4366792725929943,Left,Incorrect,0.0,0.0,-45,45,2006,2690,-2.36
"{'cat': 'II', 'resp': 'reach'}",56,308,Left,32.858541523842675,62.8388388358925,1.642927076192134,0.9870701722347642,Left,Correct,0.0,0.0,-45,45,2001,3084,-2.3
"{'cat': 'II', 'resp': 'reach'}",56,309,Left,20.639860887583197,44.24379197972494,1.0319930443791598,0.6949798592522944,Left,Correct,0.0,0.0,-45,45,2009,2127,-2.35
"{'cat': 'II', 'resp': 'reach'}",56,310,Right,48.41704652805711,33.00307818260031,2.4208523264028554,0.5184111398215336,Right,Correct,0.0,0.0,-45,45,2011,2478,-0.62
"{'cat': 'II', 'resp': 'reach'}",56,311,Right,75.88119393198217,44.37039483961288,3.7940596965991085,0.6969685323250313,Right,Correct,0.0,0.0,-45,45,2006,1327,-0.68
"{'cat': 'II', 'resp': 'reach'}",56,312,Right,76.38048486613164,59.57312839924765,3.8190242433065817,0.9357725126521894,Right,Correct,0.0,0.0,-45,45,2003,2038,-0.7
"{'cat': 'II', 'resp': 'reach'}",56,313,Left,29.311559005915697,61.26322363080224,1.4655779502957846,0.9623204664687848,Left,Correct,0.0,0.0,-45,45,2008,770,-2.39
"{'cat': 'II', 'resp': 'reach'}",56,314,Left,39.58623372671462,69.42926899989997,1.979311686335731,1.0905924071709767,Left,Correct,0.0,0.0,-45,45,2004,1171,-2.44
"{'cat': 'II', 'resp': 'reach'}",56,315,Right,63.07108741947644,37.37145510743552,3.153554370973822,0.587029444097401,Right,Correct,0.0,0.0,-45,45,2008,1712,-0.68
"{'cat': 'II', 'resp': 'reach'}",56,316,Left,44.43156903685472,57.05566913276317,2.2215784518427357,0.8962283549656934,Left,Correct,0.0,0.0,-45,45,2002,3515,-2.33
"{'cat': 'II', 'resp': 'reach'}",56,317,Right,88.68119029974588,64.42603731264401,4.434059514987294,1.0120018276065217,Right,Correct,0.0,0.0,-45,45,2003,1171,-0.68
"{'cat': 'II', 'resp': 'reach'}",56,318,Right,80.16312992944508,53.395473257473526,4.008156496472254,0.8387341326031454,Right,Correct,0.0,0.0,-45,45,2006,1324,-0.76
"{'cat': 'II', 'resp': 'reach'}",56,319,Left,43.77913867332737,72.23993661150053,2.1889569336663683,1.134742270772412,Left,Correct,0.0,0.0,-45,45,2002,1122,-2.37
"{'cat': 'II', 'resp': 'reach'}",56,320,Right,42.972664124313496,34.94103537590946,2.148633206215675,0.5488525002288911,Left,Incorrect,0.0,0.0,-45,45,2002,2684,-2.35
"{'cat': 'II', 'resp': 'reach'}",56,321,Right,76.45994783123737,47.057977473365355,3.8229973915618687,0.7391849816155928,Right,Correct,0.0,0.0,-45,45,2003,1581,-0.7
"{'cat': 'II', 'resp': 'reach'}",56,322,Right,73.7587561638238,58.33838655890405,3.68793780819119,0.9163772331786725,Right,Correct,0.0,0.0,-45,45,2009,1261,-0.72
"{'cat': 'II', 'resp': 'reach'}",56,323,Right,55.54849674423924,33.03914562678488,2.777424837211962,0.5189776859099536,Right,Correct,0.0,0.0,-45,45,2002,1878,-0.72
"{'cat': 'II', 'resp': 'reach'}",56,324,Left,53.19791191614776,68.27043340462939,2.659895595807388,1.0723894602068746,Left,Correct,0.0,0.0,-45,45,2006,1481,-2.25
"{'cat': 'II', 'resp': 'reach'}",56,325,Right,44.19159256732021,30.6701035658621,2.2095796283660105,0.4817648602367524,Right,Correct,0.0,0.0,-45,45,2004,2401,-0.69
"{'cat': 'II', 'resp': 'reach'}",56,326,Right,70.75730287163483,44.28226048548447,3.5378651435817416,0.695584121127738,Right,Correct,0.0,0.0,-45,45,2003,1508,-0.69
"{'cat': 'II', 'resp': 'reach'}",56,327,Right,53.15904615152968,21.38698047713286,2.6579523075764837,0.3359459037471446,Right,Correct,0.0,0.0,-45,45,2006,2966,-0.7
"{'cat': 'II', 'resp': 'reach'}",56,328,Right,41.17459432315002,22.751261371535232,2.058729716157501,0.3573759779235816,Left,Incorrect,0.0,0.0,-45,45,2006,1203,-2.35
"{'cat': 'II', 'resp': 'reach'}",56,329,Right,50.23681620452247,39.15770420790747,2.511840810226124,0.6150877793550211,Right,Correct,0.0,0.0,-45,45,2005,2543,-0.73
"{'cat': 'II', 'resp': 'reach'}",56,330,Right,48.72325471075935,32.38831786583963,2.436162735537968,0.5087545073472641,Right,Correct,0.0,0.0,-45,45,2007,6566,-0.72
"{'cat': 'II', 'resp': 'reach'}",56,331,Right,78.47379400358989,53.99719811110162,3.9236897001794944,0.8481860045013474,Right,Correct,0.0,0.0,-45,45,2006,2132,-0.77
"{'cat': 'II', 'resp': 'reach'}",56,332,Right,87.089943477291,59.614533735686905,4.35449717386455,0.9364229061560745,Right,Correct,0.0,0.0,-45,45,2009,4427,-0.75
"{'cat': 'II', 'resp': 'reach'}",56,333,Right,56.59503203104302,35.981882780865625,2.829751601552151,0.5652020930334827,Right,Correct,0.0,0.0,-45,45,2005,1333,-0.76
"{'cat': 'II', 'resp': 'reach'}",56,334,Left,46.99209241646573,62.27078415049008,2.349604620823287,0.9781471901022768,Right,Incorrect,0.0,0.0,-45,45,2007,1253,-0.75
"{'cat': 'II', 'resp': 'reach'}",56,335,Left,36.57392144332143,65.81076056015718,1.8286960721660717,1.0337530095147334,Left,Correct,0.0,0.0,-45,45,2007,1134,-2.34
"{'cat': 'II', 'resp': 'reach'}",56,336,Left,21.921723997840303,36.27133220366502,1.096086199892015,0.5697487539347446,Left,Correct,0.0,0.0,-45,45,2007,753,-2.4
"{'cat': 'II', 'resp': 'reach'}",56,337,Left,59.346120954276884,82.36568625833699,2.967306047713844,1.2937971742853664,Left,Correct,0.0,0.0,-45,45,2003,3148,-2.39
"{'cat': 'II', 'resp': 'reach'}",56,338,Left,24.857390526226038,55.516495005705195,1.2428695263113019,0.8720510643148892,Left,Correct,0.0,0.0,-45,45,2003,630,-2.36
"{'cat': 'II', 'resp': 'reach'}",56,339,Right,52.33677044908422,28.126914559501962,2.616838522454211,0.4418165407413958,Right,Correct,0.0,0.0,-45,45,2009,2301,-0.72
"{'cat': 'II', 'resp': 'reach'}",56,340,Left,55.793178125774205,78.91466278413242,2.78965890628871,1.2395886243157315,Left,Correct,0.0,0.0,-45,45,2007,1931,-2.33
"{'cat': 'II', 'resp': 'reach'}",56,341,Left,60.42288008305307,73.11140304757913,3.021144004152654,1.148431233539585,Left,Correct,0.0,0.0,-45,45,2004,976,-2.37
"{'cat': 'II', 'resp': 'reach'}",56,342,Left,66.51826282216686,88.22294324390694,3.325913141108343,1.3858027518656364,Left,Correct,0.0,0.0,-45,45,2008,1156,-2.24
"{'cat': 'II', 'resp': 'reach'}",56,343,Left,39.278794079278335,67.53253396986513,1.9639397039639166,1.060798562990157,Left,Correct,0.0,0.0,-45,45,2011,1721,-2.28
"{'cat': 'II', 'resp': 'reach'}",56,344,Left,53.89826971479964,80.60722681446558,2.694913485739982,1.266175357932856,Left,Correct,0.0,0.0,-45,45,2005,1265,-2.32
"{'cat': 'II', 'resp': 'reach'}",56,345,Left,54.65153846051497,83.16594140588066,2.7325769230257486,1.3063675527479692,Left,Correct,0.0,0.0,-45,45,2008,1201,-2.38
"{'cat': 'II', 'resp': 'reach'}",56,346,Right,63.24541938331147,40.762557926136495,3.1622709691655735,0.640296762611394,Left,Incorrect,0.0,0.0,-45,45,2010,1287,-2.3
"{'cat': 'II', 'resp': 'reach'}",56,347,Left,51.38051243034689,64.52696795268798,2.5690256215173446,1.013587242392943,Right,Incorrect,0.0,0.0,-45,45,2002,1711,-0.72
"{'cat': 'II', 'resp': 'reach'}",56,348,Left,28.08659642158561,39.43649653293345,1.4043298210792807,0.6194670389559153,Left,Correct,0.0,0.0,-45,45,2007,1212,-2.31
"{'cat': 'II', 'resp': 'reach'}",56,349,Left,15.290856167969864,32.841924285458255,0.7645428083984932,0.5158797403247394,Left,Correct,0.0,0.0,-45,45,2003,738,-2.33
"{'cat': 'II', 'resp': 'reach'}",56,350,Right,35.71882978150228,19.242323762737186,1.785941489075114,0.30225771485505726,Left,Incorrect,0.0,0.0,-45,45,2001,804,-2.37
"{'cat': 'II', 'resp': 'reach'}",56,351,Left,48.372567650468795,56.992418877701716,2.4186283825234396,0.8952348222824997,Left,Correct,0.0,0.0,-45,45,2002,3284,-2.36
"{'cat': 'II', 'resp': 'reach'}",56,352,Right,69.9835625886357,36.880789491026036,3.4991781294317854,0.5793220866179952,Left,Incorrect,0.0,0.0,-45,45,2007,1327,-2.26
"{'cat': 'II', 'resp': 'reach'}",56,353,Right,39.32840423071593,13.232018726195882,1.9664202115357967,0.20784806411189777,Left,Incorrect,0.0,0.0,-45,45,2004,1786,-2.53
"{'cat': 'II', 'resp': 'reach'}",56,354,Left,51.11123837129837,67.50211845445665,2.5555619185649188,1.060320797191345,Right,Incorrect,0.0,0.0,-45,45,2004,425,-0.67
"{'cat': 'II', 'resp': 'reach'}",56,355,Right,34.05515040821146,19.351712799183236,1.702757520410573,0.30397599382146817,Left,Incorrect,0.0,0.0,-45,45,2010,1428,-2.42
"{'cat': 'II', 'resp': 'reach'}",56,356,Left,27.97746094204934,37.75720670874909,1.3988730471024668,0.5930888160813869,Left,Correct,0.0,0.0,-45,45,2006,2103,-2.38
"{'cat': 'II', 'resp': 'reach'}",56,357,Right,42.08122036668172,13.739847762250125,2.104061018334086,0.2158250239566358,Left,Incorrect,0.0,0.0,-45,45,2011,1435,-2.44
"{'cat': 'II', 'resp': 'reach'}",56,358,Left,26.259459342501415,44.377099385548945,1.312972967125071,0.6970738470863235,Left,Correct,0.0,0.0,-45,45,2004,1013,-2.41
"{'cat': 'II', 'resp': 'reach'}",56,359,Left,41.683902855822666,70.62820617294601,2.0841951427911334,1.1094252682457624,Left,Correct,0.0,0.0,-45,45,2009,1605,-2.39
"{'cat': 'II', 'resp': 'reach'}",56,360,Left,33.998293559276696,51.955730991558454,1.699914677963835,0.8161187139748379,Left,Correct,0.0,0.0,-45,45,2009,1080,-2.3
"{'cat': 'II', 'resp': 'reach'}",56,361,Left,26.760376491894007,51.215349848605676,1.3380188245947005,0.8044888341770536,Left,Correct,0.0,0.0,-45,45,2004,895,-2.36
"{'cat': 'II', 'resp': 'reach'}",56,362,Left,46.66735090954458,68.34506810059605,2.333367545477229,1.0735618192696332,Right,Incorrect,0.0,0.0,-45,45,2010,1675,-0.76
"{'cat': 'II', 'resp': 'reach'}",56,363,Right,78.95103329202811,63.655974548422265,3.9475516646014057,0.9999057099921111,Right,Correct,0.0,0.0,-45,45,2009,4495,-0.71
"{'cat': 'II', 'resp': 'reach'}",56,364,Right,55.05948499840163,42.544084651208145,2.752974249920081,0.668280918969689,Left,Incorrect,0.0,0.0,-45,45,2001,1519,-2.31
"{'cat': 'II', 'resp': 'reach'}",56,365,Left,22.990345551256727,52.165205004698436,1.1495172775628364,0.8194091240788306,Left,Correct,0.0,0.0,-45,45,2002,926,-2.38
"{'cat': 'II', 'resp': 'reach'}",56,366,Right,61.73631880868566,48.86507165531259,3.086815940434283,0.7675707506473443,Right,Correct,0.0,0.0,-45,45,2004,3136,-0.73
"{'cat': 'II', 'resp': 'reach'}",56,367,Right,76.54764203766986,57.02098253662217,3.827382101883493,0.8956834991876204,Right,Correct,0.0,0.0,-45,45,2003,1652,-0.75
"{'cat': 'II', 'resp': 'reach'}",56,368,Right,59.07961264810026,47.71625239064415,2.953980632405013,0.7495251398364203,Right,Correct,0.0,0.0,-45,45,2003,1839,-0.72
"{'cat': 'II', 'resp': 'reach'}",56,369,Right,50.14811573913129,43.387468903145624,2.5074057869565647,0.6815287678198895,Left,Incorrect,0.0,0.0,-45,45,2004,1485,-2.42
"{'cat': 'II', 'resp': 'reach'}",56,370,Right,67.72710136702489,44.04030127774352,3.3863550683512442,0.6917834347802011,Right,Correct,0.0,0.0,-45,45,2007,1489,-0.73
"{'cat': 'II', 'resp': 'reach'}",56,371,Right,43.46942355381411,34.156217154114394,2.173471177690706,0.5365246044289173,Left,Incorrect,0.0,0.0,-45,45,2005,1184,-2.26
"{'cat': 'II', 'resp': 'reach'}",56,372,Left,44.350732697953774,58.27936230807731,2.217536634897689,0.9154500824147678,Right,Incorrect,0.0,0.0,-45,45,2001,1395,-0.74
"{'cat': 'II', 'resp': 'reach'}",56,373,Right,69.85345825539406,52.963664274118315,3.492672912769703,0.8319512929538315,Right,Correct,0.0,0.0,-45,45,2002,1712,-0.75
"{'cat': 'II', 'resp': 'reach'}",56,374,Left,16.547147909326785,35.06935152657981,0.8273573954663392,0.5508680856103056,Left,Correct,0.0,0.0,-45,45,2008,815,-2.42
"{'cat': 'II', 'resp': 'reach'}",56,375,Left,39.992704708130844,48.78334249867563,1.9996352354065423,0.7662869520569703,Right,Incorrect,0.0,0.0,-45,45,2003,3318,-0.71
"{'cat': 'II', 'resp': 'reach'}",56,376,Right,56.82290340764735,30.6745898796529,2.841145170382368,0.48183533108898685,Right,Correct,0.0,0.0,-45,45,2005,1746,-0.75
"{'cat': 'II', 'resp': 'reach'}",56,377,Right,63.35483390334562,39.7968907713891,3.167741695167281,0.6251280984155573,Right,Correct,0.0,0.0,-45,45,2009,937,-0.75
"{'cat': 'II', 'resp': 'reach'}",56,378,Right,39.77700276567283,12.568227417827526,1.9888501382836414,0.19742125462246385,Left,Incorrect,0.0,0.0,-45,45,2002,2810,-2.43
"{'cat': 'II', 'resp': 'reach'}",56,379,Right,60.64273328298303,27.821202068978074,3.0321366641491516,0.43701442016969333,Right,Correct,0.0,0.0,-45,45,2003,1578,-0.79
"{'cat': 'II', 'resp': 'reach'}",56,380,Left,23.231595916630383,36.01392786499138,1.161579795831519,0.5657054560378483,Left,Correct,0.0,0.0,-45,45,2003,1219,-2.28
"{'cat': 'II', 'resp': 'reach'}",56,381,Right,77.80721540354514,49.45469852722529,3.890360770177257,0.7768325878931448,Right,Correct,0.0,0.0,-45,45,2009,1448,-0.78
"{'cat': 'II', 'resp': 'reach'}",56,382,Left,28.172015796901213,44.30298418009012,1.4086007898450605,0.6959096481613798,Left,Correct,0.0,0.0,-45,45,2005,1041,-2.36
"{'cat': 'II', 'resp': 'reach'}",56,383,Right,53.93573851602433,47.187503245778714,2.6967869258012165,0.7412195676909145,Right,Correct,0.0,0.0,-45,45,2008,2175,-0.79
"{'cat': 'II', 'resp': 'reach'}",56,384,Right,81.56198355557117,52.90134392021717,4.078099177778558,0.8309723671239068,Right,Correct,0.0,0.0,-45,45,2012,1421,-0.76
"{'cat': 'II', 'resp': 'reach'}",56,385,Right,62.690612506806374,43.48930422021816,3.1345306253403185,0.6831283932398448,Right,Correct,0.0,0.0,-45,45,2009,2018,-0.77
"{'cat': 'II', 'resp': 'reach'}",56,386,Right,49.85664892187873,32.67944565954828,2.4928324460939364,0.5133275320371187,Right,Correct,0.0,0.0,-45,45,2001,5253,-0.78
"{'cat': 'II', 'resp': 'reach'}",56,387,Right,70.46684524676033,58.56809186174995,3.5233422623380166,0.9199854356382289,Right,Correct,0.0,0.0,-45,45,2006,4849,-0.82
"{'cat': 'II', 'resp': 'reach'}",56,388,Left,35.01625700412767,57.37271835540596,1.7508128502063836,0.9012085525090981,Left,Correct,0.0,0.0,-45,45,2002,1444,-2.37
"{'cat': 'II', 'resp': 'reach'}",56,389,Right,78.96226933780771,54.19903179303911,3.9481134668903852,0.8513564005634565,Right,Correct,0.0,0.0,-45,45,2007,1140,-0.8
"{'cat': 'II', 'resp': 'reach'}",56,390,Left,55.18252455938025,70.1015591186372,2.7591262279690123,1.101152715661506,Left,Correct,0.0,0.0,-45,45,2005,2963,-2.36
"{'cat': 'II', 'resp': 'reach'}",56,391,Right,45.631272961979626,35.15137990678081,2.2815636480989814,0.5521565843934323,Right,Correct,0.0,0.0,-45,45,2001,12397,-0.78
"{'cat': 'II', 'resp': 'reach'}",56,392,Right,37.813103043025734,22.87802894678086,1.8906551521512867,0.35936723833910683,Right,Correct,0.0,0.0,-45,45,2006,1353,-0.83
"{'cat': 'II', 'resp': 'reach'}",56,393,Left,49.05631457581167,70.01957584232159,2.452815728790583,1.099864925368554,Right,Incorrect,0.0,0.0,-45,45,2005,1532,-0.78
"{'cat': 'II', 'resp': 'reach'}",56,394,Right,63.92792770700824,32.54297716711694,3.1963963853504116,0.5111838899707747,Right,Correct,0.0,0.0,-45,45,2008,838,-0.78
"{'cat': 'II', 'resp': 'reach'}",56,395,Left,27.64476720553347,39.65103936246999,1.3822383602766735,0.6228370698416771,Left,Correct,0.0,0.0,-45,45,2005,665,-2.35
"{'cat': 'II', 'resp': 'reach'}",56,396,Left,26.200124526066965,44.58375034869009,1.310006226303348,0.7003199128246308,Left,Correct,0.0,0.0,-45,45,2005,661,-2.39
"{'cat': 'II', 'resp': 'reach'}",56,397,Right,46.934507229382135,24.00695960320588,2.3467253614691064,0.3771004396222926,Left,Incorrect,0.0,0.0,-45,45,2010,1082,-2.41
"{'cat': 'II', 'resp': 'reach'}",56,398,Left,22.66906170601791,40.47556776471876,1.1334530853008955,0.6357887316975815,Left,Correct,0.0,0.0,-45,45,2003,3000,-2.46
"{'cat': 'II', 'resp': 'reach'}",56,399,Left,14.886754139198263,40.56039063846009,0.7443377069599131,0.6371211262825922,Left,Correct,0.0,0.0,-45,45,2009,710,-2.42
