condition,subject,trial,cat,x,y,xt,yt,resp,fb,rotation,su,target_angle_left,target_angle_right,rt,mt,ep
"{'cat': 'II', 'resp': 'reach'}",92,0,Left,44.65782741315767,56.42464229436163,2.2328913706578835,0.8863162085669921,Right,Incorrect,0.0,0.0,-45,45,2009,2533,-0.74
"{'cat': 'II', 'resp': 'reach'}",92,1,Left,30.306281165074207,42.66258094336836,1.5153140582537103,0.6701422543743297,Left,Correct,0.0,0.0,-45,45,2005,3422,-2.61
"{'cat': 'II', 'resp': 'reach'}",92,2,Left,42.60600286805153,66.02331028910793,2.1303001434025766,1.0370917328497042,Right,Incorrect,0.0,0.0,-45,45,2008,2204,-0.73
"{'cat': 'II', 'resp': 'reach'}",92,3,Left,34.76374255589305,65.65093876304019,1.7381871277946528,1.0312425345962022,Left,Correct,0.0,0.0,-45,45,2005,2966,-2.7
"{'cat': 'II', 'resp': 'reach'}",92,4,Right,69.49263064229086,43.41061200810373,3.474631532114543,0.6818922988624777,Left,Incorrect,0.0,0.0,-45,45,2006,708,-2.51
"{'cat': 'II', 'resp': 'reach'}",92,5,Left,35.1677574756795,47.037886049611544,1.758387873783975,0.7388693862692671,Left,Correct,0.0,0.0,-45,45,2006,1311,-2.56
"{'cat': 'II', 'resp': 'reach'}",92,6,Left,42.96963461123355,67.57594727964997,2.1484817305616777,1.0614804976655976,Left,Correct,0.0,0.0,-45,45,2013,2961,-2.61
"{'cat': 'II', 'resp': 'reach'}",92,7,Left,29.542727900083538,49.41231550741493,1.477136395004177,0.7761668369747787,Left,Correct,0.0,0.0,-45,45,2009,1095,-2.56
"{'cat': 'II', 'resp': 'reach'}",92,8,Right,53.43393936769145,26.6321254729545,2.6716969683845724,0.4183364486765773,Right,Correct,0.0,0.0,-45,45,2003,2126,-0.77
"{'cat': 'II', 'resp': 'reach'}",92,9,Left,61.71505847853251,87.21491448269005,3.0857529239266257,1.3699686731114054,Right,Incorrect,0.0,0.0,-45,45,2004,1035,-0.77
"{'cat': 'II', 'resp': 'reach'}",92,10,Left,39.61427940830734,50.01524970234065,1.980713970415367,0.7856377051616623,Left,Correct,0.0,0.0,-45,45,2013,1227,-2.57
"{'cat': 'II', 'resp': 'reach'}",92,11,Left,58.71409012511002,86.23618518447468,2.935704506255501,1.3545948292457732,Right,Incorrect,0.0,0.0,-45,45,2001,2795,-0.76
"{'cat': 'II', 'resp': 'reach'}",92,12,Right,74.92193209850072,64.3111096515104,3.7460966049250364,1.0101965481269637,Left,Incorrect,0.0,0.0,-45,45,2001,1221,-2.62
"{'cat': 'II', 'resp': 'reach'}",92,13,Left,29.340210191181427,39.17674686982161,1.4670105095590713,0.6153869007888926,Left,Correct,0.0,0.0,-45,45,2012,1304,-2.47
"{'cat': 'II', 'resp': 'reach'}",92,14,Left,44.01776104230146,52.20824423061348,2.200888052115073,0.820085182658585,Left,Correct,0.0,0.0,-45,45,2007,3977,-2.4
"{'cat': 'II', 'resp': 'reach'}",92,15,Right,46.790633300761755,35.69649769234072,2.3395316650380877,0.560719274545713,Left,Incorrect,0.0,0.0,-45,45,2012,2328,-2.51
"{'cat': 'II', 'resp': 'reach'}",92,16,Right,64.2489948531656,45.44924429493929,3.2124497426582796,0.7139150599409455,Right,Correct,0.0,0.0,-45,45,2007,1154,-0.81
"{'cat': 'II', 'resp': 'reach'}",92,17,Left,52.08049771390673,63.443699960341625,2.6040248856953365,0.9965713085598215,Right,Incorrect,0.0,0.0,-45,45,2002,981,-0.82
"{'cat': 'II', 'resp': 'reach'}",92,18,Right,60.811468190989665,41.08706177524456,3.040573409549483,0.6453940571534915,Right,Correct,0.0,0.0,-45,45,2004,1383,-0.81
"{'cat': 'II', 'resp': 'reach'}",92,19,Left,34.166110108697445,52.93525317280363,1.7083055054348721,0.8315050124179785,Left,Correct,0.0,0.0,-45,45,2006,1227,-2.56
"{'cat': 'II', 'resp': 'reach'}",92,20,Right,52.14684716082134,22.874099377405685,2.6073423580410666,0.35930551280770273,Right,Correct,0.0,0.0,-45,45,2004,1795,-0.8
"{'cat': 'II', 'resp': 'reach'}",92,21,Left,19.763092407616487,34.76349455513018,0.9881546203808242,0.5460636955375288,Left,Correct,0.0,0.0,-45,45,2013,1069,-2.51
"{'cat': 'II', 'resp': 'reach'}",92,22,Right,33.15151763147657,14.15061587890785,1.6575758815738286,0.2222773544447399,Left,Incorrect,0.0,0.0,-45,45,2009,902,-2.39
"{'cat': 'II', 'resp': 'reach'}",92,23,Left,63.66401653997606,85.9538385938645,3.183200826998803,1.3501597393716378,Right,Incorrect,0.0,0.0,-45,45,2002,1121,-0.85
"{'cat': 'II', 'resp': 'reach'}",92,24,Right,67.44009704929928,37.37724538894408,3.3720048524649644,0.5871203976266486,Right,Correct,0.0,0.0,-45,45,2001,1186,-0.79
"{'cat': 'II', 'resp': 'reach'}",92,25,Right,78.6801838157653,60.215598958295104,3.9340091907882653,0.9458644165944455,Right,Correct,0.0,0.0,-45,45,2010,990,-0.78
"{'cat': 'II', 'resp': 'reach'}",92,26,Right,63.962398935304236,40.400759375086096,3.1981199467652117,0.6346136442610972,Right,Correct,0.0,0.0,-45,45,2012,1328,-0.79
"{'cat': 'II', 'resp': 'reach'}",92,27,Left,61.380917310571235,81.67305873039396,3.0690458655285617,1.2829174065180668,Right,Incorrect,0.0,0.0,-45,45,2006,6994,-0.75
"{'cat': 'II', 'resp': 'reach'}",92,28,Right,82.72145383425723,60.636791440785146,4.136072691712862,0.9524804926381353,Right,Correct,0.0,0.0,-45,45,2001,1028,-0.76
"{'cat': 'II', 'resp': 'reach'}",92,29,Right,70.82046260397836,42.00922103053112,3.5410231301989175,0.6598793008627319,Right,Correct,0.0,0.0,-45,45,2007,964,-0.79
"{'cat': 'II', 'resp': 'reach'}",92,30,Left,66.55298031846452,79.91516453740142,3.327649015923226,1.2553044691055992,Right,Incorrect,0.0,0.0,-45,45,2005,804,-0.81
"{'cat': 'II', 'resp': 'reach'}",92,31,Right,45.50429981360007,28.17230736052167,2.275214990680004,0.4425295691924427,Left,Incorrect,0.0,0.0,-45,45,2007,1102,-2.54
"{'cat': 'II', 'resp': 'reach'}",92,32,Right,82.52565032897773,58.02421125229978,4.126282516448887,0.911442179002836,Right,Correct,0.0,0.0,-45,45,2007,860,-0.84
"{'cat': 'II', 'resp': 'reach'}",92,33,Left,48.773594877973004,58.20643585611075,2.4386797438986503,0.9143045563860153,Left,Correct,0.0,0.0,-45,45,2002,5464,-2.58
"{'cat': 'II', 'resp': 'reach'}",92,34,Right,59.75071635161878,52.60570377998501,2.9875358175809392,0.8263284626606084,Left,Incorrect,0.0,0.0,-45,45,2006,4706,-2.46
"{'cat': 'II', 'resp': 'reach'}",92,35,Right,72.10530878455054,44.95583423545739,3.605265439227527,0.7061645928505672,Right,Correct,0.0,0.0,-45,45,2012,1112,-0.78
"{'cat': 'II', 'resp': 'reach'}",92,36,Right,76.0180877664636,46.310204011696996,3.80090438832318,0.7274389835469594,Right,Correct,0.0,0.0,-45,45,2006,871,-0.81
"{'cat': 'II', 'resp': 'reach'}",92,37,Left,30.56052329657483,53.74656139537775,1.5280261648287417,0.8442490121771576,Left,Correct,0.0,0.0,-45,45,2003,1009,-2.61
"{'cat': 'II', 'resp': 'reach'}",92,38,Right,73.72604685593748,57.19901087118994,3.6863023427968744,0.8984799617276652,Right,Correct,0.0,0.0,-45,45,2014,1143,-0.83
"{'cat': 'II', 'resp': 'reach'}",92,39,Left,23.763423740414535,38.150152047150996,1.1881711870207268,0.5992611870233158,Left,Correct,0.0,0.0,-45,45,2003,927,-2.58
"{'cat': 'II', 'resp': 'reach'}",92,40,Left,21.071242375828035,51.10363376424472,1.0535621187914017,0.8027340020274726,Left,Correct,0.0,0.0,-45,45,2012,988,-2.49
"{'cat': 'II', 'resp': 'reach'}",92,41,Left,53.82519993059812,72.68892660169172,2.6912599965299058,1.141794989046012,Right,Incorrect,0.0,0.0,-45,45,2005,912,-0.81
"{'cat': 'II', 'resp': 'reach'}",92,42,Right,75.4344032753972,62.15697822711161,3.77172016376986,0.9763595308381728,Right,Correct,0.0,0.0,-45,45,2010,788,-0.83
"{'cat': 'II', 'resp': 'reach'}",92,43,Right,59.723753832926484,48.05311612656331,2.986187691646324,0.7548165830265424,Left,Incorrect,0.0,0.0,-45,45,2012,2054,-2.5
"{'cat': 'II', 'resp': 'reach'}",92,44,Right,86.52652774677401,57.79277424994827,4.326326387338701,0.9078067750710542,Right,Correct,0.0,0.0,-45,45,2003,824,-0.85
"{'cat': 'II', 'resp': 'reach'}",92,45,Left,37.66474518739718,53.41221567894745,1.8832372593698592,0.8389971219446744,Left,Correct,0.0,0.0,-45,45,2008,1676,-2.43
"{'cat': 'II', 'resp': 'reach'}",92,46,Left,56.1755445871457,80.44159763315338,2.8087772293572852,1.2635736608367039,Right,Incorrect,0.0,0.0,-45,45,2008,3305,-0.81
"{'cat': 'II', 'resp': 'reach'}",92,47,Right,38.57428942993116,17.865292077158188,1.928714471496558,0.28062735171918046,Left,Incorrect,0.0,0.0,-45,45,2005,1151,-2.5
"{'cat': 'II', 'resp': 'reach'}",92,48,Left,59.40729861464018,68.84169467689784,2.9703649307320092,1.081362811288069,Right,Incorrect,0.0,0.0,-45,45,2012,2205,-0.75
"{'cat': 'II', 'resp': 'reach'}",92,49,Right,67.12005044141219,51.13808251478903,3.3560025220706096,0.8032751217356493,Left,Incorrect,0.0,0.0,-45,45,2006,1442,-2.46
"{'cat': 'II', 'resp': 'reach'}",92,50,Right,43.80990860021491,31.021355243701322,2.1904954300107455,0.48728230869005645,Left,Incorrect,0.0,0.0,-45,45,2008,1327,-2.55
"{'cat': 'II', 'resp': 'reach'}",92,51,Left,30.09181553487741,51.37328067585064,1.5045907767438704,0.8069696058102942,Left,Correct,0.0,0.0,-45,45,2007,1317,-2.48
"{'cat': 'II', 'resp': 'reach'}",92,52,Left,14.459157012568625,38.76341333497546,0.7229578506284312,0.6088942728061176,Left,Correct,0.0,0.0,-45,45,2008,852,-2.48
"{'cat': 'II', 'resp': 'reach'}",92,53,Right,53.95870927023103,23.870744577204853,2.6979354635115516,0.3749607789973258,Right,Correct,0.0,0.0,-45,45,2001,851,-0.79
"{'cat': 'II', 'resp': 'reach'}",92,54,Left,36.175005266249336,64.00189433245754,1.8087502633124668,1.0053394052533942,Right,Incorrect,0.0,0.0,-45,45,2001,1265,-0.77
"{'cat': 'II', 'resp': 'reach'}",92,55,Left,46.01261059018805,67.42446427631917,2.3006305295094025,1.0591010082135588,Left,Correct,0.0,0.0,-45,45,2005,1296,-2.41
"{'cat': 'II', 'resp': 'reach'}",92,56,Left,50.82790787639039,66.46656688820863,2.5413953938195193,1.0440543912266542,Left,Correct,0.0,0.0,-45,45,2009,1363,-2.41
"{'cat': 'II', 'resp': 'reach'}",92,57,Right,32.417818507482636,13.800353435409313,1.620890925374132,0.21677544484812283,Left,Incorrect,0.0,0.0,-45,45,2003,2572,-2.37
"{'cat': 'II', 'resp': 'reach'}",92,58,Left,54.45059810965428,84.07909314166699,2.722529905482714,1.3207113066717648,Right,Incorrect,0.0,0.0,-45,45,2004,1020,-0.85
"{'cat': 'II', 'resp': 'reach'}",92,59,Right,44.56154664508601,16.032449142805888,2.228077332254301,0.2518371222304548,Left,Incorrect,0.0,0.0,-45,45,2001,1159,-2.45
"{'cat': 'II', 'resp': 'reach'}",92,60,Right,54.37972789445837,26.29472643910492,2.7189863947229185,0.41303659704622664,Right,Correct,0.0,0.0,-45,45,2012,1027,-0.83
"{'cat': 'II', 'resp': 'reach'}",92,61,Right,35.606935396072544,16.106182174714473,1.7803467698036273,0.25299531798730934,Left,Incorrect,0.0,0.0,-45,45,2006,1133,-2.48
"{'cat': 'II', 'resp': 'reach'}",92,62,Left,37.23092161278042,63.215374653899694,1.8615460806390212,0.9929847830330883,Right,Incorrect,0.0,0.0,-45,45,2009,1583,-0.82
"{'cat': 'II', 'resp': 'reach'}",92,63,Right,50.904263019054405,39.110516288794535,2.5452131509527205,0.6143465532549043,Right,Correct,0.0,0.0,-45,45,2008,962,-0.85
"{'cat': 'II', 'resp': 'reach'}",92,64,Left,44.11689955884553,75.51623182031412,2.205844977942277,1.186206195567413,Left,Correct,0.0,0.0,-45,45,2007,1356,-2.53
"{'cat': 'II', 'resp': 'reach'}",92,65,Right,64.16110361768405,53.56298002214997,3.208055180884202,0.8413653227098161,Right,Correct,0.0,0.0,-45,45,2004,1090,-0.82
"{'cat': 'II', 'resp': 'reach'}",92,66,Right,50.42522570048256,21.662636815330092,2.521261285024128,0.340275903382124,Left,Incorrect,0.0,0.0,-45,45,2012,2162,-2.42
"{'cat': 'II', 'resp': 'reach'}",92,67,Right,62.961061202220975,35.27685973773371,3.148053060111049,0.5541276169689089,Right,Correct,0.0,0.0,-45,45,2002,824,-0.83
"{'cat': 'II', 'resp': 'reach'}",92,68,Left,20.19163168391091,50.204652668590704,1.0095815841955456,0.7886128399983587,Left,Correct,0.0,0.0,-45,45,2005,721,-2.51
"{'cat': 'II', 'resp': 'reach'}",92,69,Left,37.70702942333021,45.121518605565356,1.8853514711665105,0.7087671568502965,Right,Incorrect,0.0,0.0,-45,45,2008,1705,-0.8
"{'cat': 'II', 'resp': 'reach'}",92,70,Right,88.51904729918931,63.84194917515362,4.425952364959466,1.002826992597578,Right,Correct,0.0,0.0,-45,45,2007,573,-0.82
"{'cat': 'II', 'resp': 'reach'}",92,71,Right,72.1368170573275,45.16321347845969,3.6068408528663753,0.7094220983821824,Right,Correct,0.0,0.0,-45,45,2007,716,-0.82
"{'cat': 'II', 'resp': 'reach'}",92,72,Left,25.07706973959089,44.96433716881557,1.2538534869795444,0.7062981566154274,Left,Correct,0.0,0.0,-45,45,2002,680,-2.53
"{'cat': 'II', 'resp': 'reach'}",92,73,Right,76.6667037391612,44.60264368097954,3.8333351869580605,0.7006166885942426,Right,Correct,0.0,0.0,-45,45,2001,731,-0.83
"{'cat': 'II', 'resp': 'reach'}",92,74,Left,43.7642556148665,54.16487791505309,2.188212780743325,0.850819912702594,Left,Correct,0.0,0.0,-45,45,2002,1290,-2.5
"{'cat': 'II', 'resp': 'reach'}",92,75,Left,50.229686402670225,59.252648354158744,2.511484320133511,0.9307384238758222,Left,Correct,0.0,0.0,-45,45,2005,1074,-2.49
"{'cat': 'II', 'resp': 'reach'}",92,76,Left,39.762276484438765,66.0707141524262,1.988113824221938,1.0378363509934667,Left,Correct,0.0,0.0,-45,45,2009,1068,-2.55
"{'cat': 'II', 'resp': 'reach'}",92,77,Left,28.689508890603065,40.085041190493804,1.4344754445301533,0.6296543546144979,Left,Correct,0.0,0.0,-45,45,2012,866,-2.46
"{'cat': 'II', 'resp': 'reach'}",92,78,Right,60.78622201555397,39.27463063843195,3.0393111007776987,0.6169244554307522,Right,Correct,0.0,0.0,-45,45,2003,540,-0.83
"{'cat': 'II', 'resp': 'reach'}",92,79,Right,73.69952145761354,54.74122982692388,3.684976072880677,0.8598732273636726,Right,Correct,0.0,0.0,-45,45,2005,880,-0.81
"{'cat': 'II', 'resp': 'reach'}",92,80,Right,79.83309988272488,55.553271841394064,3.991654994136244,0.8726287534990015,Right,Correct,0.0,0.0,-45,45,2001,984,-0.84
"{'cat': 'II', 'resp': 'reach'}",92,81,Right,58.692274238337845,48.59222034604248,2.9346137119168922,0.7632848123037176,Right,Correct,0.0,0.0,-45,45,2001,673,-0.88
"{'cat': 'II', 'resp': 'reach'}",92,82,Right,73.87883182584656,62.33291647935944,3.6939415912923277,0.9791231624419088,Right,Correct,0.0,0.0,-45,45,2001,689,-0.85
"{'cat': 'II', 'resp': 'reach'}",92,83,Left,28.62337327490622,59.0741179790733,1.431168663745311,0.927934075301767,Left,Correct,0.0,0.0,-45,45,2002,801,-2.53
"{'cat': 'II', 'resp': 'reach'}",92,84,Left,40.78460968506119,69.25165584859957,2.0392304842530593,1.0878024663144452,Left,Correct,0.0,0.0,-45,45,2011,910,-2.52
"{'cat': 'II', 'resp': 'reach'}",92,85,Left,24.56105348693829,53.827032967110476,1.2280526743469147,0.8455130566700493,Left,Correct,0.0,0.0,-45,45,2002,756,-2.57
"{'cat': 'II', 'resp': 'reach'}",92,86,Right,80.8813147489636,54.61215742674886,4.0440657374481805,0.8578457628428173,Right,Correct,0.0,0.0,-45,45,2011,803,-0.84
"{'cat': 'II', 'resp': 'reach'}",92,87,Left,53.73718913723695,82.89792220904172,2.6868594568618476,1.3021575170489181,Right,Incorrect,0.0,0.0,-45,45,2007,562,-0.83
"{'cat': 'II', 'resp': 'reach'}",92,88,Left,19.823607718060575,32.89831077580146,0.9911803859030287,0.516765457243859,Left,Correct,0.0,0.0,-45,45,2008,715,-2.51
"{'cat': 'II', 'resp': 'reach'}",92,89,Left,37.826670334849084,53.08764828356592,1.8913335167424543,0.8338988292200473,Left,Correct,0.0,0.0,-45,45,2012,1027,-2.49
"{'cat': 'II', 'resp': 'reach'}",92,90,Left,22.70227646209454,47.31404120646297,1.135113823104727,0.7432072213293441,Left,Correct,0.0,0.0,-45,45,2006,724,-2.55
"{'cat': 'II', 'resp': 'reach'}",92,91,Right,55.71714995048988,24.73710766010631,2.7858574975244945,0.3885695784802489,Left,Incorrect,0.0,0.0,-45,45,2002,967,-2.51
"{'cat': 'II', 'resp': 'reach'}",92,92,Left,37.389611418997134,61.173538142988576,1.8694805709498568,0.9609116901205396,Left,Correct,0.0,0.0,-45,45,2003,720,-2.52
"{'cat': 'II', 'resp': 'reach'}",92,93,Right,57.92328362415333,45.79808074083381,2.8961641812076664,0.7193945700195785,Right,Correct,0.0,0.0,-45,45,2006,621,-0.81
"{'cat': 'II', 'resp': 'reach'}",92,94,Left,12.832494939244278,32.2683269066801,0.6416247469622138,0.5068696937683004,Left,Correct,0.0,0.0,-45,45,2002,784,-2.44
"{'cat': 'II', 'resp': 'reach'}",92,95,Left,11.221919505322123,36.33289887979652,0.5610959752661061,0.5707158410219478,Left,Correct,0.0,0.0,-45,45,2001,799,-2.45
"{'cat': 'II', 'resp': 'reach'}",92,96,Left,63.815491875244234,84.77353894446998,3.1907745937622116,1.3316196358337757,Right,Incorrect,0.0,0.0,-45,45,2004,605,-0.83
"{'cat': 'II', 'resp': 'reach'}",92,97,Left,44.83559563251881,51.46746086202484,2.2417797816259406,0.8084489847152873,Left,Correct,0.0,0.0,-45,45,2001,925,-2.48
"{'cat': 'II', 'resp': 'reach'}",92,98,Right,43.145700537922636,33.328932811153685,2.157285026896132,0.5235296523575411,Right,Correct,0.0,0.0,-45,45,2004,1578,-0.84
"{'cat': 'II', 'resp': 'reach'}",92,99,Right,59.63392131127373,40.66040938204008,2.9816960655636864,0.6386922170328531,Right,Correct,0.0,0.0,-45,45,2014,1212,-0.81
"{'cat': 'II', 'resp': 'reach'}",92,100,Right,65.33977425517065,35.19973200919298,3.2669887127585326,0.5529160974420507,Right,Correct,0.0,0.0,-45,45,2005,1054,-0.79
"{'cat': 'II', 'resp': 'reach'}",92,101,Right,44.728515040446695,37.50044057970318,2.2364257520223347,0.5890555431578804,Right,Correct,0.0,0.0,-45,45,2003,903,-0.81
"{'cat': 'II', 'resp': 'reach'}",92,102,Left,11.907085308032357,32.19621303188788,0.5953542654016178,0.5057369316719545,Left,Correct,0.0,0.0,-45,45,2002,790,-2.43
"{'cat': 'II', 'resp': 'reach'}",92,103,Left,62.51968321222227,78.78334066862698,3.125984160611113,1.2375258213491025,Left,Correct,0.0,0.0,-45,45,2001,864,-2.36
"{'cat': 'II', 'resp': 'reach'}",92,104,Left,55.879469272569104,71.98745207192499,2.793973463628455,1.1307762528990344,Left,Correct,0.0,0.0,-45,45,2002,800,-2.27
"{'cat': 'II', 'resp': 'reach'}",92,105,Left,13.71396457682048,36.11965565545672,0.6856982288410239,0.5673662242868793,Left,Correct,0.0,0.0,-45,45,2006,810,-2.4
"{'cat': 'II', 'resp': 'reach'}",92,106,Left,34.01578352563341,66.34945748625617,1.7007891762816707,1.0422148410424534,Left,Correct,0.0,0.0,-45,45,2005,1021,-2.36
"{'cat': 'II', 'resp': 'reach'}",92,107,Left,40.92320777362558,73.52675801243561,2.0461603886812787,1.1549556140707107,Left,Correct,0.0,0.0,-45,45,2006,1261,-2.47
"{'cat': 'II', 'resp': 'reach'}",92,108,Right,40.02975010386623,21.06335177407771,2.0014875051933116,0.33086235596710034,Left,Incorrect,0.0,0.0,-45,45,2005,1279,-2.48
"{'cat': 'II', 'resp': 'reach'}",92,109,Left,55.838243352819795,68.87733534454523,2.7919121676409895,1.0819226535863193,Right,Incorrect,0.0,0.0,-45,45,2006,712,-0.84
"{'cat': 'II', 'resp': 'reach'}",92,110,Left,54.48645744975903,62.528814857282654,2.7243228724879516,0.9822003269665776,Right,Incorrect,0.0,0.0,-45,45,2010,805,-0.83
"{'cat': 'II', 'resp': 'reach'}",92,111,Right,49.625966219551806,36.16026642737995,2.48129831097759,0.5680041368005325,Left,Incorrect,0.0,0.0,-45,45,2013,1076,-2.41
"{'cat': 'II', 'resp': 'reach'}",92,112,Right,46.456417608873934,20.176939144050362,2.3228208804436967,0.3169386189343847,Left,Incorrect,0.0,0.0,-45,45,2012,1196,-2.49
"{'cat': 'II', 'resp': 'reach'}",92,113,Left,25.83467876534393,52.87076250474821,1.2917339382671966,0.8304919953730383,Left,Correct,0.0,0.0,-45,45,2006,856,-2.41
"{'cat': 'II', 'resp': 'reach'}",92,114,Right,45.95243886635927,32.83932093994276,2.2976219433179637,0.5158388470690082,Left,Incorrect,0.0,0.0,-45,45,2006,933,-2.54
"{'cat': 'II', 'resp': 'reach'}",92,115,Left,50.57208212374317,79.17758382513084,2.5286041061871587,1.2437185783701055,Right,Incorrect,0.0,0.0,-45,45,2005,854,-0.79
"{'cat': 'II', 'resp': 'reach'}",92,116,Right,81.95632036970639,52.46340231010434,4.09781601848532,0.824093196398748,Right,Correct,0.0,0.0,-45,45,2008,846,-0.79
"{'cat': 'II', 'resp': 'reach'}",92,117,Left,48.48460303259974,74.48071250234487,2.4242301516299873,1.1699402961575007,Left,Correct,0.0,0.0,-45,45,2009,823,-2.3
"{'cat': 'II', 'resp': 'reach'}",92,118,Left,47.39683711663726,66.99441871560941,2.369841855831863,1.0523458683423854,Left,Correct,0.0,0.0,-45,45,2003,956,-2.47
"{'cat': 'II', 'resp': 'reach'}",92,119,Right,67.72241956811173,54.06297351401126,3.3861209784055863,0.8492192021141867,Left,Incorrect,0.0,0.0,-45,45,2001,1825,-2.52
"{'cat': 'II', 'resp': 'reach'}",92,120,Left,61.15658493329573,76.39637258838161,3.0578292466647867,1.2000314144228414,Right,Incorrect,0.0,0.0,-45,45,2006,598,-0.72
"{'cat': 'II', 'resp': 'reach'}",92,121,Right,51.027384343609256,36.09430415981299,2.5513692171804627,0.5669680039245201,Left,Incorrect,0.0,0.0,-45,45,2001,1384,-2.5
"{'cat': 'II', 'resp': 'reach'}",92,122,Right,78.86255609878675,58.71785959150077,3.9431278049393375,0.9223379816358788,Right,Correct,0.0,0.0,-45,45,2005,1808,-0.88
"{'cat': 'II', 'resp': 'reach'}",92,123,Right,49.81750344251873,33.92423970906911,2.4908751721259366,0.5328807112431533,Left,Incorrect,0.0,0.0,-45,45,2007,907,-2.44
"{'cat': 'II', 'resp': 'reach'}",92,124,Right,47.916595517980866,31.77998098603407,2.3958297758990432,0.4991987739847397,Right,Correct,0.0,0.0,-45,45,2006,1253,-0.76
"{'cat': 'II', 'resp': 'reach'}",92,125,Left,65.17600243568154,81.68504458838137,3.258800121784077,1.283105679935068,Left,Correct,0.0,0.0,-45,45,2004,1188,-2.52
"{'cat': 'II', 'resp': 'reach'}",92,126,Right,48.9734661684046,27.44386991709499,2.44867330842023,0.43108730058809774,Left,Incorrect,0.0,0.0,-45,45,2002,3098,-2.51
"{'cat': 'II', 'resp': 'reach'}",92,127,Left,12.557877529550474,34.35675005038121,0.6278938764775237,0.5396745677974918,Left,Correct,0.0,0.0,-45,45,2011,1122,-2.53
"{'cat': 'II', 'resp': 'reach'}",92,128,Left,33.87391702639391,60.7993107440514,1.6936958513196956,0.9550333398841743,Left,Correct,0.0,0.0,-45,45,2002,896,-2.5
"{'cat': 'II', 'resp': 'reach'}",92,129,Right,39.38379876709545,15.829742834983712,1.9691899383547724,0.2486530189930025,Left,Incorrect,0.0,0.0,-45,45,2002,898,-2.44
"{'cat': 'II', 'resp': 'reach'}",92,130,Left,55.784363985201345,73.86591488810467,2.789218199260067,1.1602830778157929,Left,Correct,0.0,0.0,-45,45,2001,1163,-2.5
"{'cat': 'II', 'resp': 'reach'}",92,131,Left,31.34497800049902,61.55935107198462,1.567248900024951,0.9669720254375094,Left,Correct,0.0,0.0,-45,45,2011,970,-2.25
"{'cat': 'II', 'resp': 'reach'}",92,132,Left,60.56353550345514,70.23991901111307,3.028176775172757,1.1033260677702743,Left,Correct,0.0,0.0,-45,45,2008,1140,-2.3
"{'cat': 'II', 'resp': 'reach'}",92,133,Left,27.291456766824542,56.489755331124954,1.364572838341227,0.887339001756735,Left,Correct,0.0,0.0,-45,45,2003,1032,-2.15
"{'cat': 'II', 'resp': 'reach'}",92,134,Left,21.02590340676292,47.69054270932816,1.0512951703381461,0.7491212931066781,Left,Correct,0.0,0.0,-45,45,2009,942,-2.31
"{'cat': 'II', 'resp': 'reach'}",92,135,Left,18.365999830311676,44.12353807843441,0.9182999915155838,0.693090915387995,Left,Correct,0.0,0.0,-45,45,2002,943,-2.45
"{'cat': 'II', 'resp': 'reach'}",92,136,Left,46.307033734119365,75.65715790015166,2.3153516867059682,1.1884198572529974,Left,Correct,0.0,0.0,-45,45,2002,1182,-2.5
"{'cat': 'II', 'resp': 'reach'}",92,137,Right,31.718110210203395,15.217894128623325,1.5859055105101698,0.2390421219879514,Left,Incorrect,0.0,0.0,-45,45,2012,2408,-2.51
"{'cat': 'II', 'resp': 'reach'}",92,138,Left,61.811251267264666,73.79931171655963,3.090562563363233,1.1592368776436346,Left,Correct,0.0,0.0,-45,45,2004,1144,-2.48
"{'cat': 'II', 'resp': 'reach'}",92,139,Right,53.70136770983166,22.664434617800623,2.6850683854915824,0.35601210646524317,Right,Correct,0.0,0.0,-45,45,2008,1182,-0.78
"{'cat': 'II', 'resp': 'reach'}",92,140,Right,70.55027372820608,51.01633993469116,3.527513686410304,0.8013627937593267,Right,Correct,0.0,0.0,-45,45,2005,1136,-0.76
"{'cat': 'II', 'resp': 'reach'}",92,141,Left,35.09531485028965,47.548729723186305,1.7547657425144823,0.7468936999294435,Left,Correct,0.0,0.0,-45,45,2004,2337,-2.5
"{'cat': 'II', 'resp': 'reach'}",92,142,Right,70.43722522109125,49.25341999361723,3.5218612610545623,0.7736709120806026,Left,Incorrect,0.0,0.0,-45,45,2003,2362,-2.49
"{'cat': 'II', 'resp': 'reach'}",92,143,Right,66.37940009713449,48.260210546934296,3.318970004856725,0.7580696145747273,Right,Correct,0.0,0.0,-45,45,2003,836,-0.72
"{'cat': 'II', 'resp': 'reach'}",92,144,Left,27.430475318122788,57.56555647361789,1.3715237659061392,0.9042376465866315,Left,Correct,0.0,0.0,-45,45,2008,898,-2.41
"{'cat': 'II', 'resp': 'reach'}",92,145,Left,33.107286982117444,56.41292613085882,1.6553643491058723,0.8861321715010487,Left,Correct,0.0,0.0,-45,45,2004,1426,-2.27
"{'cat': 'II', 'resp': 'reach'}",92,146,Right,60.01775247657693,34.23785832230814,3.0008876238288464,0.5378070209000572,Right,Correct,0.0,0.0,-45,45,2003,1063,-0.82
"{'cat': 'II', 'resp': 'reach'}",92,147,Right,66.80825476892183,51.181360937097594,3.340412738446091,0.8039549376035671,Right,Correct,0.0,0.0,-45,45,2009,1214,-0.8
"{'cat': 'II', 'resp': 'reach'}",92,148,Right,41.47309290209776,23.889314607570515,2.073654645104888,0.37525247635219433,Right,Correct,0.0,0.0,-45,45,2002,1673,-0.8
"{'cat': 'II', 'resp': 'reach'}",92,149,Left,33.00180233764591,43.22440303258624,1.6500901168822957,0.6789673351148865,Left,Correct,0.0,0.0,-45,45,2008,958,-2.46
"{'cat': 'II', 'resp': 'reach'}",92,150,Left,45.60686839972423,59.09669462588472,2.2803434199862114,0.9282887084405942,Left,Correct,0.0,0.0,-45,45,2008,1126,-2.35
"{'cat': 'II', 'resp': 'reach'}",92,151,Right,83.18725144406403,65.30262755903053,4.159362572203202,1.0257712749978034,Right,Correct,0.0,0.0,-45,45,2006,1061,-0.77
"{'cat': 'II', 'resp': 'reach'}",92,152,Left,56.868273583292336,76.34453839363421,2.8434136791646165,1.1992172047957257,Left,Correct,0.0,0.0,-45,45,2006,1122,-2.46
"{'cat': 'II', 'resp': 'reach'}",92,153,Left,34.86297660715986,46.64517096211441,1.7431488303579927,0.7327006321000927,Left,Correct,0.0,0.0,-45,45,2007,1180,-2.33
"{'cat': 'II', 'resp': 'reach'}",92,154,Left,22.94737629091431,41.6374062793129,1.1473688145457155,0.6540388484081147,Left,Correct,0.0,0.0,-45,45,2006,892,-2.51
"{'cat': 'II', 'resp': 'reach'}",92,155,Right,41.52590150192193,27.882567895743357,2.0762950750960965,0.43797835232242976,Left,Incorrect,0.0,0.0,-45,45,2008,1085,-2.52
"{'cat': 'II', 'resp': 'reach'}",92,156,Right,73.07820730578416,51.83930251064849,3.6539103652892084,0.814289859673361,Right,Correct,0.0,0.0,-45,45,2003,903,-0.8
"{'cat': 'II', 'resp': 'reach'}",92,157,Left,35.00590741635608,63.51669602488643,1.750295370817804,0.9977179280603962,Left,Correct,0.0,0.0,-45,45,2008,989,-2.58
"{'cat': 'II', 'resp': 'reach'}",92,158,Left,39.17218631508159,66.79486582481526,1.9586093157540796,1.0492112988637778,Left,Correct,0.0,0.0,-45,45,2002,1324,-2.35
"{'cat': 'II', 'resp': 'reach'}",92,159,Left,37.46767722955354,49.061937120704144,1.873383861477677,0.7706631061464424,Left,Correct,0.0,0.0,-45,45,2008,1148,-2.5
"{'cat': 'II', 'resp': 'reach'}",92,160,Right,57.01785843275637,28.28752307783727,2.8508929216378185,0.4443393734479265,Right,Correct,0.0,0.0,-45,45,2012,968,-0.78
"{'cat': 'II', 'resp': 'reach'}",92,161,Right,48.6930632495252,17.825507045765406,2.4346531624762604,0.2800024099074485,Right,Correct,0.0,0.0,-45,45,2003,980,-0.8
"{'cat': 'II', 'resp': 'reach'}",92,162,Left,32.506679125296884,47.07777822345247,1.6253339562648443,0.7394960110706391,Left,Correct,0.0,0.0,-45,45,2006,935,-2.53
"{'cat': 'II', 'resp': 'reach'}",92,163,Left,39.29579814735243,64.99025202791567,1.9647899073676214,1.020864491629245,Left,Correct,0.0,0.0,-45,45,2007,1034,-2.49
"{'cat': 'II', 'resp': 'reach'}",92,164,Left,53.45515442910957,60.60684065863658,2.6727577214554787,0.9520100268522994,Right,Incorrect,0.0,0.0,-45,45,2005,719,-0.81
"{'cat': 'II', 'resp': 'reach'}",92,165,Left,23.103415671425218,49.601028280722296,1.1551707835712608,0.7791311302860837,Left,Correct,0.0,0.0,-45,45,2005,843,-2.49
"{'cat': 'II', 'resp': 'reach'}",92,166,Left,33.32292552083373,45.67012421190702,1.6661462760416865,0.7173846335633022,Left,Correct,0.0,0.0,-45,45,2003,970,-2.5
"{'cat': 'II', 'resp': 'reach'}",92,167,Right,52.96581438411702,28.887103784222397,2.6482907192058507,0.453757565159995,Right,Correct,0.0,0.0,-45,45,2012,1093,-0.77
"{'cat': 'II', 'resp': 'reach'}",92,168,Right,40.08112631454327,22.820807405011227,2.0040563157271634,0.35846840446285405,Left,Incorrect,0.0,0.0,-45,45,2009,1234,-2.5
"{'cat': 'II', 'resp': 'reach'}",92,169,Right,36.088349468206815,21.485332349970474,1.8044174734103406,0.33749081135301184,Left,Incorrect,0.0,0.0,-45,45,2007,1192,-2.49
"{'cat': 'II', 'resp': 'reach'}",92,170,Left,32.354401932301414,50.08197341152579,1.6177200966150707,0.7866857987346438,Left,Correct,0.0,0.0,-45,45,2009,977,-2.54
"{'cat': 'II', 'resp': 'reach'}",92,171,Right,38.05322721253192,22.40163109222755,1.902661360626596,0.3518839983388538,Left,Incorrect,0.0,0.0,-45,45,2011,932,-2.44
"{'cat': 'II', 'resp': 'reach'}",92,172,Left,61.09275948940477,76.90284474412394,3.0546379744702388,1.207987060441481,Right,Incorrect,0.0,0.0,-45,45,2005,1036,-0.78
"{'cat': 'II', 'resp': 'reach'}",92,173,Left,47.71351863483698,78.01424287819378,2.385675931741849,1.225444861507517,Right,Incorrect,0.0,0.0,-45,45,2004,1052,-0.82
"{'cat': 'II', 'resp': 'reach'}",92,174,Left,49.35913561318738,65.66795003283474,2.467956780659369,1.0315097469972763,Right,Incorrect,0.0,0.0,-45,45,2009,1017,-0.83
"{'cat': 'II', 'resp': 'reach'}",92,175,Left,19.584541504884605,47.09158260550324,0.9792270752442304,0.7397128497968293,Left,Correct,0.0,0.0,-45,45,2013,975,-2.44
"{'cat': 'II', 'resp': 'reach'}",92,176,Right,62.61849961287985,48.767635738788265,3.1309249806439925,0.7660402308496013,Left,Incorrect,0.0,0.0,-45,45,2008,1351,-2.5
"{'cat': 'II', 'resp': 'reach'}",92,177,Left,22.15562980658299,42.49829842846421,1.1077814903291496,0.667561710664649,Left,Correct,0.0,0.0,-45,45,2003,1492,-2.53
"{'cat': 'II', 'resp': 'reach'}",92,178,Right,73.1361716485352,44.86946368194016,3.65680858242676,0.7048078873684861,Right,Correct,0.0,0.0,-45,45,2003,1003,-0.84
"{'cat': 'II', 'resp': 'reach'}",92,179,Right,41.90672169435891,19.053981103238495,2.095336084717945,0.299299235277864,Left,Incorrect,0.0,0.0,-45,45,2001,2666,-2.4
"{'cat': 'II', 'resp': 'reach'}",92,180,Right,43.027790297456015,35.444396147449034,2.151389514872801,0.5567592727387612,Left,Incorrect,0.0,0.0,-45,45,2009,1604,-2.52
"{'cat': 'II', 'resp': 'reach'}",92,181,Right,73.503581549395,55.14867728957159,3.6751790774697497,0.8662733971405618,Right,Correct,0.0,0.0,-45,45,2009,738,-0.84
"{'cat': 'II', 'resp': 'reach'}",92,182,Right,55.365269000440634,31.350695285096947,2.768263450022032,0.49245556996296364,Right,Correct,0.0,0.0,-45,45,2006,823,-0.84
"{'cat': 'II', 'resp': 'reach'}",92,183,Right,63.91719494597919,35.82987906403401,3.1958597472989596,0.5628144242328998,Right,Correct,0.0,0.0,-45,45,2002,735,-0.87
"{'cat': 'II', 'resp': 'reach'}",92,184,Left,40.90123058233768,60.01440518662415,2.045061529116884,0.9427040722192981,Left,Correct,0.0,0.0,-45,45,2006,1024,-2.45
"{'cat': 'II', 'resp': 'reach'}",92,185,Left,52.01917055802804,81.25886969392377,2.6009585279014016,1.276411340347206,Left,Correct,0.0,0.0,-45,45,2005,944,-2.39
"{'cat': 'II', 'resp': 'reach'}",92,186,Right,71.73797838845861,39.140657751164966,3.5868989194229304,0.6148200142386612,Right,Correct,0.0,0.0,-45,45,2002,1476,-0.82
"{'cat': 'II', 'resp': 'reach'}",92,187,Left,48.53412196650196,75.08645185507892,2.426706098325098,1.1794552276601982,Left,Correct,0.0,0.0,-45,45,2006,1113,-2.38
"{'cat': 'II', 'resp': 'reach'}",92,188,Right,44.570198370134705,24.619474669114172,2.2285099185067354,0.3867218037786454,Left,Incorrect,0.0,0.0,-45,45,2007,1101,-2.45
"{'cat': 'II', 'resp': 'reach'}",92,189,Right,58.913838846025904,45.630744037532516,2.9456919423012953,0.716766051230742,Left,Incorrect,0.0,0.0,-45,45,2006,1645,-2.34
"{'cat': 'II', 'resp': 'reach'}",92,190,Left,17.790605283854106,40.25453858192322,0.8895302641927053,0.6323168134130844,Left,Correct,0.0,0.0,-45,45,2004,981,-2.46
"{'cat': 'II', 'resp': 'reach'}",92,191,Left,26.285511243462203,39.74531341657511,1.3142755621731101,0.624317923220681,Left,Correct,0.0,0.0,-45,45,2009,944,-2.43
"{'cat': 'II', 'resp': 'reach'}",92,192,Left,38.60311298770179,53.884383896432134,1.9301556493850895,0.8464139229612168,Left,Correct,0.0,0.0,-45,45,2011,910,-2.46
"{'cat': 'II', 'resp': 'reach'}",92,193,Left,41.2191236210269,57.14714002227502,2.060956181051345,0.8976651763382322,Left,Correct,0.0,0.0,-45,45,2004,926,-2.41
"{'cat': 'II', 'resp': 'reach'}",92,194,Left,13.340018696084776,35.921289770188096,0.6670009348042387,0.5642503002474656,Left,Correct,0.0,0.0,-45,45,2010,923,-2.48
"{'cat': 'II', 'resp': 'reach'}",92,195,Right,84.42050691239926,64.04985207758959,4.221025345619963,1.006092723752342,Right,Correct,0.0,0.0,-45,45,2003,944,-0.83
"{'cat': 'II', 'resp': 'reach'}",92,196,Left,33.021493236045885,63.65320102963597,1.6510746618022945,0.9998621436608932,Left,Correct,0.0,0.0,-45,45,2011,849,-2.47
"{'cat': 'II', 'resp': 'reach'}",92,197,Right,32.90531501467874,19.145550026068598,1.645265750733937,0.3007375965541649,Left,Incorrect,0.0,0.0,-45,45,2006,1190,-2.43
"{'cat': 'II', 'resp': 'reach'}",92,198,Left,50.09295613855327,58.26743753172648,2.504647806927663,0.9152627684658705,Left,Correct,0.0,0.0,-45,45,2006,1011,-2.48
"{'cat': 'II', 'resp': 'reach'}",92,199,Right,72.03071126043302,53.38458877200074,3.601535563021651,0.8385631595051485,Right,Correct,0.0,0.0,-45,45,2011,707,-0.86
"{'cat': 'II', 'resp': 'reach'}",92,200,Left,54.125490701133685,69.78242929304669,2.7062745350566844,1.0961398360834234,Right,Incorrect,0.0,0.0,-45,45,2003,715,-0.87
"{'cat': 'II', 'resp': 'reach'}",92,201,Right,83.11667030643302,60.31366605165862,4.1558335153216515,0.9474048508947942,Right,Correct,0.0,0.0,-45,45,2001,862,-0.86
"{'cat': 'II', 'resp': 'reach'}",92,202,Right,64.5092645130578,33.25277585700138,3.22546322565289,0.5223333817191178,Right,Correct,0.0,0.0,-45,45,2008,966,-0.88
"{'cat': 'II', 'resp': 'reach'}",92,203,Left,43.68362002973501,70.90337203440282,2.1841810014867504,1.1137475634901195,Left,Correct,0.0,0.0,-45,45,2012,924,-2.54
"{'cat': 'II', 'resp': 'reach'}",92,204,Left,62.582606740164124,80.89407348531103,3.129130337008206,1.2706811349020302,Right,Incorrect,0.0,0.0,-45,45,2006,926,-0.83
"{'cat': 'II', 'resp': 'reach'}",92,205,Right,77.96432988412705,65.40320194414785,3.8982164942063524,1.0273510937449228,Right,Correct,0.0,0.0,-45,45,2002,932,-0.88
"{'cat': 'II', 'resp': 'reach'}",92,206,Left,53.02309335314063,64.52223261670511,2.6511546676570314,1.0135128599092627,Left,Correct,0.0,0.0,-45,45,2011,1160,-2.51
"{'cat': 'II', 'resp': 'reach'}",92,207,Left,40.24893006854009,61.22247411894358,2.0124465034270047,0.961680374633322,Left,Correct,0.0,0.0,-45,45,2010,1296,-2.39
"{'cat': 'II', 'resp': 'reach'}",92,208,Right,59.86716019993534,45.70189433938601,2.993358009996767,0.7178836775587601,Right,Correct,0.0,0.0,-45,45,2008,3426,-0.85
"{'cat': 'II', 'resp': 'reach'}",92,209,Left,48.10438715469613,73.86392516940651,2.4052193577348064,1.1602518233875687,Left,Correct,0.0,0.0,-45,45,2007,1016,-2.55
"{'cat': 'II', 'resp': 'reach'}",92,210,Left,26.14730567422624,44.415594487820314,1.3073652837113119,0.697678526738798,Left,Correct,0.0,0.0,-45,45,2010,1040,-2.45
"{'cat': 'II', 'resp': 'reach'}",92,211,Left,57.98763115143675,65.8864377829802,2.8993815575718376,1.0349417445510578,Right,Incorrect,0.0,0.0,-45,45,2008,740,-0.86
"{'cat': 'II', 'resp': 'reach'}",92,212,Left,60.98970827516327,80.3539661352614,3.049485413758163,1.2621971484867012,Right,Incorrect,0.0,0.0,-45,45,2007,1023,-0.86
"{'cat': 'II', 'resp': 'reach'}",92,213,Right,75.46737164949144,45.560388441994675,3.773368582474572,0.715660908120339,Right,Correct,0.0,0.0,-45,45,2012,898,-0.84
"{'cat': 'II', 'resp': 'reach'}",92,214,Left,56.77571037749171,71.33053476751795,2.8387855188745856,1.1204574200113284,Left,Correct,0.0,0.0,-45,45,2006,1044,-2.38
"{'cat': 'II', 'resp': 'reach'}",92,215,Right,78.50601861476571,61.65067320195383,3.9253009307382856,0.9684065101006164,Right,Correct,0.0,0.0,-45,45,2011,963,-0.98
"{'cat': 'II', 'resp': 'reach'}",92,216,Right,51.98526937882233,25.478194703654502,2.5992634689411163,0.4002105465386568,Left,Incorrect,0.0,0.0,-45,45,2007,3674,-2.45
"{'cat': 'II', 'resp': 'reach'}",92,217,Right,80.36551901246821,59.610034818399996,4.01827595062341,0.9363522373285859,Right,Correct,0.0,0.0,-45,45,2009,636,-0.85
"{'cat': 'II', 'resp': 'reach'}",92,218,Right,73.70674723001713,51.05922326251537,3.6853373615008564,0.8020364034975968,Right,Correct,0.0,0.0,-45,45,2012,1908,-0.79
"{'cat': 'II', 'resp': 'reach'}",92,219,Left,18.085715374652107,46.84893739254034,0.9042857687326054,0.7359013877044644,Left,Correct,0.0,0.0,-45,45,2007,852,-2.54
"{'cat': 'II', 'resp': 'reach'}",92,220,Left,48.913530941118665,77.66614414361673,2.445676547055933,1.2199769393711613,Left,Correct,0.0,0.0,-45,45,2001,1103,-2.52
"{'cat': 'II', 'resp': 'reach'}",92,221,Right,63.50169562035932,37.198472547215744,3.175084781017966,0.5843122403954729,Right,Correct,0.0,0.0,-45,45,2004,907,-0.87
"{'cat': 'II', 'resp': 'reach'}",92,222,Right,37.88403586815724,24.050151030613502,1.894201793407862,0.37777888897750184,Left,Incorrect,0.0,0.0,-45,45,2008,909,-2.48
"{'cat': 'II', 'resp': 'reach'}",92,223,Left,39.3370621612757,57.43678440748609,1.966853108063785,0.9022148997018953,Left,Correct,0.0,0.0,-45,45,2004,922,-2.55
"{'cat': 'II', 'resp': 'reach'}",92,224,Right,69.51170664405846,45.01349841616285,3.475585332202923,0.707070379682965,Right,Correct,0.0,0.0,-45,45,2004,911,-0.8
"{'cat': 'II', 'resp': 'reach'}",92,225,Right,47.15040862837341,21.403480420137253,2.3575204314186706,0.3362050842457809,Left,Incorrect,0.0,0.0,-45,45,2006,1618,-2.52
"{'cat': 'II', 'resp': 'reach'}",92,226,Left,38.499837581387006,57.527188660347484,1.92499187906935,0.9036349663851085,Left,Correct,0.0,0.0,-45,45,2003,880,-2.49
"{'cat': 'II', 'resp': 'reach'}",92,227,Left,15.696137240830645,33.98593735088369,0.7848068620415322,0.5338498555344958,Left,Correct,0.0,0.0,-45,45,2002,823,-2.5
"{'cat': 'II', 'resp': 'reach'}",92,228,Right,71.69047055085132,56.89951522245965,3.584523527542566,0.8937754950784992,Right,Correct,0.0,0.0,-45,45,2003,1101,-0.83
"{'cat': 'II', 'resp': 'reach'}",92,229,Right,43.88575195825159,30.018918256269465,2.1942875979125795,0.4715360653130434,Left,Incorrect,0.0,0.0,-45,45,2003,1027,-2.47
"{'cat': 'II', 'resp': 'reach'}",92,230,Right,61.34201189947025,34.692316291501406,3.0671005949735126,0.5449456299869715,Right,Correct,0.0,0.0,-45,45,2006,937,-0.87
"{'cat': 'II', 'resp': 'reach'}",92,231,Left,52.140502815943684,60.12922919263606,2.6070251407971843,0.9445077234880119,Left,Correct,0.0,0.0,-45,45,2008,1264,-2.49
"{'cat': 'II', 'resp': 'reach'}",92,232,Right,79.73192444546578,47.91605727238599,3.986596222273289,0.752663667579578,Right,Correct,0.0,0.0,-45,45,2004,830,-0.82
"{'cat': 'II', 'resp': 'reach'}",92,233,Right,58.98474414367144,50.02960016732676,2.949237207183572,0.7858631217385421,Right,Correct,0.0,0.0,-45,45,2001,929,-0.86
"{'cat': 'II', 'resp': 'reach'}",92,234,Right,50.60852100904636,27.913185542680292,2.530426050452318,0.43845929319586613,Right,Correct,0.0,0.0,-45,45,2005,730,-0.85
"{'cat': 'II', 'resp': 'reach'}",92,235,Right,76.75345420772378,52.765240492390355,3.837672710386189,0.8288344594789611,Right,Correct,0.0,0.0,-45,45,2011,831,-0.86
"{'cat': 'II', 'resp': 'reach'}",92,236,Left,18.983246269388047,45.441648134951556,0.9491623134694024,0.7137957397388808,Left,Correct,0.0,0.0,-45,45,2007,802,-2.48
"{'cat': 'II', 'resp': 'reach'}",92,237,Left,54.349804270004334,69.32830832313547,2.717490213500217,1.0890065205688526,Right,Incorrect,0.0,0.0,-45,45,2012,808,-0.88
"{'cat': 'II', 'resp': 'reach'}",92,238,Left,31.19724332603446,46.64502966226445,1.559862166301723,0.73269841256724,Left,Correct,0.0,0.0,-45,45,2008,1033,-2.44
"{'cat': 'II', 'resp': 'reach'}",92,239,Right,52.15762152980864,39.01201990843873,2.6078810764904317,0.6127993757302493,Left,Incorrect,0.0,0.0,-45,45,2004,1952,-2.4
"{'cat': 'II', 'resp': 'reach'}",92,240,Right,64.23087321340353,42.95065489541345,3.211543660670176,0.6746673094315069,Left,Incorrect,0.0,0.0,-45,45,2008,2360,-2.42
"{'cat': 'II', 'resp': 'reach'}",92,241,Right,59.349507176077736,31.71797108625229,2.967475358803887,0.4982247247567183,Right,Correct,0.0,0.0,-45,45,2002,849,-0.84
"{'cat': 'II', 'resp': 'reach'}",92,242,Right,86.80721363170352,69.71520165835774,4.340360681585176,1.0950838268671381,Right,Correct,0.0,0.0,-45,45,2001,915,-0.89
"{'cat': 'II', 'resp': 'reach'}",92,243,Left,39.34641731809159,67.04450996073388,1.9673208659045796,1.0531326997808463,Left,Correct,0.0,0.0,-45,45,2007,806,-2.51
"{'cat': 'II', 'resp': 'reach'}",92,244,Right,58.27670623161301,45.87727240108545,2.913835311580651,0.7206385097099391,Right,Correct,0.0,0.0,-45,45,2003,816,-0.89
"{'cat': 'II', 'resp': 'reach'}",92,245,Right,73.72612910012639,54.53915155666,3.6863064550063194,0.8566989893171169,Right,Correct,0.0,0.0,-45,45,2011,937,-0.85
"{'cat': 'II', 'resp': 'reach'}",92,246,Left,34.49778696962862,62.83336912325538,1.7248893484814312,0.9869842541895741,Left,Correct,0.0,0.0,-45,45,2010,801,-2.47
"{'cat': 'II', 'resp': 'reach'}",92,247,Right,62.320527682281735,50.49055919354396,3.116026384114087,0.7931038491903915,Right,Correct,0.0,0.0,-45,45,2009,1334,-0.85
"{'cat': 'II', 'resp': 'reach'}",92,248,Left,59.64944850330386,76.80935746036545,2.982472425165193,1.2065185656221824,Right,Incorrect,0.0,0.0,-45,45,2001,818,-0.84
"{'cat': 'II', 'resp': 'reach'}",92,249,Left,10.875737194675757,36.556688840754944,0.5437868597337878,0.5742311255084185,Left,Correct,0.0,0.0,-45,45,2004,762,-2.35
"{'cat': 'II', 'resp': 'reach'}",92,250,Left,20.859243377905425,43.5174786504019,1.0429621688952713,0.6835709561542663,Left,Correct,0.0,0.0,-45,45,2006,823,-2.38
"{'cat': 'II', 'resp': 'reach'}",92,251,Left,48.33172215750222,57.30905231881496,2.4165861078751107,0.900208488744911,Left,Correct,0.0,0.0,-45,45,2001,1339,-2.43
"{'cat': 'II', 'resp': 'reach'}",92,252,Right,70.49363781458231,43.045160866098904,3.5246818907291155,0.6761518057476358,Right,Correct,0.0,0.0,-45,45,2009,804,-0.94
"{'cat': 'II', 'resp': 'reach'}",92,253,Left,17.726524604397596,31.834520560067332,0.8863262302198798,0.5000554796103038,Left,Correct,0.0,0.0,-45,45,2006,728,-2.43
"{'cat': 'II', 'resp': 'reach'}",92,254,Left,23.616466005580037,41.48764029321386,1.1808233002790018,0.6516863297996827,Left,Correct,0.0,0.0,-45,45,2004,829,-2.42
"{'cat': 'II', 'resp': 'reach'}",92,255,Right,41.40752988438123,30.718654903275926,2.0703764942190617,0.4825275028614586,Left,Incorrect,0.0,0.0,-45,45,2012,1455,-2.38
"{'cat': 'II', 'resp': 'reach'}",92,256,Right,57.86795510273195,40.13356971332398,2.8933977551365975,0.6304166388685621,Right,Correct,0.0,0.0,-45,45,2005,665,-0.9
"{'cat': 'II', 'resp': 'reach'}",92,257,Left,38.7519205939105,66.24454372997306,1.9375960296955248,1.0405668596124555,Left,Correct,0.0,0.0,-45,45,2007,981,-2.4
"{'cat': 'II', 'resp': 'reach'}",92,258,Left,14.27271639253042,31.468647448995938,0.7136358196265209,0.4943083582208641,Left,Correct,0.0,0.0,-45,45,2013,766,-2.45
"{'cat': 'II', 'resp': 'reach'}",92,259,Right,62.44179214949162,42.41835390872045,3.1220896074745808,0.6663059450850402,Right,Correct,0.0,0.0,-45,45,2003,741,-0.82
"{'cat': 'II', 'resp': 'reach'}",92,260,Right,38.67874698571231,15.111404323807061,1.9339373492856153,0.2373693840454865,Left,Incorrect,0.0,0.0,-45,45,2012,795,-2.49
"{'cat': 'II', 'resp': 'reach'}",92,261,Right,82.40663695336676,67.17005311987236,4.1203318476683375,1.0551047271131357,Right,Correct,0.0,0.0,-45,45,2013,681,-0.84
"{'cat': 'II', 'resp': 'reach'}",92,262,Right,77.23409086214598,54.74070723677142,3.861704543107299,0.8598650185367537,Right,Correct,0.0,0.0,-45,45,2007,685,-0.87
"{'cat': 'II', 'resp': 'reach'}",92,263,Left,62.967499796494764,84.54394929197687,3.1483749898247377,1.3280132500057127,Right,Incorrect,0.0,0.0,-45,45,2008,754,-0.87
"{'cat': 'II', 'resp': 'reach'}",92,264,Right,43.55902535321686,20.197713055044858,2.177951267660843,0.31726493476521794,Left,Incorrect,0.0,0.0,-45,45,2008,875,-2.43
"{'cat': 'II', 'resp': 'reach'}",92,265,Left,36.141407464087024,54.547509120292254,1.8070703732043512,0.8568302696196619,Left,Correct,0.0,0.0,-45,45,2006,810,-2.41
"{'cat': 'II', 'resp': 'reach'}",92,266,Right,49.95227359611771,37.29408518823851,2.4976136798058857,0.5858141202486101,Right,Correct,0.0,0.0,-45,45,2011,1157,-0.89
"{'cat': 'II', 'resp': 'reach'}",92,267,Left,52.38781233903231,67.68658535470664,2.6193906169516152,1.0632183964846242,Left,Correct,0.0,0.0,-45,45,2001,851,-2.36
"{'cat': 'II', 'resp': 'reach'}",92,268,Right,76.28092028553068,50.559159380006356,3.814046014276534,0.7941814183995173,Right,Correct,0.0,0.0,-45,45,2004,1302,-1.02
"{'cat': 'II', 'resp': 'reach'}",92,269,Left,16.724842995611905,40.2619108624754,0.8362421497805953,0.632432616925199,Left,Correct,0.0,0.0,-45,45,2003,837,-2.38
"{'cat': 'II', 'resp': 'reach'}",92,270,Right,69.51382949648371,40.30688172333744,3.4756914748241856,0.6331390175557481,Right,Correct,0.0,0.0,-45,45,2008,740,-0.79
"{'cat': 'II', 'resp': 'reach'}",92,271,Left,63.6465380511674,85.1236113490284,3.18232690255837,1.3371185603057019,Left,Correct,0.0,0.0,-45,45,2006,1006,-2.36
"{'cat': 'II', 'resp': 'reach'}",92,272,Right,72.77117641739233,54.44715815617863,3.6385588208696165,0.8552539603614617,Right,Correct,0.0,0.0,-45,45,2004,756,-0.77
"{'cat': 'II', 'resp': 'reach'}",92,273,Right,80.86419188344175,64.91077225862337,4.043209594172088,1.0196160263326564,Right,Correct,0.0,0.0,-45,45,2002,838,-0.84
"{'cat': 'II', 'resp': 'reach'}",92,274,Left,15.15700862072228,42.66571508490587,0.757850431036114,0.6701914853544775,Left,Correct,0.0,0.0,-45,45,2011,797,-2.37
"{'cat': 'II', 'resp': 'reach'}",92,275,Right,49.83206172168987,19.000350579308417,2.4916030860844933,0.2984568089779295,Left,Incorrect,0.0,0.0,-45,45,2007,1295,-2.35
"{'cat': 'II', 'resp': 'reach'}",92,276,Left,14.033408903399632,34.39855835017641,0.7016704451699816,0.5403312910349701,Left,Correct,0.0,0.0,-45,45,2004,769,-2.4
"{'cat': 'II', 'resp': 'reach'}",92,277,Right,38.06527567404098,16.31690202326768,1.903263783702049,0.25630529762821086,Left,Incorrect,0.0,0.0,-45,45,2006,1350,-2.36
"{'cat': 'II', 'resp': 'reach'}",92,278,Right,49.646960180022035,32.2992456923499,2.4823480090011016,0.5073553649178911,Right,Correct,0.0,0.0,-45,45,2002,929,-0.83
"{'cat': 'II', 'resp': 'reach'}",92,279,Right,65.92104313248319,55.73386047739308,3.2960521566241594,0.875465433159883,Right,Correct,0.0,0.0,-45,45,2008,751,-0.82
"{'cat': 'II', 'resp': 'reach'}",92,280,Left,42.51931784625322,52.462489621096694,2.125965892312661,0.8240788599133406,Left,Correct,0.0,0.0,-45,45,2007,1381,-2.52
"{'cat': 'II', 'resp': 'reach'}",92,281,Left,39.53595987952041,50.73789531559353,1.9767979939760207,0.7969889959103832,Right,Incorrect,0.0,0.0,-45,45,2003,788,-0.82
"{'cat': 'II', 'resp': 'reach'}",92,282,Left,13.602734162390217,34.465562834807514,0.6801367081195109,0.5413837950183434,Left,Correct,0.0,0.0,-45,45,2010,785,-2.45
"{'cat': 'II', 'resp': 'reach'}",92,283,Right,74.97794941531173,60.50659106406653,3.7488974707655864,0.9504353099031662,Right,Correct,0.0,0.0,-45,45,2011,745,-0.82
"{'cat': 'II', 'resp': 'reach'}",92,284,Left,25.12851324269795,43.25075602708986,1.2564256621348975,0.6793812869845498,Left,Correct,0.0,0.0,-45,45,2005,757,-2.47
"{'cat': 'II', 'resp': 'reach'}",92,285,Left,48.16421101176947,65.87719392798112,2.408210550588473,1.0347965424162784,Right,Incorrect,0.0,0.0,-45,45,2005,604,-0.79
"{'cat': 'II', 'resp': 'reach'}",92,286,Right,42.73435119026908,26.77797889613293,2.136717559513454,0.4206275088903687,Left,Incorrect,0.0,0.0,-45,45,2001,902,-2.46
"{'cat': 'II', 'resp': 'reach'}",92,287,Left,49.940208578833065,69.81008474792503,2.4970104289416533,1.0965742469528108,Left,Correct,0.0,0.0,-45,45,2005,947,-2.54
"{'cat': 'II', 'resp': 'reach'}",92,288,Right,60.380366175051066,27.800535833543144,3.0190183087525533,0.43668979570259475,Right,Correct,0.0,0.0,-45,45,2005,1127,-0.87
"{'cat': 'II', 'resp': 'reach'}",92,289,Left,41.29508374864524,73.11387951948134,2.0647541874322624,1.1484701338692591,Left,Correct,0.0,0.0,-45,45,2012,934,-2.48
"{'cat': 'II', 'resp': 'reach'}",92,290,Right,56.87102054238219,34.931782995121694,2.8435510271191093,0.5487071641713359,Right,Correct,0.0,0.0,-45,45,2009,958,-0.82
"{'cat': 'II', 'resp': 'reach'}",92,291,Right,49.96744485422376,38.97786484150046,2.498372242711188,0.6122628691933687,Left,Incorrect,0.0,0.0,-45,45,2011,1310,-2.36
"{'cat': 'II', 'resp': 'reach'}",92,292,Left,32.68880795262994,51.59723138141474,1.634440397631497,0.8104874152671262,Left,Correct,0.0,0.0,-45,45,2011,912,-2.44
"{'cat': 'II', 'resp': 'reach'}",92,293,Right,52.33981335080807,34.54206197943513,2.6169906675404038,0.5425854407721837,Right,Correct,0.0,0.0,-45,45,2011,709,-0.81
"{'cat': 'II', 'resp': 'reach'}",92,294,Right,86.08265382976327,61.05386087388414,4.304132691488164,0.9590318039734386,Right,Correct,0.0,0.0,-45,45,2009,966,-0.84
"{'cat': 'II', 'resp': 'reach'}",92,295,Left,50.63149906252035,67.07535215525127,2.531574953126017,1.0536171678394286,Right,Incorrect,0.0,0.0,-45,45,2003,1901,-0.77
"{'cat': 'II', 'resp': 'reach'}",92,296,Right,60.67255853321285,42.40953999183074,3.0336279266606425,0.66616749640229,Right,Correct,0.0,0.0,-45,45,2007,957,-0.81
"{'cat': 'II', 'resp': 'reach'}",92,297,Right,56.22263445938193,32.770158245421065,2.811131722969096,0.514752442003949,Left,Incorrect,0.0,0.0,-45,45,2007,1265,-2.51
"{'cat': 'II', 'resp': 'reach'}",92,298,Left,33.75605647155092,58.67688707849328,1.687802823577546,0.9216943869065618,Left,Correct,0.0,0.0,-45,45,2011,858,-2.52
"{'cat': 'II', 'resp': 'reach'}",92,299,Right,49.854747600936875,38.172499259183326,2.4927373800468438,0.5996122162090608,Right,Correct,0.0,0.0,-45,45,2002,677,-0.82
"{'cat': 'II', 'resp': 'reach'}",92,300,Right,47.32590516403444,39.64939897631246,2.3662952582017223,0.6228113027161695,Right,Correct,0.0,0.0,-45,45,2008,799,-0.8
"{'cat': 'II', 'resp': 'reach'}",92,301,Left,35.57598766988798,68.39531468915074,1.778799383494399,1.07435109083699,Left,Correct,0.0,0.0,-45,45,2001,888,-2.47
"{'cat': 'II', 'resp': 'reach'}",92,302,Right,81.75675335703545,64.22889045985413,4.0878376678517725,1.0089050520845064,Right,Correct,0.0,0.0,-45,45,2008,789,-0.72
"{'cat': 'II', 'resp': 'reach'}",92,303,Left,57.51564104177663,65.95832130886305,2.8757820520888315,1.0360708883351963,Left,Correct,0.0,0.0,-45,45,2009,1048,-2.44
"{'cat': 'II', 'resp': 'reach'}",92,304,Right,80.52646572258979,56.44592535434848,4.0263232861294895,0.8866505220914951,Right,Correct,0.0,0.0,-45,45,2007,769,-0.79
"{'cat': 'II', 'resp': 'reach'}",92,305,Right,69.88959361124773,53.62057411468207,3.4944796805623866,0.8422700085997611,Left,Incorrect,0.0,0.0,-45,45,2004,998,-2.44
"{'cat': 'II', 'resp': 'reach'}",92,306,Left,31.7447732434906,60.02198728761298,1.58723866217453,0.9428231715831243,Left,Correct,0.0,0.0,-45,45,2007,760,-2.44
"{'cat': 'II', 'resp': 'reach'}",92,307,Right,42.99640582242302,27.545689593834375,2.149820291121151,0.4326866803302743,Left,Incorrect,0.0,0.0,-45,45,2005,850,-2.4
"{'cat': 'II', 'resp': 'reach'}",92,308,Left,50.2048564602576,69.8894739634286,2.51024282301288,1.097821289833812,Left,Correct,0.0,0.0,-45,45,2004,1136,-2.49
"{'cat': 'II', 'resp': 'reach'}",92,309,Right,72.90259526535192,55.68392277054602,3.645129763267596,0.8746810134950438,Right,Correct,0.0,0.0,-45,45,2007,762,-0.86
"{'cat': 'II', 'resp': 'reach'}",92,310,Right,34.14570623046703,13.232765461096687,1.7072853115233513,0.20785979379629052,Left,Incorrect,0.0,0.0,-45,45,2009,805,-2.52
"{'cat': 'II', 'resp': 'reach'}",92,311,Left,35.58500398056937,64.58708689405341,1.7792501990284684,1.014531588515619,Left,Correct,0.0,0.0,-45,45,2008,770,-2.46
"{'cat': 'II', 'resp': 'reach'}",92,312,Right,61.86705074355899,39.46614861545002,3.0933525371779496,0.6199328127789039,Right,Correct,0.0,0.0,-45,45,2001,972,-0.84
"{'cat': 'II', 'resp': 'reach'}",92,313,Right,45.186696752824375,20.519083538025885,2.259334837641219,0.32231301050728695,Left,Incorrect,0.0,0.0,-45,45,2005,913,-2.48
"{'cat': 'II', 'resp': 'reach'}",92,314,Left,27.932968771335027,51.9448864612639,1.3966484385667512,0.8159483684913128,Left,Correct,0.0,0.0,-45,45,2001,800,-2.41
"{'cat': 'II', 'resp': 'reach'}",92,315,Left,44.51490926979413,76.56535291399271,2.225745463489707,1.2026857511705469,Left,Correct,0.0,0.0,-45,45,2006,836,-2.48
"{'cat': 'II', 'resp': 'reach'}",92,316,Left,37.175468671172645,44.88895986825962,1.8587734335586321,0.7051141327470574,Left,Correct,0.0,0.0,-45,45,2008,855,-2.52
"{'cat': 'II', 'resp': 'reach'}",92,317,Left,28.141433525163457,45.14653340853607,1.4070716762581728,0.7091600884565155,Left,Correct,0.0,0.0,-45,45,2006,829,-2.42
"{'cat': 'II', 'resp': 'reach'}",92,318,Left,47.64985708393454,58.45897238101379,2.382492854196727,0.9182713908430077,Left,Correct,0.0,0.0,-45,45,2009,1069,-2.52
"{'cat': 'II', 'resp': 'reach'}",92,319,Left,47.32081002908608,70.68024502427349,2.3660405014543042,1.1102426926109206,Left,Correct,0.0,0.0,-45,45,2006,930,-2.52
"{'cat': 'II', 'resp': 'reach'}",92,320,Left,64.51509702870312,89.00221716907265,3.225754851435156,1.3980435580578099,Right,Incorrect,0.0,0.0,-45,45,2009,1481,-0.77
"{'cat': 'II', 'resp': 'reach'}",92,321,Left,63.599830417931955,86.88728721628829,3.179991520896598,1.364822316045188,Left,Correct,0.0,0.0,-45,45,2005,1000,-2.49
"{'cat': 'II', 'resp': 'reach'}",92,322,Right,74.74626441830378,60.99804686228687,3.737313220915189,0.9581550795294318,Right,Correct,0.0,0.0,-45,45,2003,1133,-0.92
"{'cat': 'II', 'resp': 'reach'}",92,323,Right,83.10082522894726,64.02022149657341,4.155041261447363,1.005627287674132,Right,Correct,0.0,0.0,-45,45,2003,962,-0.93
"{'cat': 'II', 'resp': 'reach'}",92,324,Left,15.25764897005336,31.60041805750933,0.7628824485026681,0.4963782060991878,Left,Correct,0.0,0.0,-45,45,2004,871,-2.47
"{'cat': 'II', 'resp': 'reach'}",92,325,Right,68.45467554667997,52.46994358166787,3.422733777333998,0.8241959464521934,Right,Correct,0.0,0.0,-45,45,2008,781,-0.89
"{'cat': 'II', 'resp': 'reach'}",92,326,Right,66.8766689353131,50.02153047686025,3.343833446765655,0.7857363633371105,Left,Incorrect,0.0,0.0,-45,45,2007,897,-2.42
"{'cat': 'II', 'resp': 'reach'}",92,327,Right,38.376453153582375,19.059551949531365,1.9188226576791185,0.29938674192680376,Left,Incorrect,0.0,0.0,-45,45,2005,811,-2.39
"{'cat': 'II', 'resp': 'reach'}",92,328,Right,36.00053495385281,13.01551283403899,1.8000267476926404,0.2044471975106028,Left,Incorrect,0.0,0.0,-45,45,2004,1508,-2.26
"{'cat': 'II', 'resp': 'reach'}",92,329,Left,50.35813011559076,72.52130732603833,2.5179065057795382,1.1391620316210482,Left,Correct,0.0,0.0,-45,45,2007,1109,-2.7
"{'cat': 'II', 'resp': 'reach'}",92,330,Left,63.45376889785071,84.98831674850993,3.172688444892535,1.3349933576904058,Left,Correct,0.0,0.0,-45,45,2009,1564,-2.38
"{'cat': 'II', 'resp': 'reach'}",92,331,Left,50.62170406782615,66.50622963063782,2.531085203391308,1.044677412127838,Left,Correct,0.0,0.0,-45,45,2012,1012,-2.37
"{'cat': 'II', 'resp': 'reach'}",92,332,Right,72.64555952754785,40.7150909960614,3.6322779763773925,0.6395511538173321,Right,Correct,0.0,0.0,-45,45,2001,739,-0.78
"{'cat': 'II', 'resp': 'reach'}",92,333,Right,70.19286818727873,55.832008372568254,3.509643409363937,0.8770071366921212,Right,Correct,0.0,0.0,-45,45,2011,1176,-0.72
"{'cat': 'II', 'resp': 'reach'}",92,334,Left,26.18796156501771,57.27063463003754,1.3093980782508854,0.8996050251007557,Left,Correct,0.0,0.0,-45,45,2001,984,-2.4
"{'cat': 'II', 'resp': 'reach'}",92,335,Left,13.60841788963106,41.53817190891051,0.680420894481553,0.652480078562916,Left,Correct,0.0,0.0,-45,45,2008,739,-2.35
"{'cat': 'II', 'resp': 'reach'}",92,336,Left,27.792377697309323,39.85778856822252,1.3896188848654663,0.6260846787713155,Left,Correct,0.0,0.0,-45,45,2003,781,-2.39
"{'cat': 'II', 'resp': 'reach'}",92,337,Left,67.04596527264431,82.63098175133497,3.3522982636322154,1.2979644261445311,Right,Incorrect,0.0,0.0,-45,45,2007,833,-0.73
"{'cat': 'II', 'resp': 'reach'}",92,338,Left,34.03196005940307,42.778428120934194,1.7015980029701536,0.6719619775842295,Left,Correct,0.0,0.0,-45,45,2008,941,-2.45
"{'cat': 'II', 'resp': 'reach'}",92,339,Left,52.04197963095112,68.84666933749882,2.602098981547556,1.0814409530740599,Right,Incorrect,0.0,0.0,-45,45,2005,773,-0.69
"{'cat': 'II', 'resp': 'reach'}",92,340,Right,41.196313654872014,16.91938037135502,2.0598156827436007,0.2657690053897014,Left,Incorrect,0.0,0.0,-45,45,2012,1083,-2.49
"{'cat': 'II', 'resp': 'reach'}",92,341,Right,68.10777278113525,51.43086525386847,3.405388639056763,0.8078741422465987,Right,Correct,0.0,0.0,-45,45,2013,829,-0.83
"{'cat': 'II', 'resp': 'reach'}",92,342,Right,85.61675603205501,60.07459888082414,4.28083780160275,0.9436495925567537,Right,Correct,0.0,0.0,-45,45,2009,793,-0.8
"{'cat': 'II', 'resp': 'reach'}",92,343,Left,15.895495884899997,33.934224544585646,0.7947747942449999,0.5330375526726835,Left,Correct,0.0,0.0,-45,45,2007,826,-2.42
"{'cat': 'II', 'resp': 'reach'}",92,344,Right,82.45141236834338,55.99910468127318,4.122570618417169,0.8796318793714681,Right,Correct,0.0,0.0,-45,45,2005,793,-0.79
"{'cat': 'II', 'resp': 'reach'}",92,345,Right,60.72831220694782,28.677949886927678,3.0364156103473907,0.4504721834239412,Right,Correct,0.0,0.0,-45,45,2006,1338,-0.77
"{'cat': 'II', 'resp': 'reach'}",92,346,Left,31.422175284812454,58.75464474385758,1.5711087642406227,0.9229158014579056,Left,Correct,0.0,0.0,-45,45,2005,825,-2.42
"{'cat': 'II', 'resp': 'reach'}",92,347,Left,42.8072503695984,67.5397045837347,2.14036251847992,1.060911198729429,Left,Correct,0.0,0.0,-45,45,2002,1500,-2.4
"{'cat': 'II', 'resp': 'reach'}",92,348,Right,56.27316161400816,24.22029113029153,2.813658080700408,0.38045144341364945,Right,Correct,0.0,0.0,-45,45,2012,1222,-0.78
"{'cat': 'II', 'resp': 'reach'}",92,349,Right,51.77622639814069,20.46459363509767,2.588811319907035,0.32145708511361637,Right,Correct,0.0,0.0,-45,45,2002,1061,-0.82
"{'cat': 'II', 'resp': 'reach'}",92,350,Right,67.91685363452946,56.752254954988885,3.3958426817264726,0.89146233620624,Right,Correct,0.0,0.0,-45,45,2004,1194,-0.84
"{'cat': 'II', 'resp': 'reach'}",92,351,Right,54.26734450274088,29.792770565789713,2.7133672251370444,0.467983745697856,Right,Correct,0.0,0.0,-45,45,2002,990,-0.81
"{'cat': 'II', 'resp': 'reach'}",92,352,Right,65.08008615317128,41.527992009448916,3.254004307658564,0.6523201730761017,Right,Correct,0.0,0.0,-45,45,2007,702,-0.88
"{'cat': 'II', 'resp': 'reach'}",92,353,Left,52.71470475888675,63.90728009299149,2.6357352379443375,1.0038532082552365,Right,Incorrect,0.0,0.0,-45,45,2007,986,-0.92
"{'cat': 'II', 'resp': 'reach'}",92,354,Right,44.67395430961936,27.602664994208787,2.233697715480968,0.43358164782653236,Left,Incorrect,0.0,0.0,-45,45,2003,1223,-2.37
"{'cat': 'II', 'resp': 'reach'}",92,355,Right,61.55623433150989,43.27127723603931,3.0778117165754946,0.6797036333809418,Right,Correct,0.0,0.0,-45,45,2003,741,-0.81
"{'cat': 'II', 'resp': 'reach'}",92,356,Left,58.332557570923285,68.52357638649828,2.9166278785461643,1.0763658208676101,Right,Incorrect,0.0,0.0,-45,45,2006,1086,-0.84
"{'cat': 'II', 'resp': 'reach'}",92,357,Right,75.27581431280056,53.75954036185529,3.763790715640028,0.8444528853058427,Right,Correct,0.0,0.0,-45,45,2007,1173,-0.82
"{'cat': 'II', 'resp': 'reach'}",92,358,Right,60.714040106886415,33.133526451925604,3.0357020053443207,0.5204602164444628,Right,Correct,0.0,0.0,-45,45,2001,1436,-0.82
"{'cat': 'II', 'resp': 'reach'}",92,359,Right,76.04623104069334,58.63007641935492,3.802311552034667,0.9209590867922679,Right,Correct,0.0,0.0,-45,45,2005,1019,-0.84
"{'cat': 'II', 'resp': 'reach'}",92,360,Left,46.74311735294286,55.958977845483176,2.337155867647143,0.8790015685088197,Left,Correct,0.0,0.0,-45,45,2005,1160,-2.46
"{'cat': 'II', 'resp': 'reach'}",92,361,Right,32.05489470266001,15.023360801584833,1.6027447351330004,0.2359863996324389,Left,Incorrect,0.0,0.0,-45,45,2002,889,-2.36
"{'cat': 'II', 'resp': 'reach'}",92,362,Right,53.546070560035055,46.85710427399887,2.6773035280017528,0.7360296727784288,Right,Correct,0.0,0.0,-45,45,2011,3562,-0.82
"{'cat': 'II', 'resp': 'reach'}",92,363,Right,86.53930850103387,59.40855582521692,4.326965425051694,0.933187412704403,Right,Correct,0.0,0.0,-45,45,2004,833,-0.88
"{'cat': 'II', 'resp': 'reach'}",92,364,Left,41.70955869702833,58.939706027509956,2.0854779348514167,0.9258227373038366,Left,Correct,0.0,0.0,-45,45,2007,1773,-2.27
"{'cat': 'II', 'resp': 'reach'}",92,365,Right,74.27850138413729,44.352405023599324,3.713925069206864,0.6966859489558933,Right,Correct,0.0,0.0,-45,45,2009,674,-0.85
"{'cat': 'II', 'resp': 'reach'}",92,366,Left,25.538562726967,56.791440947244645,1.27692813634835,0.8920778683332118,Left,Correct,0.0,0.0,-45,45,2006,1011,-2.39
"{'cat': 'II', 'resp': 'reach'}",92,367,Right,81.84347934629854,57.57967452748505,4.092173967314927,0.9044594124581918,Right,Correct,0.0,0.0,-45,45,2009,768,-0.94
"{'cat': 'II', 'resp': 'reach'}",92,368,Right,39.01568687895909,21.862408657893095,1.9507843439479544,0.34341391214707423,Left,Incorrect,0.0,0.0,-45,45,2001,893,-2.69
"{'cat': 'II', 'resp': 'reach'}",92,369,Right,77.93042451142888,50.77393051634982,3.896521225571444,0.7975550355202159,Right,Correct,0.0,0.0,-45,45,2002,774,-0.8
"{'cat': 'II', 'resp': 'reach'}",92,370,Right,43.36510121179665,23.969317510554497,2.1682550605898325,0.37650915901359605,Left,Incorrect,0.0,0.0,-45,45,2010,861,-2.48
"{'cat': 'II', 'resp': 'reach'}",92,371,Left,56.046292639831684,80.70039376598521,2.8023146319915844,1.2676388209851135,Right,Incorrect,0.0,0.0,-45,45,2002,756,-0.79
"{'cat': 'II', 'resp': 'reach'}",92,372,Left,68.16770818793115,82.9223443569948,3.408385409396558,1.3025411392518893,Right,Incorrect,0.0,0.0,-45,45,2010,742,-0.85
"{'cat': 'II', 'resp': 'reach'}",92,373,Left,44.81151629029204,69.63829457279533,2.240575814514602,1.0938757731920787,Left,Correct,0.0,0.0,-45,45,2002,1114,-2.4
"{'cat': 'II', 'resp': 'reach'}",92,374,Right,45.81753908224567,26.758489163982695,2.2908769541122838,0.4203213648936506,Right,Correct,0.0,0.0,-45,45,2009,1135,-0.75
"{'cat': 'II', 'resp': 'reach'}",92,375,Left,24.991023833478764,51.45885446168235,1.2495511916739381,0.8083137956948382,Left,Correct,0.0,0.0,-45,45,2009,919,-2.57
"{'cat': 'II', 'resp': 'reach'}",92,376,Left,18.844985678268493,49.662558041910664,0.9422492839134248,0.7800976375147163,Left,Correct,0.0,0.0,-45,45,2002,838,-2.5
"{'cat': 'II', 'resp': 'reach'}",92,377,Right,71.32650758501856,43.2815566783093,3.5663253792509284,0.6798651024825336,Right,Correct,0.0,0.0,-45,45,2005,732,-0.8
"{'cat': 'II', 'resp': 'reach'}",92,378,Right,81.93007911541258,59.959349022604485,4.096503955770629,0.941839252017203,Right,Correct,0.0,0.0,-45,45,2008,652,-0.79
"{'cat': 'II', 'resp': 'reach'}",92,379,Left,54.41396578046676,80.00032010886738,2.720698289023338,1.2566420896942478,Right,Incorrect,0.0,0.0,-45,45,2003,716,-0.76
"{'cat': 'II', 'resp': 'reach'}",92,380,Right,65.07947958484716,41.77414111976874,3.253973979242358,0.6561866742594439,Right,Correct,0.0,0.0,-45,45,2001,663,-0.74
"{'cat': 'II', 'resp': 'reach'}",92,381,Right,59.63493887952965,38.39944895598741,2.9817469439764825,0.6031771337101315,Right,Correct,0.0,0.0,-45,45,2008,1308,-0.7
"{'cat': 'II', 'resp': 'reach'}",92,382,Right,66.71122795435419,41.89512298380519,3.335561397717709,0.6580870529358163,Right,Correct,0.0,0.0,-45,45,2005,760,-0.74
"{'cat': 'II', 'resp': 'reach'}",92,383,Right,70.10194162586124,45.04956206557096,3.505097081293062,0.7076368661631758,Right,Correct,0.0,0.0,-45,45,2004,809,-0.8
"{'cat': 'II', 'resp': 'reach'}",92,384,Right,73.60773209406975,53.14432359213352,3.6803866047034877,0.8347890828852269,Right,Correct,0.0,0.0,-45,45,2007,736,-0.76
"{'cat': 'II', 'resp': 'reach'}",92,385,Left,63.156173727537364,81.73348560990429,3.157808686376868,1.283866589721812,Right,Incorrect,0.0,0.0,-45,45,2008,587,-0.73
"{'cat': 'II', 'resp': 'reach'}",92,386,Left,42.21052920575279,64.11165539570429,2.1105264602876392,1.007063528003125,Left,Correct,0.0,0.0,-45,45,2011,931,-2.55
"{'cat': 'II', 'resp': 'reach'}",92,387,Left,44.43627666159634,56.40791574534617,2.2218138330798167,0.8860534685494577,Left,Correct,0.0,0.0,-45,45,2005,946,-2.57
"{'cat': 'II', 'resp': 'reach'}",92,388,Right,83.45420374721537,63.53660651082657,4.172710187360769,0.9980306812421907,Right,Correct,0.0,0.0,-45,45,2008,645,-0.74
"{'cat': 'II', 'resp': 'reach'}",92,389,Right,57.48605130629447,42.228127451462896,2.8743025653147236,0.6633178748818466,Left,Incorrect,0.0,0.0,-45,45,2001,1405,-2.54
"{'cat': 'II', 'resp': 'reach'}",92,390,Right,55.317885964267816,22.908491383534145,2.7658942982133907,0.3598457411766798,Right,Correct,0.0,0.0,-45,45,2004,649,-0.73
"{'cat': 'II', 'resp': 'reach'}",92,391,Right,65.17320388704411,41.1142569781968,3.2586601943522053,0.6458212384025297,Right,Correct,0.0,0.0,-45,45,2002,778,-0.72
"{'cat': 'II', 'resp': 'reach'}",92,392,Left,34.1827390765198,54.98195906068341,1.70913695382599,0.8636545933250888,Left,Correct,0.0,0.0,-45,45,2006,863,-2.52
"{'cat': 'II', 'resp': 'reach'}",92,393,Right,80.24181902175127,56.59619889318089,4.012090951087563,0.8890110133196193,Right,Correct,0.0,0.0,-45,45,2006,773,-0.73
"{'cat': 'II', 'resp': 'reach'}",92,394,Right,55.62351025848328,30.564935396619383,2.781175512924164,0.4801128824973304,Right,Correct,0.0,0.0,-45,45,2006,776,-0.74
"{'cat': 'II', 'resp': 'reach'}",92,395,Left,38.13505088773614,53.10394963399806,1.9067525443868072,0.8341548902338535,Left,Correct,0.0,0.0,-45,45,2005,1159,-2.42
"{'cat': 'II', 'resp': 'reach'}",92,396,Left,15.739122385875369,37.86235225343975,0.7869561192937684,0.5947404384351764,Left,Correct,0.0,0.0,-45,45,2011,964,-2.41
"{'cat': 'II', 'resp': 'reach'}",92,397,Right,49.20257762342944,23.06459355775011,2.4601288811714723,0.36229778839531107,Right,Correct,0.0,0.0,-45,45,2005,950,-0.75
"{'cat': 'II', 'resp': 'reach'}",92,398,Left,63.53074639062661,80.04365024390341,3.1765373195313304,1.2573227178637891,Left,Correct,0.0,0.0,-45,45,2001,1591,-2.46
"{'cat': 'II', 'resp': 'reach'}",92,399,Left,15.784742354140505,43.74774236585071,0.7892371177070252,0.6871879301384778,Left,Correct,0.0,0.0,-45,45,2002,945,-2.49
