condition,subject,trial,cat,x,y,xt,yt,resp,fb,rotation,su,target_angle_left,target_angle_right,rt,mt,ep
"{'cat': 'RB', 'resp': 'button'}",33,0,Right,66.92227286613821,38.693088271299146,3.3461136433069107,0.607789609289074,Right,Correct,0.0,0.0,-45,45,3929,-1,-1
"{'cat': 'RB', 'resp': 'button'}",33,1,Left,35.655269907175324,58.630099613615144,1.782763495358766,0.9209594511268555,Left,Correct,0.0,0.0,-45,45,2973,-1,-1
"{'cat': 'RB', 'resp': 'button'}",33,2,Right,68.85202508943425,35.158455623618515,3.442601254471713,0.5522677294936134,Right,Correct,0.0,0.0,-45,45,1302,-1,-1
"{'cat': 'RB', 'resp': 'button'}",33,3,Right,60.02941879586641,83.6098096134838,3.0014709397933204,1.31333981824881,Left,Incorrect,0.0,0.0,-45,45,612,-1,-1
"{'cat': 'RB', 'resp': 'button'}",33,4,Right,55.2329395356631,31.356778002349426,2.761646976783155,0.492551117062135,Left,Incorrect,0.0,0.0,-45,45,343,-1,-1
"{'cat': 'RB', 'resp': 'button'}",33,5,Right,52.44777824811971,58.93456207961719,2.6223889124059854,0.9257419363592848,Right,Correct,0.0,0.0,-45,45,913,-1,-1
"{'cat': 'RB', 'resp': 'button'}",33,6,Left,45.96674165887267,70.53189928682887,2.298337082943634,1.1079124832161837,Left,Correct,0.0,0.0,-45,45,785,-1,-1
"{'cat': 'RB', 'resp': 'button'}",33,7,Right,57.697791123052106,23.167909645802403,2.884889556152605,0.3639206737114247,Right,Correct,0.0,0.0,-45,45,811,-1,-1
"{'cat': 'RB', 'resp': 'button'}",33,8,Left,37.33687377395169,15.837002629036974,1.8668436886975843,0.248767055571324,Left,Correct,0.0,0.0,-45,45,1716,-1,-1
"{'cat': 'RB', 'resp': 'button'}",33,9,Right,63.36145839368923,42.584657137890176,3.168072919684462,0.6689182301001796,Left,Incorrect,0.0,0.0,-45,45,806,-1,-1
"{'cat': 'RB', 'resp': 'button'}",33,10,Right,56.95733292252604,83.6142289244126,2.847866646126302,1.3134092366225492,Right,Correct,0.0,0.0,-45,45,1091,-1,-1
"{'cat': 'RB', 'resp': 'button'}",33,11,Right,58.42859706818025,74.39706411002751,2.9214298534090126,1.1686263502835563,Right,Correct,0.0,0.0,-45,45,450,-1,-1
"{'cat': 'RB', 'resp': 'button'}",33,12,Left,41.898610613636016,51.519753700653716,2.094930530681801,0.8092703987036463,Right,Incorrect,0.0,0.0,-45,45,591,-1,-1
"{'cat': 'RB', 'resp': 'button'}",33,13,Right,56.28198516605423,23.07381965734897,2.814099258302712,0.3624427116289164,Left,Incorrect,0.0,0.0,-45,45,1762,-1,-1
"{'cat': 'RB', 'resp': 'button'}",33,14,Left,47.00405383884988,22.92519858188519,2.350202691942494,0.3601081772346883,Right,Incorrect,0.0,0.0,-45,45,705,-1,-1
"{'cat': 'RB', 'resp': 'button'}",33,15,Right,59.47187491936457,9.34055022708425,2.9735937459682287,0.14672101986947175,Left,Incorrect,0.0,0.0,-45,45,3643,-1,-1
"{'cat': 'RB', 'resp': 'button'}",33,16,Left,40.15468145155021,82.57000135157517,2.0077340725775104,1.2970065482650392,Right,Incorrect,0.0,0.0,-45,45,331,-1,-1
"{'cat': 'RB', 'resp': 'button'}",33,17,Left,41.01350164459787,33.41868021293227,2.0506750822298936,0.524939401248073,Right,Incorrect,0.0,0.0,-45,45,494,-1,-1
"{'cat': 'RB', 'resp': 'button'}",33,18,Left,47.58237944199773,74.05965513665946,2.3791189720998864,1.1633263425236147,Left,Correct,0.0,0.0,-45,45,485,-1,-1
"{'cat': 'RB', 'resp': 'button'}",33,19,Left,37.83798059479602,60.893743305633876,1.891899029739801,0.9565166830928103,Left,Correct,0.0,0.0,-45,45,331,-1,-1
"{'cat': 'RB', 'resp': 'button'}",33,20,Left,40.03965982024929,44.06574665986008,2.0019829910124645,0.6921831299078269,Right,Incorrect,0.0,0.0,-45,45,1024,-1,-1
"{'cat': 'RB', 'resp': 'button'}",33,21,Right,54.39833111724914,25.296675462917847,2.719916555862457,0.39735924897273944,Left,Incorrect,0.0,0.0,-45,45,1122,-1,-1
"{'cat': 'RB', 'resp': 'button'}",33,22,Left,32.78259772874963,42.867162029235935,1.6391298864374815,0.6733558065564548,Right,Incorrect,0.0,0.0,-45,45,2244,-1,-1
"{'cat': 'RB', 'resp': 'button'}",33,23,Right,50.8491688649623,60.81796279192916,2.542458443248115,0.9553263255671103,Right,Correct,0.0,0.0,-45,45,1903,-1,-1
"{'cat': 'RB', 'resp': 'button'}",33,24,Right,65.00517297252483,54.49932089983618,3.2502586486262417,0.85607333082279,Right,Correct,0.0,0.0,-45,45,2375,-1,-1
"{'cat': 'RB', 'resp': 'button'}",33,25,Left,37.84072093048613,87.53675507668049,1.8920360465243065,1.3750241333399424,Left,Correct,0.0,0.0,-45,45,435,-1,-1
"{'cat': 'RB', 'resp': 'button'}",33,26,Right,59.65574313626429,84.79881789251908,2.9827871568132145,1.332016716621183,Left,Incorrect,0.0,0.0,-45,45,2652,-1,-1
"{'cat': 'RB', 'resp': 'button'}",33,27,Right,61.43581544850488,45.10554751266672,3.071790772425244,0.7085162835096956,Right,Correct,0.0,0.0,-45,45,419,-1,-1
"{'cat': 'RB', 'resp': 'button'}",33,28,Right,62.07416346554938,52.60247644255017,3.1037081732774694,0.8262777677627289,Right,Correct,0.0,0.0,-45,45,2233,-1,-1
"{'cat': 'RB', 'resp': 'button'}",33,29,Left,47.198122603928624,30.037727825403408,2.359906130196431,0.4718315253340853,Right,Incorrect,0.0,0.0,-45,45,1232,-1,-1
"{'cat': 'RB', 'resp': 'button'}",33,30,Left,37.51177878523373,17.67112046342575,1.8755889392616865,0.277577311142993,Left,Correct,0.0,0.0,-45,45,1374,-1,-1
"{'cat': 'RB', 'resp': 'button'}",33,31,Left,34.4024205341279,37.80522358947007,1.7201210267063949,0.5938430634799935,Left,Correct,0.0,0.0,-45,45,2656,-1,-1
"{'cat': 'RB', 'resp': 'button'}",33,32,Right,60.92546254108418,52.3410120091672,3.0462731270542087,0.8221706940472739,Right,Correct,0.0,0.0,-45,45,916,-1,-1
"{'cat': 'RB', 'resp': 'button'}",33,33,Left,34.02577345286427,26.41711072071345,1.7012886726432135,0.41495900484630777,Left,Correct,0.0,0.0,-45,45,1071,-1,-1
"{'cat': 'RB', 'resp': 'button'}",33,34,Right,63.31975960200345,66.34666726264517,3.165987980100173,1.0421710123124626,Right,Correct,0.0,0.0,-45,45,758,-1,-1
"{'cat': 'RB', 'resp': 'button'}",33,35,Left,35.28715515753179,32.20210982779804,1.7643577578765897,0.50582955832551,Left,Correct,0.0,0.0,-45,45,516,-1,-1
"{'cat': 'RB', 'resp': 'button'}",33,36,Right,61.093013355700826,65.33051500979808,3.0546506677850416,1.0262093300500967,Right,Correct,0.0,0.0,-45,45,593,-1,-1
"{'cat': 'RB', 'resp': 'button'}",33,37,Left,36.91056622421881,32.60005032331334,1.8455283112109406,0.5120803930118938,Left,Correct,0.0,0.0,-45,45,1073,-1,-1
"{'cat': 'RB', 'resp': 'button'}",33,38,Left,48.49461630708545,61.55022549379065,2.4247308153542724,0.9668286811904396,Right,Incorrect,0.0,0.0,-45,45,4698,-1,-1
"{'cat': 'RB', 'resp': 'button'}",33,39,Right,63.87937763301963,43.20702209943455,3.193968881650982,0.6786943160553771,Right,Correct,0.0,0.0,-45,45,811,-1,-1
"{'cat': 'RB', 'resp': 'button'}",33,40,Right,64.24536830535062,17.111800383380114,3.212268415267531,0.2687915318706099,Right,Correct,0.0,0.0,-45,45,865,-1,-1
"{'cat': 'RB', 'resp': 'button'}",33,41,Right,64.92415649180775,69.71547100114765,3.2462078245903876,1.0950880576937887,Left,Incorrect,0.0,0.0,-45,45,3133,-1,-1
"{'cat': 'RB', 'resp': 'button'}",33,42,Right,60.36266914440519,88.69548810437809,3.018133457220259,1.3932254691763755,Left,Incorrect,0.0,0.0,-45,45,1648,-1,-1
"{'cat': 'RB', 'resp': 'button'}",33,43,Right,53.742749834852184,22.901486602803665,2.687137491742609,0.35973571033826535,Right,Correct,0.0,0.0,-45,45,836,-1,-1
"{'cat': 'RB', 'resp': 'button'}",33,44,Left,43.19368909077196,55.550811221524576,2.159684454538598,0.8725901021724753,Left,Correct,0.0,0.0,-45,45,749,-1,-1
"{'cat': 'RB', 'resp': 'button'}",33,45,Left,43.315156493384755,33.83690543731943,2.165757824669238,0.5315088677104762,Left,Correct,0.0,0.0,-45,45,858,-1,-1
"{'cat': 'RB', 'resp': 'button'}",33,46,Left,33.714101613081205,57.03469972390934,1.68570508065406,0.8958989682616669,Left,Correct,0.0,0.0,-45,45,1036,-1,-1
"{'cat': 'RB', 'resp': 'button'}",33,47,Left,35.595069715260856,46.3417027432921,1.7797534857630426,0.7279337644658421,Left,Correct,0.0,0.0,-45,45,699,-1,-1
"{'cat': 'RB', 'resp': 'button'}",33,48,Right,58.4695942162421,51.952627033509145,2.923479710812105,0.8160699571158141,Right,Correct,0.0,0.0,-45,45,759,-1,-1
"{'cat': 'RB', 'resp': 'button'}",33,49,Left,35.72830603148319,67.63517766729727,1.7864153015741595,1.0624108864191077,Left,Correct,0.0,0.0,-45,45,1404,-1,-1
"{'cat': 'RB', 'resp': 'button'}",33,50,Left,39.50040151572253,55.5520852403211,1.9750200757861265,0.8726101144129337,Right,Incorrect,0.0,0.0,-45,45,3011,-1,-1
"{'cat': 'RB', 'resp': 'button'}",33,51,Left,35.356997563526974,84.34843091241865,1.7678498781763488,1.3249420544814032,Left,Correct,0.0,0.0,-45,45,486,-1,-1
"{'cat': 'RB', 'resp': 'button'}",33,52,Right,67.63674703277881,41.20870757317838,3.381837351638941,0.6473048648791363,Right,Correct,0.0,0.0,-45,45,716,-1,-1
"{'cat': 'RB', 'resp': 'button'}",33,53,Left,36.29439972986466,44.15909506217506,1.814719986493233,0.6936494431825124,Left,Correct,0.0,0.0,-45,45,2976,-1,-1
"{'cat': 'RB', 'resp': 'button'}",33,54,Right,55.2697639935829,83.94676601828317,2.763488199679145,1.3186327170782985,Right,Correct,0.0,0.0,-45,45,875,-1,-1
"{'cat': 'RB', 'resp': 'button'}",33,55,Right,56.75847150113088,78.53203261951857,2.8379235750565437,1.2335782837447675,Right,Correct,0.0,0.0,-45,45,765,-1,-1
"{'cat': 'RB', 'resp': 'button'}",33,56,Left,43.194782537114236,19.726142186214705,2.159739126855712,0.30985751687939905,Left,Correct,0.0,0.0,-45,45,778,-1,-1
"{'cat': 'RB', 'resp': 'button'}",33,57,Left,32.94162972023788,58.835651634398154,1.6470814860118939,0.9241882547189677,Left,Correct,0.0,0.0,-45,45,624,-1,-1
"{'cat': 'RB', 'resp': 'button'}",33,58,Left,45.79288799941238,69.6742564803852,2.289644399970619,1.0944406615155458,Left,Correct,0.0,0.0,-45,45,4206,-1,-1
"{'cat': 'RB', 'resp': 'button'}",33,59,Left,35.542442347157916,64.62719991443564,1.777122117357896,1.0151616823663494,Left,Correct,0.0,0.0,-45,45,4980,-1,-1
"{'cat': 'RB', 'resp': 'button'}",33,60,Left,43.23943181257689,42.95592115990669,2.1619715906288444,0.6747500317207259,Left,Correct,0.0,0.0,-45,45,721,-1,-1
"{'cat': 'RB', 'resp': 'button'}",33,61,Right,58.49490549145652,55.61738320346461,2.924745274572826,0.8736358124194638,Right,Correct,0.0,0.0,-45,45,700,-1,-1
"{'cat': 'RB', 'resp': 'button'}",33,62,Right,68.11047974146464,39.732111525797094,3.405523987073232,0.6241105484052725,Right,Correct,0.0,0.0,-45,45,892,-1,-1
"{'cat': 'RB', 'resp': 'button'}",33,63,Left,32.71227234288472,63.98213524144661,1.635613617144236,1.0050290301775864,Left,Correct,0.0,0.0,-45,45,666,-1,-1
"{'cat': 'RB', 'resp': 'button'}",33,64,Right,64.37348673620602,33.845318876612254,3.218674336810301,0.531641025705845,Right,Correct,0.0,0.0,-45,45,476,-1,-1
"{'cat': 'RB', 'resp': 'button'}",33,65,Left,38.4469831903433,13.18460489742806,1.9223491595171651,0.20710328943122,Left,Correct,0.0,0.0,-45,45,741,-1,-1
"{'cat': 'RB', 'resp': 'button'}",33,66,Right,54.07737446434824,23.94111779576287,2.7038687232174117,0.37606619892948245,Right,Correct,0.0,0.0,-45,45,2005,-1,-1
"{'cat': 'RB', 'resp': 'button'}",33,67,Right,58.389342649449404,64.96352326385511,2.9194671324724704,1.0204446371851843,Right,Correct,0.0,0.0,-45,45,753,-1,-1
"{'cat': 'RB', 'resp': 'button'}",33,68,Right,59.07524925707358,31.89847780582012,2.9537624628536787,0.5010601176773077,Right,Correct,0.0,0.0,-45,45,897,-1,-1
"{'cat': 'RB', 'resp': 'button'}",33,69,Right,60.78710908819041,84.44500966454977,3.0393554544095207,1.326459109972343,Right,Correct,0.0,0.0,-45,45,633,-1,-1
"{'cat': 'RB', 'resp': 'button'}",33,70,Left,36.22490913356734,46.37290539842621,1.811245456678367,0.7284238946265513,Left,Correct,0.0,0.0,-45,45,629,-1,-1
"{'cat': 'RB', 'resp': 'button'}",33,71,Left,46.32688374580909,52.0068328188541,2.3163441872904547,0.8169214196009229,Right,Incorrect,0.0,0.0,-45,45,7134,-1,-1
"{'cat': 'RB', 'resp': 'button'}",33,72,Left,32.671702164023245,74.13894951661887,1.6335851082011623,1.1645718957313718,Left,Correct,0.0,0.0,-45,45,630,-1,-1
"{'cat': 'RB', 'resp': 'button'}",33,73,Right,54.86750019681269,37.13600219398812,2.743375009840635,0.5833309583816375,Right,Correct,0.0,0.0,-45,45,800,-1,-1
"{'cat': 'RB', 'resp': 'button'}",33,74,Left,36.14849655336386,39.76723734836992,1.807424827668193,0.6246623035360028,Left,Correct,0.0,0.0,-45,45,980,-1,-1
"{'cat': 'RB', 'resp': 'button'}",33,75,Left,40.082135678737174,52.74209778053572,2.0041067839368587,0.8284709346112278,Left,Correct,0.0,0.0,-45,45,948,-1,-1
"{'cat': 'RB', 'resp': 'button'}",33,76,Right,53.7763356826166,67.74900765802468,2.6888167841308297,1.0641989237322451,Left,Incorrect,0.0,0.0,-45,45,1934,-1,-1
"{'cat': 'RB', 'resp': 'button'}",33,77,Right,53.323438365097815,75.0487529204624,2.6661719182548906,1.1788630541800011,Right,Correct,0.0,0.0,-45,45,697,-1,-1
"{'cat': 'RB', 'resp': 'button'}",33,78,Right,55.51662034519253,55.49555963530053,2.7758310172596263,0.8717222122855719,Right,Correct,0.0,0.0,-45,45,1080,-1,-1
"{'cat': 'RB', 'resp': 'button'}",33,79,Right,57.058640551861345,64.60496088933208,2.8529320275930674,1.0148123525769077,Right,Correct,0.0,0.0,-45,45,693,-1,-1
"{'cat': 'RB', 'resp': 'button'}",33,80,Right,54.169482871137234,72.05931230157094,2.708474143556862,1.1319050307467395,Right,Correct,0.0,0.0,-45,45,538,-1,-1
"{'cat': 'RB', 'resp': 'button'}",33,81,Left,41.5442367577452,47.03109299227642,2.07721183788726,0.73876268117417,Left,Correct,0.0,0.0,-45,45,602,-1,-1
"{'cat': 'RB', 'resp': 'button'}",33,82,Left,40.854333290067345,45.815650418932215,2.0427166645033674,0.7196705538777779,Left,Correct,0.0,0.0,-45,45,716,-1,-1
"{'cat': 'RB', 'resp': 'button'}",33,83,Left,38.23218529715344,70.31602361754105,1.9116092648576721,1.1045215161325668,Left,Correct,0.0,0.0,-45,45,932,-1,-1
"{'cat': 'RB', 'resp': 'button'}",33,84,Right,51.262712773458965,63.339735435132965,2.5631356386729482,0.9949382376166742,Right,Correct,0.0,0.0,-45,45,2054,-1,-1
"{'cat': 'RB', 'resp': 'button'}",33,85,Left,35.68335243332941,50.499899216849315,1.7841676216664706,0.7932505619333938,Left,Correct,0.0,0.0,-45,45,551,-1,-1
"{'cat': 'RB', 'resp': 'button'}",33,86,Left,36.8237157722596,13.17235239171275,1.8411857886129797,0.20691082752150358,Left,Correct,0.0,0.0,-45,45,985,-1,-1
"{'cat': 'RB', 'resp': 'button'}",33,87,Left,40.795875839024,17.3078706490326,2.0397937919512,0.2718713964014161,Left,Correct,0.0,0.0,-45,45,603,-1,-1
"{'cat': 'RB', 'resp': 'button'}",33,88,Left,36.76591664788068,13.349443269853204,1.8382958323940342,0.20969256453042265,Left,Correct,0.0,0.0,-45,45,603,-1,-1
"{'cat': 'RB', 'resp': 'button'}",33,89,Right,54.40544193970139,32.87560769331225,2.7202720969850698,0.5164088380580493,Right,Correct,0.0,0.0,-45,45,757,-1,-1
"{'cat': 'RB', 'resp': 'button'}",33,90,Left,44.11402236174583,67.63514304149695,2.205701118087292,1.0624103425183082,Right,Incorrect,0.0,0.0,-45,45,1359,-1,-1
"{'cat': 'RB', 'resp': 'button'}",33,91,Left,46.40780523268835,76.32133888774257,2.3203902616344174,1.1988527878093456,Left,Correct,0.0,0.0,-45,45,1071,-1,-1
"{'cat': 'RB', 'resp': 'button'}",33,92,Left,36.594015104596295,29.552604154313652,1.8297007552298146,0.46421122052819486,Left,Correct,0.0,0.0,-45,45,799,-1,-1
"{'cat': 'RB', 'resp': 'button'}",33,93,Left,40.87156651741839,57.031077002605116,2.0435783258709193,0.8958420626884902,Left,Correct,0.0,0.0,-45,45,824,-1,-1
"{'cat': 'RB', 'resp': 'button'}",33,94,Right,61.769408027581285,72.06070532165421,3.0884704013790643,1.1319269122550388,Right,Correct,0.0,0.0,-45,45,3086,-1,-1
"{'cat': 'RB', 'resp': 'button'}",33,95,Left,39.732548280306965,12.702435209577025,1.9866274140153481,0.19952938568553755,Left,Correct,0.0,0.0,-45,45,833,-1,-1
"{'cat': 'RB', 'resp': 'button'}",33,96,Right,53.70373429334861,67.24395012569757,2.6851867146674304,1.0562654985662496,Right,Correct,0.0,0.0,-45,45,2694,-1,-1
"{'cat': 'RB', 'resp': 'button'}",33,97,Right,52.63813486135797,53.47608337617163,2.6319067430678986,0.8400003533866803,Right,Correct,0.0,0.0,-45,45,695,-1,-1
"{'cat': 'RB', 'resp': 'button'}",33,98,Right,56.61793284244031,28.28905425809067,2.8308966421220156,0.4443634251711035,Right,Correct,0.0,0.0,-45,45,730,-1,-1
"{'cat': 'RB', 'resp': 'button'}",33,99,Left,34.73876424230427,45.837995152592114,1.7369382121152137,0.7200215441333396,Left,Correct,0.0,0.0,-45,45,467,-1,-1
"{'cat': 'RB', 'resp': 'button'}",33,100,Right,61.37494450616747,26.75890787063646,3.0687472253083734,0.4203279419223879,Right,Correct,0.0,0.0,-45,45,634,-1,-1
"{'cat': 'RB', 'resp': 'button'}",33,101,Right,68.222173358648,58.8388556058424,3.4111086679324,0.9242385825847254,Right,Correct,0.0,0.0,-45,45,882,-1,-1
"{'cat': 'RB', 'resp': 'button'}",33,102,Right,52.52094389965386,30.108567994497996,2.626047194982693,0.47294428010811834,Right,Correct,0.0,0.0,-45,45,599,-1,-1
"{'cat': 'RB', 'resp': 'button'}",33,103,Right,55.342468780136024,24.215355498869144,2.7671234390068014,0.3803739146965625,Right,Correct,0.0,0.0,-45,45,827,-1,-1
"{'cat': 'RB', 'resp': 'button'}",33,104,Right,59.03065396059735,12.500578425709698,2.9515326980298675,0.19635862673916324,Right,Correct,0.0,0.0,-45,45,561,-1,-1
"{'cat': 'RB', 'resp': 'button'}",33,105,Right,51.26231301020008,59.818082805042415,2.563115650510004,0.9396202474607359,Right,Correct,0.0,0.0,-45,45,510,-1,-1
"{'cat': 'RB', 'resp': 'button'}",33,106,Right,57.758162890244826,67.97479670473015,2.8879081445122416,1.0677456097841995,Right,Correct,0.0,0.0,-45,45,572,-1,-1
"{'cat': 'RB', 'resp': 'button'}",33,107,Right,55.06470535675077,23.81736951887469,2.7532352678375385,0.37412236554165096,Right,Correct,0.0,0.0,-45,45,588,-1,-1
"{'cat': 'RB', 'resp': 'button'}",33,108,Right,59.298827862775724,36.00338073384873,2.9649413931387865,0.5655397820892772,Right,Correct,0.0,0.0,-45,45,503,-1,-1
"{'cat': 'RB', 'resp': 'button'}",33,109,Left,32.765195960986304,68.35840833793084,1.6382597980493154,1.073771367227674,Left,Correct,0.0,0.0,-45,45,661,-1,-1
"{'cat': 'RB', 'resp': 'button'}",33,110,Right,62.52606672708988,59.19522270888112,3.126303336354494,0.9298363839491631,Right,Correct,0.0,0.0,-45,45,724,-1,-1
"{'cat': 'RB', 'resp': 'button'}",33,111,Right,52.78406576952399,35.584320606498835,2.6392032884761996,0.5589572010018031,Right,Correct,0.0,0.0,-45,45,1320,-1,-1
"{'cat': 'RB', 'resp': 'button'}",33,112,Right,60.721011505882295,43.72579711980695,3.0360505752941145,0.6868432150197162,Right,Correct,0.0,0.0,-45,45,525,-1,-1
"{'cat': 'RB', 'resp': 'button'}",33,113,Right,56.40122250459181,82.9503865525293,2.82006112522959,1.302981625029298,Right,Correct,0.0,0.0,-45,45,488,-1,-1
"{'cat': 'RB', 'resp': 'button'}",33,114,Right,55.992919732795826,70.63622142684108,2.799645986639791,1.1095511715595292,Right,Correct,0.0,0.0,-45,45,520,-1,-1
"{'cat': 'RB', 'resp': 'button'}",33,115,Left,33.14259426689069,77.62538082095239,1.6571297133445344,1.21933663059607,Left,Correct,0.0,0.0,-45,45,596,-1,-1
"{'cat': 'RB', 'resp': 'button'}",33,116,Left,45.31624178809831,25.63002388606096,2.2658120894049154,0.4025954737589002,Left,Correct,0.0,0.0,-45,45,1343,-1,-1
"{'cat': 'RB', 'resp': 'button'}",33,117,Right,61.10892687873117,37.87524704024618,3.0554463439365582,0.5949429892726797,Right,Correct,0.0,0.0,-45,45,631,-1,-1
"{'cat': 'RB', 'resp': 'button'}",33,118,Left,49.06456873751431,57.422058679195004,2.4532284368757153,0.9019835885028052,Left,Correct,0.0,0.0,-45,45,1314,-1,-1
"{'cat': 'RB', 'resp': 'button'}",33,119,Left,42.3819455588827,23.117097587104976,2.119097277944135,0.3631225197598366,Left,Correct,0.0,0.0,-45,45,670,-1,-1
"{'cat': 'RB', 'resp': 'button'}",33,120,Left,36.08047546255221,26.65763743126322,1.8040237731276105,0.41873718958058403,Left,Correct,0.0,0.0,-45,45,649,-1,-1
"{'cat': 'RB', 'resp': 'button'}",33,121,Left,45.99295839126856,28.782618329352974,2.299647919563428,0.4521163114728711,Left,Correct,0.0,0.0,-45,45,810,-1,-1
"{'cat': 'RB', 'resp': 'button'}",33,122,Left,44.911804531388384,79.94452253979424,2.245590226569419,1.2557656235288057,Left,Correct,0.0,0.0,-45,45,605,-1,-1
"{'cat': 'RB', 'resp': 'button'}",33,123,Left,36.93730388712981,67.68519404617842,1.8468651943564904,1.0631965418613687,Left,Correct,0.0,0.0,-45,45,626,-1,-1
"{'cat': 'RB', 'resp': 'button'}",33,124,Left,36.50588813597347,82.1932847882851,1.8252944067986734,1.2910890983264507,Left,Correct,0.0,0.0,-45,45,479,-1,-1
"{'cat': 'RB', 'resp': 'button'}",33,125,Left,41.99098047994822,81.86622568938388,2.0995490239974113,1.2859516660144619,Left,Correct,0.0,0.0,-45,45,548,-1,-1
"{'cat': 'RB', 'resp': 'button'}",33,126,Right,51.35139268874696,59.56459301784413,2.567569634437348,0.935638439194625,Left,Incorrect,0.0,0.0,-45,45,2127,-1,-1
"{'cat': 'RB', 'resp': 'button'}",33,127,Left,33.592029551446544,28.957307585757032,1.6796014775723274,0.45486032389577147,Left,Correct,0.0,0.0,-45,45,727,-1,-1
"{'cat': 'RB', 'resp': 'button'}",33,128,Right,61.15748479736308,83.04625290981562,3.0578742398681538,1.3044874902481838,Right,Correct,0.0,0.0,-45,45,1033,-1,-1
"{'cat': 'RB', 'resp': 'button'}",33,129,Left,43.77645697204826,22.318162645635923,2.188822848602413,0.3505728790457598,Left,Correct,0.0,0.0,-45,45,1341,-1,-1
"{'cat': 'RB', 'resp': 'button'}",33,130,Left,33.473702465709856,46.82110766678636,1.6736851232854928,0.7354642393945637,Left,Correct,0.0,0.0,-45,45,1017,-1,-1
"{'cat': 'RB', 'resp': 'button'}",33,131,Right,61.86413507691094,38.373749003954146,3.093206753845547,0.602773439807605,Right,Correct,0.0,0.0,-45,45,720,-1,-1
"{'cat': 'RB', 'resp': 'button'}",33,132,Right,61.10763351773892,21.993547496139897,3.055381675886946,0.34547383620125643,Right,Correct,0.0,0.0,-45,45,606,-1,-1
"{'cat': 'RB', 'resp': 'button'}",33,133,Left,36.736725044902315,85.29946287365917,1.8368362522451156,1.3398808295952147,Left,Correct,0.0,0.0,-45,45,724,-1,-1
"{'cat': 'RB', 'resp': 'button'}",33,134,Right,68.92583325583009,60.56604910081968,3.446291662791504,0.9513692745604689,Right,Correct,0.0,0.0,-45,45,494,-1,-1
"{'cat': 'RB', 'resp': 'button'}",33,135,Left,47.701237421894426,71.98599855713994,2.3850618710947216,1.1307534211421812,Right,Incorrect,0.0,0.0,-45,45,1121,-1,-1
"{'cat': 'RB', 'resp': 'button'}",33,136,Right,64.71089686766678,36.405155106354336,3.2355448433833387,0.5718508391745987,Right,Correct,0.0,0.0,-45,45,870,-1,-1
"{'cat': 'RB', 'resp': 'button'}",33,137,Left,37.10634920511735,53.64575576578361,1.8553174602558673,0.8426655610502903,Left,Correct,0.0,0.0,-45,45,564,-1,-1
"{'cat': 'RB', 'resp': 'button'}",33,138,Right,64.74404377351894,46.45887172367388,3.237202188675947,0.7297742505058221,Right,Correct,0.0,0.0,-45,45,878,-1,-1
"{'cat': 'RB', 'resp': 'button'}",33,139,Left,32.931123494600016,38.40821585456568,1.6465561747300006,0.6033148438309729,Left,Correct,0.0,0.0,-45,45,937,-1,-1
"{'cat': 'RB', 'resp': 'button'}",33,140,Left,38.04675668150997,86.70872510008488,1.9023378340754986,1.3620174688828177,Left,Correct,0.0,0.0,-45,45,1013,-1,-1
"{'cat': 'RB', 'resp': 'button'}",33,141,Left,33.96929591030314,67.7982298130063,1.698464795515157,1.0649721035346653,Left,Correct,0.0,0.0,-45,45,553,-1,-1
"{'cat': 'RB', 'resp': 'button'}",33,142,Right,68.61030114140365,46.6380400746591,3.4305150570701826,0.732588620381877,Right,Correct,0.0,0.0,-45,45,707,-1,-1
"{'cat': 'RB', 'resp': 'button'}",33,143,Right,60.294744478113024,54.04883596601708,3.014737223905651,0.8489971300295952,Right,Correct,0.0,0.0,-45,45,733,-1,-1
"{'cat': 'RB', 'resp': 'button'}",33,144,Left,43.38259588124153,28.425266956697413,2.1691297940620764,0.4465030492374464,Left,Correct,0.0,0.0,-45,45,502,-1,-1
"{'cat': 'RB', 'resp': 'button'}",33,145,Left,38.07732105900734,51.96000077899091,1.903866052950367,0.8161857836389887,Left,Correct,0.0,0.0,-45,45,582,-1,-1
"{'cat': 'RB', 'resp': 'button'}",33,146,Left,33.85756412471717,27.614691517611366,1.6928782062358585,0.4337705600143812,Left,Correct,0.0,0.0,-45,45,640,-1,-1
"{'cat': 'RB', 'resp': 'button'}",33,147,Right,65.72745925348828,57.94603334247817,3.286372962674414,0.9102141632669931,Right,Correct,0.0,0.0,-45,45,815,-1,-1
"{'cat': 'RB', 'resp': 'button'}",33,148,Right,69.07493877494652,42.79358335186027,3.453746938747326,0.6722000353949336,Right,Correct,0.0,0.0,-45,45,1186,-1,-1
"{'cat': 'RB', 'resp': 'button'}",33,149,Left,46.5620277374622,41.52672867688695,2.3281013868731097,0.6523003286946232,Left,Correct,0.0,0.0,-45,45,1977,-1,-1
"{'cat': 'RB', 'resp': 'button'}",33,150,Right,55.35272793218249,35.12559345618613,2.767636396609124,0.5517515317746803,Right,Correct,0.0,0.0,-45,45,606,-1,-1
"{'cat': 'RB', 'resp': 'button'}",33,151,Right,55.679832328645595,14.908994214420431,2.7839916164322798,0.23418993348217979,Right,Correct,0.0,0.0,-45,45,786,-1,-1
"{'cat': 'RB', 'resp': 'button'}",33,152,Right,62.6068011448093,75.15831892912756,3.130340057240465,1.1805841130195291,Right,Correct,0.0,0.0,-45,45,1920,-1,-1
"{'cat': 'RB', 'resp': 'button'}",33,153,Left,35.867410180255746,65.72419180288404,1.7933705090127874,1.032393190655335,Left,Correct,0.0,0.0,-45,45,654,-1,-1
"{'cat': 'RB', 'resp': 'button'}",33,154,Left,32.319361989937974,40.343829481358355,1.6159680994968988,0.6337193915815736,Left,Correct,0.0,0.0,-45,45,693,-1,-1
"{'cat': 'RB', 'resp': 'button'}",33,155,Right,67.63431958014674,44.08744902924546,3.381715979007337,0.69252402992896,Right,Correct,0.0,0.0,-45,45,1102,-1,-1
"{'cat': 'RB', 'resp': 'button'}",33,156,Right,55.0656614292958,48.717162800706895,2.7532830714647902,0.7652474037921937,Right,Correct,0.0,0.0,-45,45,544,-1,-1
"{'cat': 'RB', 'resp': 'button'}",33,157,Right,56.43698323631672,39.677546958759244,2.821849161815836,0.6232534501905104,Right,Correct,0.0,0.0,-45,45,1356,-1,-1
"{'cat': 'RB', 'resp': 'button'}",33,158,Right,55.907281900276516,81.02626120033287,2.795364095013826,1.2727575346740672,Right,Correct,0.0,0.0,-45,45,633,-1,-1
"{'cat': 'RB', 'resp': 'button'}",33,159,Right,62.66254772097351,21.23562094076909,3.1331273860486757,0.3335683537096887,Right,Correct,0.0,0.0,-45,45,704,-1,-1
"{'cat': 'RB', 'resp': 'button'}",33,160,Right,62.310827329000375,89.87865624072626,3.115541366450019,1.4118106308019402,Right,Correct,0.0,0.0,-45,45,640,-1,-1
"{'cat': 'RB', 'resp': 'button'}",33,161,Right,59.34380402866901,35.25080678118368,2.967190201433451,0.5537183780843995,Right,Correct,0.0,0.0,-45,45,547,-1,-1
"{'cat': 'RB', 'resp': 'button'}",33,162,Left,38.10939870564512,86.02058562688501,1.905469935282256,1.3512081993145686,Right,Incorrect,0.0,0.0,-45,45,508,-1,-1
"{'cat': 'RB', 'resp': 'button'}",33,163,Right,65.92251842079355,66.4533377094701,3.2961259210396774,1.0438465877729644,Left,Incorrect,0.0,0.0,-45,45,2544,-1,-1
"{'cat': 'RB', 'resp': 'button'}",33,164,Right,58.483807719138966,22.11682614848894,2.924190385956948,0.3474102927440775,Right,Correct,0.0,0.0,-45,45,789,-1,-1
"{'cat': 'RB', 'resp': 'button'}",33,165,Left,37.51562837057158,44.409085825337,1.8757814185285786,0.6975762889075868,Left,Correct,0.0,0.0,-45,45,765,-1,-1
"{'cat': 'RB', 'resp': 'button'}",33,166,Left,46.44622849227792,26.809996451171184,2.322311424613896,0.42113043946883905,Right,Incorrect,0.0,0.0,-45,45,2136,-1,-1
"{'cat': 'RB', 'resp': 'button'}",33,167,Right,62.68996011706217,20.658036287166507,3.134498005853109,0.3244956751867683,Right,Correct,0.0,0.0,-45,45,757,-1,-1
"{'cat': 'RB', 'resp': 'button'}",33,168,Right,62.41084658517972,28.936076770201524,3.120542329258986,0.45452683102487684,Right,Correct,0.0,0.0,-45,45,981,-1,-1
"{'cat': 'RB', 'resp': 'button'}",33,169,Right,58.43776825787996,79.47395820583682,2.921888412893998,1.2483740162557961,Right,Correct,0.0,0.0,-45,45,838,-1,-1
"{'cat': 'RB', 'resp': 'button'}",33,170,Right,60.65810678039587,67.39316459930541,3.0329053390197935,1.0586093540367278,Right,Correct,0.0,0.0,-45,45,1022,-1,-1
"{'cat': 'RB', 'resp': 'button'}",33,171,Left,31.54747178307794,67.36917591301055,1.5773735891538967,1.058232540633562,Left,Correct,0.0,0.0,-45,45,719,-1,-1
"{'cat': 'RB', 'resp': 'button'}",33,172,Left,42.25466081063954,36.460002982767996,2.112733040531977,0.5727123876026294,Left,Correct,0.0,0.0,-45,45,709,-1,-1
"{'cat': 'RB', 'resp': 'button'}",33,173,Right,68.18394917247537,31.759603270802465,3.409197458623768,0.49887868158239695,Right,Correct,0.0,0.0,-45,45,832,-1,-1
"{'cat': 'RB', 'resp': 'button'}",33,174,Left,42.37636955499839,50.93587068165827,2.1188184777499197,0.8000987856884868,Left,Correct,0.0,0.0,-45,45,741,-1,-1
"{'cat': 'RB', 'resp': 'button'}",33,175,Left,30.85788477039977,56.722923003120094,1.5428942385199886,0.8910015909837079,Left,Correct,0.0,0.0,-45,45,734,-1,-1
"{'cat': 'RB', 'resp': 'button'}",33,176,Left,37.96384062382252,56.929813878937075,1.8981920311911262,0.8942514252615148,Left,Correct,0.0,0.0,-45,45,473,-1,-1
"{'cat': 'RB', 'resp': 'button'}",33,177,Right,50.71080030814768,53.9667829453556,2.535540015407384,0.8477082441950206,Left,Incorrect,0.0,0.0,-45,45,4355,-1,-1
"{'cat': 'RB', 'resp': 'button'}",33,178,Right,53.17375897375491,26.701293521906504,2.6586879486877457,0.41942293784883106,Right,Correct,0.0,0.0,-45,45,624,-1,-1
"{'cat': 'RB', 'resp': 'button'}",33,179,Left,39.51170207456317,14.00353552239411,1.9755851037281584,0.2199670216071852,Left,Correct,0.0,0.0,-45,45,641,-1,-1
"{'cat': 'RB', 'resp': 'button'}",33,180,Right,59.567922500038996,55.9346819812363,2.9783961250019497,0.8786199299656666,Right,Correct,0.0,0.0,-45,45,1027,-1,-1
"{'cat': 'RB', 'resp': 'button'}",33,181,Right,54.50616234373244,64.06848424188487,2.7253081171866222,1.0063853971046948,Right,Correct,0.0,0.0,-45,45,654,-1,-1
"{'cat': 'RB', 'resp': 'button'}",33,182,Left,38.32219651946315,54.20067412994941,1.9161098259731575,0.8513821983313172,Left,Correct,0.0,0.0,-45,45,507,-1,-1
"{'cat': 'RB', 'resp': 'button'}",33,183,Left,33.291106716342966,69.22310377619911,1.6645553358171483,1.087353971409955,Left,Correct,0.0,0.0,-45,45,1517,-1,-1
"{'cat': 'RB', 'resp': 'button'}",33,184,Left,40.33000112748866,62.606528858336944,2.016500056374433,0.9834210556405435,Left,Correct,0.0,0.0,-45,45,859,-1,-1
"{'cat': 'RB', 'resp': 'button'}",33,185,Left,42.76081529690033,63.050293957226664,2.1380407648450164,0.9903917015135011,Left,Correct,0.0,0.0,-45,45,678,-1,-1
"{'cat': 'RB', 'resp': 'button'}",33,186,Left,34.59740409840609,74.57696029521844,1.7298702049203043,1.1714521529525797,Left,Correct,0.0,0.0,-45,45,630,-1,-1
"{'cat': 'RB', 'resp': 'button'}",33,187,Right,57.12592609618335,30.032072815837555,2.856296304809167,0.471742696651545,Right,Correct,0.0,0.0,-45,45,732,-1,-1
"{'cat': 'RB', 'resp': 'button'}",33,188,Left,43.512126374738045,31.458617180509613,2.1756063187369024,0.4941508031319133,Right,Incorrect,0.0,0.0,-45,45,945,-1,-1
"{'cat': 'RB', 'resp': 'button'}",33,189,Left,39.911315568247716,20.22125886295411,1.9955657784123857,0.3176347914509706,Left,Correct,0.0,0.0,-45,45,518,-1,-1
"{'cat': 'RB', 'resp': 'button'}",33,190,Left,35.51269562299865,25.019285889606948,1.7756347811499325,0.3930020237442598,Left,Correct,0.0,0.0,-45,45,744,-1,-1
"{'cat': 'RB', 'resp': 'button'}",33,191,Left,37.55706010760527,38.543362129878616,1.8778530053802631,0.6054377165593886,Left,Correct,0.0,0.0,-45,45,703,-1,-1
"{'cat': 'RB', 'resp': 'button'}",33,192,Right,56.9815063688137,51.58628684289541,2.849075318440685,0.8103154988580802,Right,Correct,0.0,0.0,-45,45,569,-1,-1
"{'cat': 'RB', 'resp': 'button'}",33,193,Right,53.15162903820325,57.903508971409636,2.6575814519101626,0.9095461920082559,Right,Correct,0.0,0.0,-45,45,3716,-1,-1
"{'cat': 'RB', 'resp': 'button'}",33,194,Right,53.81305276465402,75.7272169853648,2.6906526382327005,1.1895203427901113,Left,Incorrect,0.0,0.0,-45,45,1362,-1,-1
"{'cat': 'RB', 'resp': 'button'}",33,195,Right,55.614287344582884,34.31800280855055,2.780714367229144,0.5390659275460815,Right,Correct,0.0,0.0,-45,45,1120,-1,-1
"{'cat': 'RB', 'resp': 'button'}",33,196,Left,37.48912273346728,34.054919652109206,1.8744561366733643,0.5349334269882848,Right,Incorrect,0.0,0.0,-45,45,1376,-1,-1
"{'cat': 'RB', 'resp': 'button'}",33,197,Right,51.46923617747699,55.302387018536784,2.5734618088738497,0.8686878639170735,Right,Correct,0.0,0.0,-45,45,841,-1,-1
"{'cat': 'RB', 'resp': 'button'}",33,198,Right,53.55284123884544,45.10629587475115,2.677642061942272,0.708528038753829,Right,Correct,0.0,0.0,-45,45,1187,-1,-1
"{'cat': 'RB', 'resp': 'button'}",33,199,Right,66.14744476560908,32.317237681543915,3.307372238280454,0.507637982423268,Right,Correct,0.0,0.0,-45,45,3967,-1,-1
"{'cat': 'RB', 'resp': 'button'}",33,200,Right,69.07625295626615,58.879834878747346,3.4538126478133075,0.9248822834982634,Right,Correct,0.0,0.0,-45,45,681,-1,-1
"{'cat': 'RB', 'resp': 'button'}",33,201,Left,44.11194566501285,75.50283625953514,2.2055972832506425,1.1859957785907433,Left,Correct,0.0,0.0,-45,45,1250,-1,-1
"{'cat': 'RB', 'resp': 'button'}",33,202,Left,35.327484303937524,82.32528006081587,1.7663742151968762,1.2931624752189068,Left,Correct,0.0,0.0,-45,45,703,-1,-1
"{'cat': 'RB', 'resp': 'button'}",33,203,Right,65.99782807472289,60.29246695422171,3.299891403736144,0.9470718562509414,Right,Correct,0.0,0.0,-45,45,620,-1,-1
"{'cat': 'RB', 'resp': 'button'}",33,204,Left,45.74588982900701,22.794862726280293,2.287294491450351,0.3580608664023499,Left,Correct,0.0,0.0,-45,45,1081,-1,-1
"{'cat': 'RB', 'resp': 'button'}",33,205,Right,61.79136708181711,83.96278656832028,3.0895683540908556,1.3188843672898138,Right,Correct,0.0,0.0,-45,45,500,-1,-1
"{'cat': 'RB', 'resp': 'button'}",33,206,Left,39.14855491161852,49.45033175476723,1.9574277455809261,0.7767639947917738,Left,Correct,0.0,0.0,-45,45,615,-1,-1
"{'cat': 'RB', 'resp': 'button'}",33,207,Right,60.583062317258715,75.58977237570247,3.0291531158629357,1.1873613679101578,Right,Correct,0.0,0.0,-45,45,697,-1,-1
"{'cat': 'RB', 'resp': 'button'}",33,208,Left,46.02622119000379,43.23643612142163,2.3013110595001893,0.6791563504323128,Left,Correct,0.0,0.0,-45,45,570,-1,-1
"{'cat': 'RB', 'resp': 'button'}",33,209,Left,44.67403800227612,61.03777270706876,2.233701900113806,0.9587790916400539,Left,Correct,0.0,0.0,-45,45,740,-1,-1
"{'cat': 'RB', 'resp': 'button'}",33,210,Right,53.54201052865771,54.24181332748799,2.677100526432886,0.852028411335126,Right,Correct,0.0,0.0,-45,45,809,-1,-1
"{'cat': 'RB', 'resp': 'button'}",33,211,Right,55.06009226834408,22.84677270246483,2.753004613417204,0.3588762664014967,Right,Correct,0.0,0.0,-45,45,690,-1,-1
"{'cat': 'RB', 'resp': 'button'}",33,212,Left,43.41989000096794,84.5403282843233,2.170994500048397,1.3279563713504972,Left,Correct,0.0,0.0,-45,45,946,-1,-1
"{'cat': 'RB', 'resp': 'button'}",33,213,Right,51.77281346366485,60.9255868858674,2.5886406731832428,0.9570168808814383,Right,Correct,0.0,0.0,-45,45,1024,-1,-1
"{'cat': 'RB', 'resp': 'button'}",33,214,Left,32.65276765441539,40.76929821248461,1.6326383827207696,0.6404026387817656,Left,Correct,0.0,0.0,-45,45,611,-1,-1
"{'cat': 'RB', 'resp': 'button'}",33,215,Left,34.18577840442101,22.30818175877977,1.7092889202210504,0.3504160996416418,Left,Correct,0.0,0.0,-45,45,471,-1,-1
"{'cat': 'RB', 'resp': 'button'}",33,216,Left,40.827716078170056,41.7037665271335,2.041385803908503,0.6550812327433326,Left,Correct,0.0,0.0,-45,45,772,-1,-1
"{'cat': 'RB', 'resp': 'button'}",33,217,Left,44.560293883045084,79.51617335829945,2.2280146941522543,1.2490371303200298,Left,Correct,0.0,0.0,-45,45,2294,-1,-1
"{'cat': 'RB', 'resp': 'button'}",33,218,Right,51.72271611024485,65.89018231288952,2.5861358055122428,1.0350005634893293,Right,Correct,0.0,0.0,-45,45,1943,-1,-1
"{'cat': 'RB', 'resp': 'button'}",33,219,Right,62.549267668451165,58.62516835807267,3.1274633834225587,0.9208819911459296,Right,Correct,0.0,0.0,-45,45,833,-1,-1
"{'cat': 'RB', 'resp': 'button'}",33,220,Right,57.29161443087546,30.88538873750923,2.864580721543773,0.48514655180511973,Right,Correct,0.0,0.0,-45,45,1170,-1,-1
"{'cat': 'RB', 'resp': 'button'}",33,221,Right,62.864111027613525,33.409106402342786,3.1432055513806763,0.5247890161829991,Right,Correct,0.0,0.0,-45,45,824,-1,-1
"{'cat': 'RB', 'resp': 'button'}",33,222,Right,51.82055470861876,65.50883015580193,2.591027735430938,1.0290102978136442,Right,Correct,0.0,0.0,-45,45,1033,-1,-1
"{'cat': 'RB', 'resp': 'button'}",33,223,Left,31.543354140735325,46.74249826434318,1.5771677070367662,0.7342294457884712,Left,Correct,0.0,0.0,-45,45,614,-1,-1
"{'cat': 'RB', 'resp': 'button'}",33,224,Right,57.45327800912662,62.79768054960292,2.872663900456331,0.986423659385556,Right,Correct,0.0,0.0,-45,45,638,-1,-1
"{'cat': 'RB', 'resp': 'button'}",33,225,Left,41.01799563413115,41.780350395672755,2.0508997817065575,0.6562842093372646,Left,Correct,0.0,0.0,-45,45,919,-1,-1
"{'cat': 'RB', 'resp': 'button'}",33,226,Left,40.463566499332245,88.0174226712808,2.0231783249666124,1.3825744422600172,Left,Correct,0.0,0.0,-45,45,2959,-1,-1
"{'cat': 'RB', 'resp': 'button'}",33,227,Right,56.838421151656284,67.32935868645025,2.841921057582814,1.0576070931013213,Right,Correct,0.0,0.0,-45,45,588,-1,-1
"{'cat': 'RB', 'resp': 'button'}",33,228,Right,64.34539701719136,71.55559955753604,3.217269850859568,1.1239927294658414,Right,Correct,0.0,0.0,-45,45,621,-1,-1
"{'cat': 'RB', 'resp': 'button'}",33,229,Left,42.62181595012715,51.28433860195355,2.1310907975063573,0.8055725069805435,Left,Correct,0.0,0.0,-45,45,1679,-1,-1
"{'cat': 'RB', 'resp': 'button'}",33,230,Right,60.724229970243066,45.107061494088065,3.036211498512153,0.7085400650742505,Right,Correct,0.0,0.0,-45,45,574,-1,-1
"{'cat': 'RB', 'resp': 'button'}",33,231,Right,55.26643529151926,68.58868409548528,2.763321764575963,1.0773885303688382,Right,Correct,0.0,0.0,-45,45,675,-1,-1
"{'cat': 'RB', 'resp': 'button'}",33,232,Right,58.15729425739353,69.05464297971828,2.907864712869676,1.0847077954067448,Right,Correct,0.0,0.0,-45,45,1101,-1,-1
"{'cat': 'RB', 'resp': 'button'}",33,233,Left,42.81622971957736,32.07650373342351,2.140811485978868,0.5038565424088444,Left,Correct,0.0,0.0,-45,45,1413,-1,-1
"{'cat': 'RB', 'resp': 'button'}",33,234,Right,66.44271065144328,49.43862779060652,3.322135532572164,0.7765801493526482,Right,Correct,0.0,0.0,-45,45,570,-1,-1
"{'cat': 'RB', 'resp': 'button'}",33,235,Right,57.150933839941395,77.6808351081809,2.85754669199707,1.220207704502906,Right,Correct,0.0,0.0,-45,45,768,-1,-1
"{'cat': 'RB', 'resp': 'button'}",33,236,Right,62.27105046939592,39.289164313839166,3.113552523469796,0.6171527498701969,Right,Correct,0.0,0.0,-45,45,641,-1,-1
"{'cat': 'RB', 'resp': 'button'}",33,237,Left,44.66370099951737,78.72460329596555,2.2331850499758685,1.2366031768568808,Left,Correct,0.0,0.0,-45,45,875,-1,-1
"{'cat': 'RB', 'resp': 'button'}",33,238,Left,42.519794642282164,12.805098109504378,2.125989732114108,0.2011420107465775,Left,Correct,0.0,0.0,-45,45,3370,-1,-1
"{'cat': 'RB', 'resp': 'button'}",33,239,Left,40.10087496218874,55.59067322834701,2.005043748109437,0.8732162531114287,Left,Correct,0.0,0.0,-45,45,968,-1,-1
"{'cat': 'RB', 'resp': 'button'}",33,240,Left,35.805551605681636,31.107167281570657,1.7902775802840818,0.48863024102885577,Left,Correct,0.0,0.0,-45,45,805,-1,-1
"{'cat': 'RB', 'resp': 'button'}",33,241,Right,65.15144755322251,42.90795826991072,3.2575723776611256,0.6739966324064446,Right,Correct,0.0,0.0,-45,45,559,-1,-1
"{'cat': 'RB', 'resp': 'button'}",33,242,Right,57.1263671471158,63.81398883585476,2.8563183573557898,1.002387792614912,Right,Correct,0.0,0.0,-45,45,604,-1,-1
"{'cat': 'RB', 'resp': 'button'}",33,243,Left,45.2273158252643,61.28084751160634,2.261365791263215,0.962597301741094,Left,Correct,0.0,0.0,-45,45,729,-1,-1
"{'cat': 'RB', 'resp': 'button'}",33,244,Right,58.74399003139196,80.39812485097116,2.937199501569598,1.26289079197103,Right,Correct,0.0,0.0,-45,45,393,-1,-1
"{'cat': 'RB', 'resp': 'button'}",33,245,Left,42.11232616553167,68.8699388845439,2.1056163082765833,1.0818064702643055,Left,Correct,0.0,0.0,-45,45,642,-1,-1
"{'cat': 'RB', 'resp': 'button'}",33,246,Left,41.437136298497386,23.963147590113355,2.0718568149248693,0.3764122421299403,Left,Correct,0.0,0.0,-45,45,1001,-1,-1
"{'cat': 'RB', 'resp': 'button'}",33,247,Right,58.89634932447082,15.586581843583588,2.9448174662235407,0.2448334550718913,Right,Correct,0.0,0.0,-45,45,532,-1,-1
"{'cat': 'RB', 'resp': 'button'}",33,248,Left,37.345237673988976,51.569134182007566,1.8672618836994488,0.8100460654909063,Left,Correct,0.0,0.0,-45,45,734,-1,-1
"{'cat': 'RB', 'resp': 'button'}",33,249,Left,40.401816092493085,74.75726820433948,2.020090804624654,1.1742844229659737,Left,Correct,0.0,0.0,-45,45,796,-1,-1
"{'cat': 'RB', 'resp': 'button'}",33,250,Right,65.55865154664181,63.4547827704769,3.277932577332091,0.9967453969343323,Right,Correct,0.0,0.0,-45,45,528,-1,-1
"{'cat': 'RB', 'resp': 'button'}",33,251,Right,55.85574999474026,70.21070834600208,2.792787499737013,1.1028672277156786,Right,Correct,0.0,0.0,-45,45,1037,-1,-1
"{'cat': 'RB', 'resp': 'button'}",33,252,Left,33.39353882743891,53.44711207742559,1.6696769413719454,0.8395452732901526,Left,Correct,0.0,0.0,-45,45,627,-1,-1
"{'cat': 'RB', 'resp': 'button'}",33,253,Left,42.9008372777225,17.568420725079953,2.1450418638861253,0.2759641074254292,Left,Correct,0.0,0.0,-45,45,1315,-1,-1
"{'cat': 'RB', 'resp': 'button'}",33,254,Left,43.73377684140527,43.76803526891824,2.1866888420702635,0.6875066903144624,Left,Correct,0.0,0.0,-45,45,1508,-1,-1
"{'cat': 'RB', 'resp': 'button'}",33,255,Left,37.80260551078921,38.66322847208113,1.8901302755394607,0.6073205726597689,Left,Correct,0.0,0.0,-45,45,630,-1,-1
"{'cat': 'RB', 'resp': 'button'}",33,256,Right,66.53913389867313,54.02444039168399,3.3269566949336564,0.8486139252440705,Right,Correct,0.0,0.0,-45,45,512,-1,-1
"{'cat': 'RB', 'resp': 'button'}",33,257,Left,33.118625932613206,77.16752578982305,1.6559312966306603,1.2121446605850448,Left,Correct,0.0,0.0,-45,45,675,-1,-1
"{'cat': 'RB', 'resp': 'button'}",33,258,Right,57.235453312541104,24.830115067819378,2.8617726656270555,0.3900305354242529,Right,Correct,0.0,0.0,-45,45,554,-1,-1
"{'cat': 'RB', 'resp': 'button'}",33,259,Left,46.05522707764062,43.424767063354665,2.302761353882031,0.6821146459504152,Right,Incorrect,0.0,0.0,-45,45,2709,-1,-1
"{'cat': 'RB', 'resp': 'button'}",33,260,Left,35.388617653073396,84.63910055102153,1.7694308826536698,1.3295078824876854,Left,Correct,0.0,0.0,-45,45,632,-1,-1
"{'cat': 'RB', 'resp': 'button'}",33,261,Right,55.073278402939344,77.53685930275692,2.753663920146967,1.2179461378398329,Right,Correct,0.0,0.0,-45,45,741,-1,-1
"{'cat': 'RB', 'resp': 'button'}",33,262,Left,45.40327339264906,66.43105767268068,2.270163669632453,1.0434966137734674,Left,Correct,0.0,0.0,-45,45,1283,-1,-1
"{'cat': 'RB', 'resp': 'button'}",33,263,Left,33.896875132706455,46.88374801854811,1.6948437566353227,0.7364481917391288,Left,Correct,0.0,0.0,-45,45,676,-1,-1
"{'cat': 'RB', 'resp': 'button'}",33,264,Left,45.31922529082589,62.68697586061429,2.2659612645412945,0.9846847141973327,Left,Correct,0.0,0.0,-45,45,1423,-1,-1
"{'cat': 'RB', 'resp': 'button'}",33,265,Left,48.9028959709529,61.50356540364348,2.445144798547645,0.9660957462083287,Left,Correct,0.0,0.0,-45,45,652,-1,-1
"{'cat': 'RB', 'resp': 'button'}",33,266,Right,60.73677080043503,71.94920976535849,3.0368385400217517,1.130175544152206,Right,Correct,0.0,0.0,-45,45,766,-1,-1
"{'cat': 'RB', 'resp': 'button'}",33,267,Right,65.2000433544511,51.3216000837472,3.260002167722555,0.8061578089678675,Right,Correct,0.0,0.0,-45,45,653,-1,-1
"{'cat': 'RB', 'resp': 'button'}",33,268,Left,33.60429315706034,73.00777962576939,1.680214657853017,1.1468035206360983,Left,Correct,0.0,0.0,-45,45,1011,-1,-1
"{'cat': 'RB', 'resp': 'button'}",33,269,Right,56.7639921935039,13.854967312258395,2.838199609675195,0.21763331761958848,Right,Correct,0.0,0.0,-45,45,630,-1,-1
"{'cat': 'RB', 'resp': 'button'}",33,270,Right,52.91778699925438,33.10175063118707,2.645889349962719,0.5199610830194931,Right,Correct,0.0,0.0,-45,45,1367,-1,-1
"{'cat': 'RB', 'resp': 'button'}",33,271,Left,33.876197407807304,49.03893565350875,1.693809870390365,0.7703017999446286,100,Correct,0.0,0.0,-45,45,846,-1,-1
"{'cat': 'RB', 'resp': 'button'}",33,272,Right,61.44203076947766,28.715843991634113,3.0721015384738832,0.45106742262874167,Right,Correct,0.0,0.0,-45,45,616,-1,-1
"{'cat': 'RB', 'resp': 'button'}",33,273,Left,40.205080283591485,13.789758595934202,2.010254014179574,0.21660902149881794,Left,Correct,0.0,0.0,-45,45,901,-1,-1
"{'cat': 'RB', 'resp': 'button'}",33,274,Right,64.0059680576118,17.69050920904433,3.2002984028805894,0.2778818688469812,Right,Correct,0.0,0.0,-45,45,568,-1,-1
"{'cat': 'RB', 'resp': 'button'}",33,275,Left,32.39348632111739,53.222847175523704,1.6196743160558698,0.8360225284487879,Left,Correct,0.0,0.0,-45,45,676,-1,-1
"{'cat': 'RB', 'resp': 'button'}",33,276,Right,59.985933489892346,20.510079080075744,2.9992966744946172,0.3221715688125583,Right,Correct,0.0,0.0,-45,45,859,-1,-1
"{'cat': 'RB', 'resp': 'button'}",33,277,Left,37.02095506675859,83.49360274231069,1.8510477533379293,1.3115144449849394,Left,Correct,0.0,0.0,-45,45,742,-1,-1
"{'cat': 'RB', 'resp': 'button'}",33,278,Right,58.55367208929615,20.78383865422877,2.9276836044648076,0.3264717741476034,Right,Correct,0.0,0.0,-45,45,331,-1,-1
"{'cat': 'RB', 'resp': 'button'}",33,279,Right,55.02268279720012,66.27375892369596,2.7511341398600058,1.0410257708023212,Right,Correct,0.0,0.0,-45,45,595,-1,-1
"{'cat': 'RB', 'resp': 'button'}",33,280,Right,60.882533148302,55.38439261941777,3.0441266574151,0.869976004883478,Right,Correct,0.0,0.0,-45,45,675,-1,-1
"{'cat': 'RB', 'resp': 'button'}",33,281,Right,62.61848483990186,57.20802134668464,3.130924241995093,0.8986214979457625,Right,Correct,0.0,0.0,-45,45,1603,-1,-1
"{'cat': 'RB', 'resp': 'button'}",33,282,Left,44.82744385416669,22.511639859538196,2.2413721927083343,0.3536120120149218,Right,Incorrect,0.0,0.0,-45,45,605,-1,-1
"{'cat': 'RB', 'resp': 'button'}",33,283,Right,58.29933419743834,34.00128502674707,2.914966709871917,0.5340909362632061,Right,Correct,0.0,0.0,-45,45,667,-1,-1
"{'cat': 'RB', 'resp': 'button'}",33,284,Right,67.1803507611141,34.7421638426427,3.3590175380557046,0.5457286334892961,Right,Correct,0.0,0.0,-45,45,802,-1,-1
"{'cat': 'RB', 'resp': 'button'}",33,285,Right,58.23388081600492,64.21411688379246,2.911694040800246,1.0086729892943933,Right,Correct,0.0,0.0,-45,45,1891,-1,-1
"{'cat': 'RB', 'resp': 'button'}",33,286,Left,47.65286353248414,33.90852958222628,2.382643176624207,0.5326339371477713,Right,Incorrect,0.0,0.0,-45,45,1796,-1,-1
"{'cat': 'RB', 'resp': 'button'}",33,287,Left,34.88056868904828,70.72950548169347,1.7440284344524142,1.111016474066636,Left,Correct,0.0,0.0,-45,45,713,-1,-1
"{'cat': 'RB', 'resp': 'button'}",33,288,Right,57.66777853088753,49.39555434284232,2.8833889265443764,0.7759035532173442,Right,Correct,0.0,0.0,-45,45,795,-1,-1
"{'cat': 'RB', 'resp': 'button'}",33,289,Left,34.03585634610299,69.08837841313499,1.7017928173051495,1.0852377103556827,Left,Correct,0.0,0.0,-45,45,803,-1,-1
"{'cat': 'RB', 'resp': 'button'}",33,290,Left,42.62399489491643,25.296852215227027,2.1311997447458215,0.3973620253915195,Left,Correct,0.0,0.0,-45,45,1096,-1,-1
"{'cat': 'RB', 'resp': 'button'}",33,291,Left,38.25110513536282,57.754630468037874,1.912555256768141,0.9072076139459051,Left,Correct,0.0,0.0,-45,45,514,-1,-1
"{'cat': 'RB', 'resp': 'button'}",33,292,Right,56.596515102810685,31.04008687372884,2.8298257551405346,0.4875765444464774,Right,Correct,0.0,0.0,-45,45,667,-1,-1
"{'cat': 'RB', 'resp': 'button'}",33,293,Left,44.617299724760194,14.94943619723064,2.2308649862380094,0.23482519466264556,Left,Correct,0.0,0.0,-45,45,1593,-1,-1
"{'cat': 'RB', 'resp': 'button'}",33,294,Left,39.35615268169638,61.87901889898175,1.967807634084819,0.971993355921925,Left,Correct,0.0,0.0,-45,45,529,-1,-1
"{'cat': 'RB', 'resp': 'button'}",33,295,Right,64.23101095975949,65.56346365571882,3.2115505479879745,1.0298684788235382,Right,Correct,0.0,0.0,-45,45,629,-1,-1
"{'cat': 'RB', 'resp': 'button'}",33,296,Left,39.93970177586601,86.63257373843521,1.9969850887933007,1.3608212860912205,Left,Correct,0.0,0.0,-45,45,2686,-1,-1
"{'cat': 'RB', 'resp': 'button'}",33,297,Left,41.37726145140796,15.651759692067706,2.068863072570398,0.24585726632176375,Left,Correct,0.0,0.0,-45,45,1580,-1,-1
"{'cat': 'RB', 'resp': 'button'}",33,298,Right,54.65465225212677,73.41263078576623,2.732732612606339,1.1531629077863152,Right,Correct,0.0,0.0,-45,45,665,-1,-1
"{'cat': 'RB', 'resp': 'button'}",33,299,Left,42.24198918908212,17.797888242230023,2.112099459454106,0.27956857475601005,Left,Correct,0.0,0.0,-45,45,1290,-1,-1
"{'cat': 'RB', 'resp': 'button'}",33,300,Right,59.272762891027405,58.42064155902833,2.96363814455137,0.9176692916992297,Right,Correct,0.0,0.0,-45,45,872,-1,-1
"{'cat': 'RB', 'resp': 'button'}",33,301,Left,46.9635434975652,43.556140965918416,2.3481771748782596,0.6841782623862538,Left,Correct,0.0,0.0,-45,45,1354,-1,-1
"{'cat': 'RB', 'resp': 'button'}",33,302,Left,34.02736023089319,58.723796260882544,1.7013680115446592,0.9224312346204617,Left,Correct,0.0,0.0,-45,45,658,-1,-1
"{'cat': 'RB', 'resp': 'button'}",33,303,Left,45.6426238746231,80.64651157907026,2.282131193731155,1.2667924415722567,Left,Correct,0.0,0.0,-45,45,787,-1,-1
"{'cat': 'RB', 'resp': 'button'}",33,304,Left,34.193476486916744,75.7205405096289,1.7096738243458374,1.1894154689544925,Left,Correct,0.0,0.0,-45,45,580,-1,-1
"{'cat': 'RB', 'resp': 'button'}",33,305,Left,44.34828261533604,26.169983391172664,2.217414130766802,0.41107713783137473,Left,Correct,0.0,0.0,-45,45,735,-1,-1
"{'cat': 'RB', 'resp': 'button'}",33,306,Right,62.27713512051532,35.83492415541037,3.113856756025766,0.5628936723429232,Right,Correct,0.0,0.0,-45,45,1064,-1,-1
"{'cat': 'RB', 'resp': 'button'}",33,307,Left,34.790521426975225,20.538639346646153,1.7395260713487612,0.3226201924307691,Left,Correct,0.0,0.0,-45,45,649,-1,-1
"{'cat': 'RB', 'resp': 'button'}",33,308,Left,36.52080807273521,68.57434757734501,1.8260404036367603,1.0771633328685004,Left,Correct,0.0,0.0,-45,45,768,-1,-1
"{'cat': 'RB', 'resp': 'button'}",33,309,Right,64.01095455831143,40.93608588181611,3.200547727915571,0.6430225333651717,Right,Correct,0.0,0.0,-45,45,598,-1,-1
"{'cat': 'RB', 'resp': 'button'}",33,310,Right,58.45369410326199,45.32158144797268,2.9226847051630993,0.711909736630112,Left,Incorrect,0.0,0.0,-45,45,506,-1,-1
"{'cat': 'RB', 'resp': 'button'}",33,311,Right,54.327843613942576,56.49002903197151,2.716392180697129,0.8873433010395793,Right,Correct,0.0,0.0,-45,45,739,-1,-1
"{'cat': 'RB', 'resp': 'button'}",33,312,Left,37.18198153464868,89.44439158577518,1.859099076732434,1.4049892175534,Left,Correct,0.0,0.0,-45,45,961,-1,-1
"{'cat': 'RB', 'resp': 'button'}",33,313,Right,62.44484300663436,77.6817917846199,3.1222421503317177,1.220222731941269,Right,Correct,0.0,0.0,-45,45,953,-1,-1
"{'cat': 'RB', 'resp': 'button'}",33,314,Left,39.32881784215978,46.24961228376519,1.9664408921079888,0.7264872109102648,Left,Correct,0.0,0.0,-45,45,1370,-1,-1
"{'cat': 'RB', 'resp': 'button'}",33,315,Left,34.8708922202718,41.459780329989016,1.74354461101359,0.6512487065207005,Left,Correct,0.0,0.0,-45,45,693,-1,-1
"{'cat': 'RB', 'resp': 'button'}",33,316,Left,41.41686725137217,42.66202559709304,2.0708433625686085,0.6701335310154359,Left,Correct,0.0,0.0,-45,45,1495,-1,-1
"{'cat': 'RB', 'resp': 'button'}",33,317,Left,33.81281656037287,48.31035438516388,1.6906408280186438,0.7588572721437513,Left,Correct,0.0,0.0,-45,45,1791,-1,-1
"{'cat': 'RB', 'resp': 'button'}",33,318,Left,36.1302046190368,48.3792609169326,1.8065102309518404,0.7599396534136962,Left,Correct,0.0,0.0,-45,45,634,-1,-1
"{'cat': 'RB', 'resp': 'button'}",33,319,Left,33.20638064450291,29.85845187803201,1.6603190322251453,0.4690154653379486,Left,Correct,0.0,0.0,-45,45,472,-1,-1
"{'cat': 'RB', 'resp': 'button'}",33,320,Right,58.863273852245115,61.066699904296996,2.9431636926122557,0.9592334789915599,Left,Incorrect,0.0,0.0,-45,45,591,-1,-1
"{'cat': 'RB', 'resp': 'button'}",33,321,Left,43.18391075393277,62.04514108450147,2.1591955376966383,0.9746027971100604,Left,Correct,0.0,0.0,-45,45,920,-1,-1
"{'cat': 'RB', 'resp': 'button'}",33,322,Left,36.920798549458745,11.476280414470168,1.846039927472937,0.18026899120317955,Left,Correct,0.0,0.0,-45,45,871,-1,-1
"{'cat': 'RB', 'resp': 'button'}",33,323,Right,52.20586518091344,48.644746489575496,2.610293259045672,0.7641098910369413,Right,Correct,0.0,0.0,-45,45,699,-1,-1
"{'cat': 'RB', 'resp': 'button'}",33,324,Right,66.21187072746794,47.07407049789162,3.310593536373397,0.7394377702537216,Right,Correct,0.0,0.0,-45,45,577,-1,-1
"{'cat': 'RB', 'resp': 'button'}",33,325,Right,51.9863584691861,38.531220055978714,2.5993179234593047,0.6052469893085722,Right,Correct,0.0,0.0,-45,45,805,-1,-1
"{'cat': 'RB', 'resp': 'button'}",33,326,Left,33.623225782318215,77.97396740882728,1.681161289115911,1.2248122159141086,Left,Correct,0.0,0.0,-45,45,765,-1,-1
"{'cat': 'RB', 'resp': 'button'}",33,327,Right,55.425199244501506,50.63898706883142,2.7712599622250753,0.7954353488033465,Right,Correct,0.0,0.0,-45,45,789,-1,-1
"{'cat': 'RB', 'resp': 'button'}",33,328,Right,68.69541243543897,41.483668757575934,3.4347706217719485,0.6516239450637649,Right,Correct,0.0,0.0,-45,45,654,-1,-1
"{'cat': 'RB', 'resp': 'button'}",33,329,Left,41.97414213795663,89.19838248762686,2.0987071068978316,1.401124915676105,Left,Correct,0.0,0.0,-45,45,569,-1,-1
"{'cat': 'RB', 'resp': 'button'}",33,330,Right,61.95176833691708,53.40482187948993,3.097588416845854,0.838880980414385,Right,Correct,0.0,0.0,-45,45,509,-1,-1
"{'cat': 'RB', 'resp': 'button'}",33,331,Left,40.969802128958825,79.89561580115537,2.0484901064479413,1.2549973982747114,Left,Correct,0.0,0.0,-45,45,974,-1,-1
"{'cat': 'RB', 'resp': 'button'}",33,332,Left,45.94072758120591,19.544713891470774,2.297036379060296,0.30700764788979484,Left,Correct,0.0,0.0,-45,45,636,-1,-1
"{'cat': 'RB', 'resp': 'button'}",33,333,Right,56.1554763683014,74.8414426111303,2.80777381841507,1.1756066314559455,Right,Correct,0.0,0.0,-45,45,2916,-1,-1
"{'cat': 'RB', 'resp': 'button'}",33,334,Right,56.37501218205284,63.666124917181094,2.818750609102642,1.000065151611731,Right,Correct,0.0,0.0,-45,45,704,-1,-1
"{'cat': 'RB', 'resp': 'button'}",33,335,Right,60.753762943057644,20.01452714601739,3.037688147152882,0.3143874572350086,Right,Correct,0.0,0.0,-45,45,689,-1,-1
"{'cat': 'RB', 'resp': 'button'}",33,336,Left,46.332806765475006,53.57227047472705,2.3166403382737504,0.8415112567976394,Left,Correct,0.0,0.0,-45,45,1767,-1,-1
"{'cat': 'RB', 'resp': 'button'}",33,337,Right,57.205220427947296,87.22862181176484,2.860261021397365,1.3701839873330142,Right,Correct,0.0,0.0,-45,45,721,-1,-1
"{'cat': 'RB', 'resp': 'button'}",33,338,Right,53.76571104754615,61.015508722254324,2.688285552377307,0.9584293697843908,Right,Correct,0.0,0.0,-45,45,943,-1,-1
"{'cat': 'RB', 'resp': 'button'}",33,339,Right,53.897332270461845,19.265658628204548,2.694866613523092,0.30262425806468113,Right,Correct,0.0,0.0,-45,45,1992,-1,-1
"{'cat': 'RB', 'resp': 'button'}",33,340,Left,41.39672808428717,12.169208043936194,2.0698364042143584,0.1911534729541788,Left,Correct,0.0,0.0,-45,45,2393,-1,-1
"{'cat': 'RB', 'resp': 'button'}",33,341,Left,37.89594782907209,20.554121458973984,1.8947973914536047,0.3228633848825249,Left,Correct,0.0,0.0,-45,45,756,-1,-1
"{'cat': 'RB', 'resp': 'button'}",33,342,Right,66.92339025495637,35.156279559702384,3.3461695127478186,0.5522335479615501,Right,Correct,0.0,0.0,-45,45,579,-1,-1
"{'cat': 'RB', 'resp': 'button'}",33,343,Left,36.97074565925829,80.2853227304383,1.8485372829629145,1.2611189004051528,Left,Correct,0.0,0.0,-45,45,655,-1,-1
"{'cat': 'RB', 'resp': 'button'}",33,344,Left,38.12650070468214,35.14276331466337,1.906325035234107,0.5520212352809566,Left,Correct,0.0,0.0,-45,45,698,-1,-1
"{'cat': 'RB', 'resp': 'button'}",33,345,Left,31.74667345147818,41.42901203425972,1.5873336725739091,0.6507653992615674,Left,Correct,0.0,0.0,-45,45,559,-1,-1
"{'cat': 'RB', 'resp': 'button'}",33,346,Right,60.35605106921878,53.573845211188406,3.017802553460939,0.8415359927001309,Right,Correct,0.0,0.0,-45,45,650,-1,-1
"{'cat': 'RB', 'resp': 'button'}",33,347,Right,57.344054450270114,10.384386909624219,2.8672027225135057,0.1631175681365473,Left,Incorrect,0.0,0.0,-45,45,556,-1,-1
"{'cat': 'RB', 'resp': 'button'}",33,348,Right,62.48879554901267,71.34852057030622,3.124439777450634,1.120739940340871,Right,Correct,0.0,0.0,-45,45,712,-1,-1
"{'cat': 'RB', 'resp': 'button'}",33,349,Right,63.50573475049607,67.9600511693613,3.1752867375248037,1.0675139874562594,Right,Correct,0.0,0.0,-45,45,626,-1,-1
"{'cat': 'RB', 'resp': 'button'}",33,350,Left,45.79238075564773,47.89496560468005,2.2896190377823866,0.7523323604379935,Left,Correct,0.0,0.0,-45,45,1127,-1,-1
"{'cat': 'RB', 'resp': 'button'}",33,351,Right,60.42687582331167,11.562043434677577,3.0213437911655836,0.18161615357434585,Right,Correct,0.0,0.0,-45,45,821,-1,-1
"{'cat': 'RB', 'resp': 'button'}",33,352,Left,35.68493897940067,36.87835664830434,1.7842469489700334,0.5792838716138862,Left,Correct,0.0,0.0,-45,45,796,-1,-1
"{'cat': 'RB', 'resp': 'button'}",33,353,Right,66.05150778787812,24.38467342939949,3.302575389393906,0.3830335545299383,Right,Correct,0.0,0.0,-45,45,1064,-1,-1
"{'cat': 'RB', 'resp': 'button'}",33,354,Right,66.3192559446627,69.32458396607055,3.315962797233135,1.0889480185048799,Right,Correct,0.0,0.0,-45,45,1142,-1,-1
"{'cat': 'RB', 'resp': 'button'}",33,355,Right,55.905149705622826,20.65660193543892,2.7952574852811414,0.32447314444251807,Right,Correct,0.0,0.0,-45,45,656,-1,-1
"{'cat': 'RB', 'resp': 'button'}",33,356,Left,31.125764464596,59.748740052585106,1.5562882232298,0.9385310140522379,Left,Correct,0.0,0.0,-45,45,558,-1,-1
"{'cat': 'RB', 'resp': 'button'}",33,357,Left,45.25893485566362,79.31331515106682,2.262946742783181,1.2458506410522177,Left,Correct,0.0,0.0,-45,45,774,-1,-1
"{'cat': 'RB', 'resp': 'button'}",33,358,Left,47.04980044610533,60.4028772528988,2.3524900223052665,0.9488061771669645,Left,Correct,0.0,0.0,-45,45,543,-1,-1
"{'cat': 'RB', 'resp': 'button'}",33,359,Left,45.44527733737984,43.12090916819312,2.2722638668689923,0.6773416572945413,Left,Correct,0.0,0.0,-45,45,806,-1,-1
"{'cat': 'RB', 'resp': 'button'}",33,360,Right,66.09733954351913,54.027132109138854,3.3048669771759562,0.8486562066429791,Right,Correct,0.0,0.0,-45,45,664,-1,-1
"{'cat': 'RB', 'resp': 'button'}",33,361,Left,35.97990985433242,60.48795910994889,1.798995492716621,0.9501426398522761,Left,Correct,0.0,0.0,-45,45,808,-1,-1
"{'cat': 'RB', 'resp': 'button'}",33,362,Right,62.70705209721639,54.744625007560366,3.1353526048608193,0.8599265587363986,Right,Correct,0.0,0.0,-45,45,745,-1,-1
"{'cat': 'RB', 'resp': 'button'}",33,363,Left,39.385312135864964,16.712570671132923,1.9692656067932484,0.26252044621515713,Left,Correct,0.0,0.0,-45,45,572,-1,-1
"{'cat': 'RB', 'resp': 'button'}",33,364,Right,58.72892982992561,39.65339826697216,2.9364464914962802,0.6228741234269498,Right,Correct,0.0,0.0,-45,45,624,-1,-1
"{'cat': 'RB', 'resp': 'button'}",33,365,Left,45.357659321692125,81.16993808081061,2.2678829660846063,1.275014405835065,Left,Correct,0.0,0.0,-45,45,3903,-1,-1
"{'cat': 'RB', 'resp': 'button'}",33,366,Left,46.45864640456397,47.50539925806104,2.322932320228199,0.746213066574873,Left,Correct,0.0,0.0,-45,45,679,-1,-1
"{'cat': 'RB', 'resp': 'button'}",33,367,Right,52.366857626334486,62.58713699164462,2.6183428813167247,0.9831164489108435,Left,Incorrect,0.0,0.0,-45,45,573,-1,-1
"{'cat': 'RB', 'resp': 'button'}",33,368,Left,46.08517462863669,65.86500708582365,2.304258731431835,1.0346051119473163,Right,Incorrect,0.0,0.0,-45,45,505,-1,-1
"{'cat': 'RB', 'resp': 'button'}",33,369,Left,37.52032636174021,10.86571356007773,1.8760163180870106,0.17067822948175598,Left,Correct,0.0,0.0,-45,45,773,-1,-1
"{'cat': 'RB', 'resp': 'button'}",33,370,Right,53.840828387925676,76.31058008400979,2.6920414193962836,1.1986837889155038,Right,Correct,0.0,0.0,-45,45,965,-1,-1
"{'cat': 'RB', 'resp': 'button'}",33,371,Left,43.8312903778272,12.795439006401594,2.19156451889136,0.20099028590983764,Left,Correct,0.0,0.0,-45,45,637,-1,-1
"{'cat': 'RB', 'resp': 'button'}",33,372,Right,65.80056696749014,63.635276552009536,3.290028348374507,0.9995805866247399,Right,Correct,0.0,0.0,-45,45,391,-1,-1
"{'cat': 'RB', 'resp': 'button'}",33,373,Right,56.91249711893374,26.217993200504086,2.8456248559466872,0.411831274152854,Right,Correct,0.0,0.0,-45,45,618,-1,-1
"{'cat': 'RB', 'resp': 'button'}",33,374,Left,34.88560053449358,74.9014049797175,1.7442800267246787,1.1765485181391722,Left,Correct,0.0,0.0,-45,45,715,-1,-1
"{'cat': 'RB', 'resp': 'button'}",33,375,Right,61.75592690562607,13.954598395780764,3.0877963452813035,0.2191983190199038,Right,Correct,0.0,0.0,-45,45,1092,-1,-1
"{'cat': 'RB', 'resp': 'button'}",33,376,Left,42.91883454576981,60.60441851474086,2.1459417272884904,0.9519719799049555,Right,Incorrect,0.0,0.0,-45,45,1936,-1,-1
"{'cat': 'RB', 'resp': 'button'}",33,377,Left,42.07725242036526,54.924050717335355,2.103862621018263,0.8627449711948698,Left,Correct,0.0,0.0,-45,45,587,-1,-1
"{'cat': 'RB', 'resp': 'button'}",33,378,Right,68.46159471013252,67.83418732835972,3.4230797355066263,1.0655369228650438,Right,Correct,0.0,0.0,-45,45,632,-1,-1
"{'cat': 'RB', 'resp': 'button'}",33,379,Right,56.43204178702708,83.37968787671169,2.8216020893513543,1.3097250744604367,Right,Correct,0.0,0.0,-45,45,763,-1,-1
"{'cat': 'RB', 'resp': 'button'}",33,380,Right,53.0538312685807,58.983366215070575,2.652691563429035,0.9265085499263105,Right,Correct,0.0,0.0,-45,45,668,-1,-1
"{'cat': 'RB', 'resp': 'button'}",33,381,Left,33.57163025002275,61.46289189554381,1.6785815125011374,0.9654568482371204,Left,Correct,0.0,0.0,-45,45,588,-1,-1
"{'cat': 'RB', 'resp': 'button'}",33,382,Right,55.00090953880302,37.03794446420323,2.750045476940151,0.5817906711640379,Right,Correct,0.0,0.0,-45,45,1091,-1,-1
"{'cat': 'RB', 'resp': 'button'}",33,383,Right,68.06549348778627,35.17449562822673,3.403274674389314,0.5525196852968169,Right,Correct,0.0,0.0,-45,45,1288,-1,-1
"{'cat': 'RB', 'resp': 'button'}",33,384,Left,42.747181197185355,69.36685623891772,2.1373590598592678,1.089612029814016,Left,Correct,0.0,0.0,-45,45,3560,-1,-1
"{'cat': 'RB', 'resp': 'button'}",33,385,Right,60.76358312290478,9.595810540979464,3.038179156145239,0.1507306395039029,Right,Correct,0.0,0.0,-45,45,669,-1,-1
"{'cat': 'RB', 'resp': 'button'}",33,386,Right,54.812024212850915,18.265804506764773,2.740601210642546,0.2869185862517977,Right,Correct,0.0,0.0,-45,45,788,-1,-1
"{'cat': 'RB', 'resp': 'button'}",33,387,Left,31.21932549706723,54.46938969903218,1.5609662748533617,0.8556031726199952,Left,Correct,0.0,0.0,-45,45,681,-1,-1
"{'cat': 'RB', 'resp': 'button'}",33,388,Right,54.5437440264081,29.389828374378308,2.727187201320405,0.4616543445560587,Right,Correct,0.0,0.0,-45,45,1692,-1,-1
"{'cat': 'RB', 'resp': 'button'}",33,389,Right,61.06779065851151,33.40215256379256,3.053389532925576,0.524679785542481,Right,Correct,0.0,0.0,-45,45,632,-1,-1
"{'cat': 'RB', 'resp': 'button'}",33,390,Left,38.80501675572912,69.11034921899966,1.940250837786456,1.0855828269671721,Left,Correct,0.0,0.0,-45,45,659,-1,-1
"{'cat': 'RB', 'resp': 'button'}",33,391,Left,32.25678252311932,52.09522909780657,1.6128391261559658,0.8183099451037317,Left,Correct,0.0,0.0,-45,45,1147,-1,-1
"{'cat': 'RB', 'resp': 'button'}",33,392,Left,37.672171806240605,70.5875042476656,1.8836085903120303,1.108785923898523,Left,Correct,0.0,0.0,-45,45,556,-1,-1
"{'cat': 'RB', 'resp': 'button'}",33,393,Left,43.35211312808684,32.66961006665904,2.167605656404342,0.513173034905296,Left,Correct,0.0,0.0,-45,45,699,-1,-1
"{'cat': 'RB', 'resp': 'button'}",33,394,Right,62.95789596389415,77.52797131635029,3.1478947981947076,1.2178065256758313,Right,Correct,0.0,0.0,-45,45,552,-1,-1
"{'cat': 'RB', 'resp': 'button'}",33,395,Right,55.05518882564312,63.70097509945725,2.752759441282156,1.0006125769948062,Right,Correct,0.0,0.0,-45,45,591,-1,-1
"{'cat': 'RB', 'resp': 'button'}",33,396,Right,61.42648614695646,69.69603836377064,3.071324307347823,1.0947828105396713,Right,Correct,0.0,0.0,-45,45,499,-1,-1
"{'cat': 'RB', 'resp': 'button'}",33,397,Right,62.471802372362426,71.65286802753573,3.123590118618121,1.1255206190197262,Right,Correct,0.0,0.0,-45,45,467,-1,-1
"{'cat': 'RB', 'resp': 'button'}",33,398,Left,48.754297151218196,41.90055802715952,2.43771485756091,0.6581724263971859,Right,Incorrect,0.0,0.0,-45,45,1567,-1,-1
"{'cat': 'RB', 'resp': 'button'}",33,399,Left,43.588755132237715,45.435296717590425,2.1794377566118857,0.7136959719082726,Left,Correct,0.0,0.0,-45,45,683,-1,-1
