condition,subject,trial,cat,x,y,xt,yt,resp,fb,rotation,su,target_angle_left,target_angle_right,rt,mt,ep
"{'cat': 'RB', 'resp': 'button'}",41,0,Left,44.734601070293735,25.64927215726145,2.2367300535146866,0.402897824895889,Right,Incorrect,0.0,0.0,-45,45,21231,-1,-1
"{'cat': 'RB', 'resp': 'button'}",41,1,Left,44.46021485869382,16.658105568565112,2.2230107429346906,0.2616649103846369,Left,Correct,0.0,0.0,-45,45,1041,-1,-1
"{'cat': 'RB', 'resp': 'button'}",41,2,Left,37.46220458380539,16.606912062074855,1.8731102291902693,0.2608607646651304,Left,Correct,0.0,0.0,-45,45,803,-1,-1
"{'cat': 'RB', 'resp': 'button'}",41,3,Left,35.5677688874033,49.49883999146581,1.778388444370165,0.777525960392028,Left,Correct,0.0,0.0,-45,45,1275,-1,-1
"{'cat': 'RB', 'resp': 'button'}",41,4,Left,32.851009046580145,76.95667002309838,1.6425504523290073,1.2088325459464988,Left,Correct,0.0,0.0,-45,45,675,-1,-1
"{'cat': 'RB', 'resp': 'button'}",41,5,Left,45.53431546627784,72.34472237933304,2.276715773313892,1.1363882417645288,Left,Correct,0.0,0.0,-45,45,808,-1,-1
"{'cat': 'RB', 'resp': 'button'}",41,6,Left,43.08541072877853,50.110649727052156,2.1542705364389265,0.7871362452455922,Left,Correct,0.0,0.0,-45,45,616,-1,-1
"{'cat': 'RB', 'resp': 'button'}",41,7,Left,35.267541968150745,76.50174382284929,1.7633770984075372,1.2016865819033584,Left,Correct,0.0,0.0,-45,45,1073,-1,-1
"{'cat': 'RB', 'resp': 'button'}",41,8,Left,40.65097861644666,46.57077666469225,2.032548930822333,0.7315320492088406,Left,Correct,0.0,0.0,-45,45,452,-1,-1
"{'cat': 'RB', 'resp': 'button'}",41,9,Right,56.72895156899676,32.553290062032175,2.836447578449838,0.5113458845452896,Left,Incorrect,0.0,0.0,-45,45,463,-1,-1
"{'cat': 'RB', 'resp': 'button'}",41,10,Left,36.91780200750153,46.30797187070444,1.8458901003750765,0.7274039211582393,Left,Correct,0.0,0.0,-45,45,222,-1,-1
"{'cat': 'RB', 'resp': 'button'}",41,11,Left,35.782028371230254,86.43002631594496,1.7891014185615126,1.357639678618726,Left,Correct,0.0,0.0,-45,45,462,-1,-1
"{'cat': 'RB', 'resp': 'button'}",41,12,Right,59.1268787694709,21.34216497204432,2.956343938473545,0.3352419434393792,Left,Incorrect,0.0,0.0,-45,45,527,-1,-1
"{'cat': 'RB', 'resp': 'button'}",41,13,Left,31.73602286093528,32.118670846624624,1.5868011430467641,0.5045189018741228,Left,Correct,0.0,0.0,-45,45,541,-1,-1
"{'cat': 'RB', 'resp': 'button'}",41,14,Left,37.28355036162664,13.266663900010137,1.8641775180813318,0.20839226922958382,Left,Correct,0.0,0.0,-45,45,396,-1,-1
"{'cat': 'RB', 'resp': 'button'}",41,15,Right,58.809378695789356,69.36218630407492,2.940468934789468,1.0895386746490416,Left,Incorrect,0.0,0.0,-45,45,552,-1,-1
"{'cat': 'RB', 'resp': 'button'}",41,16,Left,40.29512501371002,52.946137016152605,2.014756250685501,0.8316759754295181,Left,Correct,0.0,0.0,-45,45,856,-1,-1
"{'cat': 'RB', 'resp': 'button'}",41,17,Right,58.22326513045007,51.248023542721626,2.9111632565225034,0.8050020713640551,Left,Incorrect,0.0,0.0,-45,45,628,-1,-1
"{'cat': 'RB', 'resp': 'button'}",41,18,Left,45.5176254251033,78.74461899054289,2.2758812712551646,1.2369175826520842,Left,Correct,0.0,0.0,-45,45,909,-1,-1
"{'cat': 'RB', 'resp': 'button'}",41,19,Right,53.37678201796494,29.859091233405323,2.6688391008982473,0.46902550830866774,Left,Incorrect,0.0,0.0,-45,45,1114,-1,-1
"{'cat': 'RB', 'resp': 'button'}",41,20,Left,46.23793759162051,27.018638131905895,2.3118968795810253,0.4244077753259831,Left,Correct,0.0,0.0,-45,45,761,-1,-1
"{'cat': 'RB', 'resp': 'button'}",41,21,Right,62.907857606778876,10.833659328401254,3.1453928803389437,0.17017472278799953,Right,Correct,0.0,0.0,-45,45,1225,-1,-1
"{'cat': 'RB', 'resp': 'button'}",41,22,Left,33.65077762437821,51.238336453107074,1.6825388812189104,0.8048499069162165,Left,Correct,0.0,0.0,-45,45,654,-1,-1
"{'cat': 'RB', 'resp': 'button'}",41,23,Right,58.79752851085591,15.939874851195533,2.9398764255427956,0.2503829686582829,Right,Correct,0.0,0.0,-45,45,789,-1,-1
"{'cat': 'RB', 'resp': 'button'}",41,24,Left,37.281094601091965,74.50243222815226,1.8640547300545984,1.1702814688126728,Left,Correct,0.0,0.0,-45,45,1669,-1,-1
"{'cat': 'RB', 'resp': 'button'}",41,25,Right,56.73785717591204,42.50555894532484,2.836892858795602,0.6676757585968021,Right,Correct,0.0,0.0,-45,45,712,-1,-1
"{'cat': 'RB', 'resp': 'button'}",41,26,Right,66.50717470559768,35.413552008726796,3.3253587352798837,0.5562747741406808,Right,Correct,0.0,0.0,-45,45,780,-1,-1
"{'cat': 'RB', 'resp': 'button'}",41,27,Left,39.029608030445736,63.35475608797736,1.9514804015222866,0.9951741814798145,Left,Correct,0.0,0.0,-45,45,704,-1,-1
"{'cat': 'RB', 'resp': 'button'}",41,28,Left,33.3650981521561,58.43695193959361,1.668254907607805,0.9179254945580355,Left,Correct,0.0,0.0,-45,45,518,-1,-1
"{'cat': 'RB', 'resp': 'button'}",41,29,Left,37.29003069086642,29.04145962865772,1.8645015345433211,0.4561821810945783,Left,Correct,0.0,0.0,-45,45,772,-1,-1
"{'cat': 'RB', 'resp': 'button'}",41,30,Left,41.86774331534909,46.66618579569377,2.0933871657674543,0.7330307323340395,Right,Incorrect,0.0,0.0,-45,45,1212,-1,-1
"{'cat': 'RB', 'resp': 'button'}",41,31,Right,62.45785399683181,58.685268061780306,3.1228926998415902,0.9218260350841836,Right,Correct,0.0,0.0,-45,45,470,-1,-1
"{'cat': 'RB', 'resp': 'button'}",41,32,Right,54.5530252551543,25.983191388930976,2.7276512627577154,0.40814301592141566,Left,Incorrect,0.0,0.0,-45,45,784,-1,-1
"{'cat': 'RB', 'resp': 'button'}",41,33,Left,44.30339991490619,55.6438332573851,2.2151699957453093,0.8740512888948822,Left,Correct,0.0,0.0,-45,45,1123,-1,-1
"{'cat': 'RB', 'resp': 'button'}",41,34,Left,47.23445162864518,65.6372970900118,2.361722581432259,1.0310282516973588,Left,Correct,0.0,0.0,-45,45,820,-1,-1
"{'cat': 'RB', 'resp': 'button'}",41,35,Right,63.13368379882394,56.25318249455196,3.156684189941197,0.8836229243296518,Right,Correct,0.0,0.0,-45,45,508,-1,-1
"{'cat': 'RB', 'resp': 'button'}",41,36,Left,42.820151658261274,68.44618908737979,2.1410075829130637,1.0751502240156512,Left,Correct,0.0,0.0,-45,45,1487,-1,-1
"{'cat': 'RB', 'resp': 'button'}",41,37,Left,43.67294505641278,14.121793905438544,2.1836472528206388,0.22182461994417427,Left,Correct,0.0,0.0,-45,45,1184,-1,-1
"{'cat': 'RB', 'resp': 'button'}",41,38,Left,36.751155019200155,69.85419404085094,1.8375577509600078,1.097267114105866,Left,Correct,0.0,0.0,-45,45,905,-1,-1
"{'cat': 'RB', 'resp': 'button'}",41,39,Right,62.03283016633768,85.77030177234613,3.101641508316884,1.347276749720911,Right,Correct,0.0,0.0,-45,45,631,-1,-1
"{'cat': 'RB', 'resp': 'button'}",41,40,Right,63.73741369309651,37.347832876142014,3.186870684654825,0.5866583869559355,Right,Correct,0.0,0.0,-45,45,686,-1,-1
"{'cat': 'RB', 'resp': 'button'}",41,41,Left,35.20198972912545,18.01492994040845,1.7600994864562725,0.28297785777860995,Left,Correct,0.0,0.0,-45,45,496,-1,-1
"{'cat': 'RB', 'resp': 'button'}",41,42,Right,59.387435435661835,16.46323247305277,2.969371771783092,0.2586038509584175,Right,Correct,0.0,0.0,-45,45,457,-1,-1
"{'cat': 'RB', 'resp': 'button'}",41,43,Left,34.15874510602905,47.69836049092596,1.7079372553014525,0.7492440945328531,Left,Correct,0.0,0.0,-45,45,702,-1,-1
"{'cat': 'RB', 'resp': 'button'}",41,44,Left,33.01900288106301,46.925741990355,1.6509501440531507,0.7371078315057468,Left,Correct,0.0,0.0,-45,45,554,-1,-1
"{'cat': 'RB', 'resp': 'button'}",41,45,Right,60.78061791876861,9.327181038364635,3.0390308959384305,0.14651101714414178,Right,Correct,0.0,0.0,-45,45,472,-1,-1
"{'cat': 'RB', 'resp': 'button'}",41,46,Right,57.93241837700057,67.78814137894466,2.8966209188500285,1.0648136347829942,Right,Correct,0.0,0.0,-45,45,546,-1,-1
"{'cat': 'RB', 'resp': 'button'}",41,47,Left,40.60934849634865,39.932720932931964,2.0304674248174326,0.627261713603752,Left,Correct,0.0,0.0,-45,45,637,-1,-1
"{'cat': 'RB', 'resp': 'button'}",41,48,Left,39.61778414926814,23.555590472215037,1.980889207463407,0.3700103498924025,Left,Correct,0.0,0.0,-45,45,689,-1,-1
"{'cat': 'RB', 'resp': 'button'}",41,49,Right,54.475002332023266,78.30617674455095,2.7237501166011633,1.2300305479569258,Right,Correct,0.0,0.0,-45,45,1225,-1,-1
"{'cat': 'RB', 'resp': 'button'}",41,50,Left,33.060830963602314,51.42841451711064,1.6530415481801157,0.8078356461636272,Left,Correct,0.0,0.0,-45,45,689,-1,-1
"{'cat': 'RB', 'resp': 'button'}",41,51,Left,40.87910837404171,16.04188946492311,2.0439554187020854,0.2519854104635097,Left,Correct,0.0,0.0,-45,45,744,-1,-1
"{'cat': 'RB', 'resp': 'button'}",41,52,Left,38.373143955571976,13.050231447253587,1.9186571977785989,0.2049925562116918,Left,Correct,0.0,0.0,-45,45,577,-1,-1
"{'cat': 'RB', 'resp': 'button'}",41,53,Left,34.48787234834643,48.12777165117843,1.7243936174173213,0.7559892692649461,Left,Correct,0.0,0.0,-45,45,722,-1,-1
"{'cat': 'RB', 'resp': 'button'}",41,54,Left,42.105906534341266,77.30817746649502,2.1052953267170635,1.2143540119557839,Left,Correct,0.0,0.0,-45,45,522,-1,-1
"{'cat': 'RB', 'resp': 'button'}",41,55,Left,34.8870344569433,32.37468157824825,1.7443517228471648,0.5085403090426676,Left,Correct,0.0,0.0,-45,45,487,-1,-1
"{'cat': 'RB', 'resp': 'button'}",41,56,Right,67.79029423887125,65.44607983884698,3.3895147119435625,1.0280246181398636,Right,Correct,0.0,0.0,-45,45,748,-1,-1
"{'cat': 'RB', 'resp': 'button'}",41,57,Left,43.1116025134582,49.47756170250894,2.15558012567291,0.777191721810689,Right,Incorrect,0.0,0.0,-45,45,337,-1,-1
"{'cat': 'RB', 'resp': 'button'}",41,58,Left,36.5542448309212,74.65392911067158,1.8277122415460598,1.1726611762784953,Left,Correct,0.0,0.0,-45,45,529,-1,-1
"{'cat': 'RB', 'resp': 'button'}",41,59,Left,45.63169637293351,56.053723507817026,2.2815848186466754,0.8804898298925573,Right,Incorrect,0.0,0.0,-45,45,644,-1,-1
"{'cat': 'RB', 'resp': 'button'}",41,60,Left,31.116472655509035,56.9531860279796,1.5558236327754518,0.8946185541201678,Left,Correct,0.0,0.0,-45,45,548,-1,-1
"{'cat': 'RB', 'resp': 'button'}",41,61,Left,30.833795468219975,47.71587342377792,1.5416897734109989,0.7495191870388058,Left,Correct,0.0,0.0,-45,45,577,-1,-1
"{'cat': 'RB', 'resp': 'button'}",41,62,Right,57.240505725080865,32.73528606259407,2.8620252862540436,0.5142046710370294,Right,Correct,0.0,0.0,-45,45,831,-1,-1
"{'cat': 'RB', 'resp': 'button'}",41,63,Left,45.81930635588812,30.15318306753936,2.2909653177944063,0.47364509203664895,Right,Incorrect,0.0,0.0,-45,45,1458,-1,-1
"{'cat': 'RB', 'resp': 'button'}",41,64,Right,55.3354468264683,17.672937578002298,2.766772341323415,0.27760585431201507,Right,Correct,0.0,0.0,-45,45,606,-1,-1
"{'cat': 'RB', 'resp': 'button'}",41,65,Left,38.538746282183446,38.35627167879945,1.9269373141091721,0.602498906626053,Left,Correct,0.0,0.0,-45,45,2415,-1,-1
"{'cat': 'RB', 'resp': 'button'}",41,66,Left,43.52464904251462,55.46215908227554,2.176232452125731,0.8711975576255264,Left,Correct,0.0,0.0,-45,45,2248,-1,-1
"{'cat': 'RB', 'resp': 'button'}",41,67,Right,64.14493875997798,46.03053418757576,3.207246937998899,0.7230459402225091,Right,Correct,0.0,0.0,-45,45,872,-1,-1
"{'cat': 'RB', 'resp': 'button'}",41,68,Left,36.20699234748146,30.024675436186016,1.810349617374073,0.47162649888369945,Left,Correct,0.0,0.0,-45,45,739,-1,-1
"{'cat': 'RB', 'resp': 'button'}",41,69,Right,60.30535207171162,58.931420039261184,3.0152676035855808,0.9256925813047862,Right,Correct,0.0,0.0,-45,45,821,-1,-1
"{'cat': 'RB', 'resp': 'button'}",41,70,Left,48.41089086356503,39.01307565725341,2.4205445431782517,0.6128159593938506,Left,Correct,0.0,0.0,-45,45,1004,-1,-1
"{'cat': 'RB', 'resp': 'button'}",41,71,Right,64.07867218514085,49.899635880755966,3.203933609257042,0.7838216474989429,Right,Correct,0.0,0.0,-45,45,461,-1,-1
"{'cat': 'RB', 'resp': 'button'}",41,72,Left,36.72125685776881,63.28574649113162,1.8360628428884405,0.9940901812674257,Left,Correct,0.0,0.0,-45,45,578,-1,-1
"{'cat': 'RB', 'resp': 'button'}",41,73,Right,58.13209597633107,19.909648464137145,2.9066047988165535,0.31274002675244283,Right,Correct,0.0,0.0,-45,45,762,-1,-1
"{'cat': 'RB', 'resp': 'button'}",41,74,Left,34.20317474914463,54.398690426577204,1.7101587374572316,0.8544926310452018,Left,Correct,0.0,0.0,-45,45,578,-1,-1
"{'cat': 'RB', 'resp': 'button'}",41,75,Right,54.71318729709743,70.34985788727388,2.7356593648548717,1.105052983598728,Right,Correct,0.0,0.0,-45,45,705,-1,-1
"{'cat': 'RB', 'resp': 'button'}",41,76,Right,55.8155264265214,23.854881988587973,2.79077632132607,0.37471161003799724,Left,Incorrect,0.0,0.0,-45,45,900,-1,-1
"{'cat': 'RB', 'resp': 'button'}",41,77,Right,64.45635262852413,30.316035455154054,3.2228176314262065,0.4762031713593983,Right,Correct,0.0,0.0,-45,45,559,-1,-1
"{'cat': 'RB', 'resp': 'button'}",41,78,Left,39.347517030423205,76.86229055826279,1.9673758515211603,1.2073500367796126,Left,Correct,0.0,0.0,-45,45,661,-1,-1
"{'cat': 'RB', 'resp': 'button'}",41,79,Left,46.00119678420563,66.56651571051293,2.300059839210282,1.045624383656085,Left,Correct,0.0,0.0,-45,45,2645,-1,-1
"{'cat': 'RB', 'resp': 'button'}",41,80,Right,58.247840149396765,69.13768330180899,2.9123920074698386,1.086012189735904,Right,Correct,0.0,0.0,-45,45,714,-1,-1
"{'cat': 'RB', 'resp': 'button'}",41,81,Right,66.80353401625717,55.19370104128201,3.340176700812859,0.8669806285786144,Right,Correct,0.0,0.0,-45,45,614,-1,-1
"{'cat': 'RB', 'resp': 'button'}",41,82,Left,40.86953437317981,53.8866805257187,2.0434767186589906,0.8464499983296901,Left,Correct,0.0,0.0,-45,45,640,-1,-1
"{'cat': 'RB', 'resp': 'button'}",41,83,Left,35.59247914282986,74.95123398883705,1.779623957141493,1.1773312303841004,Left,Correct,0.0,0.0,-45,45,927,-1,-1
"{'cat': 'RB', 'resp': 'button'}",41,84,Right,60.03173383949912,89.7066637855711,3.001586691974956,1.4091089796339984,Right,Correct,0.0,0.0,-45,45,1027,-1,-1
"{'cat': 'RB', 'resp': 'button'}",41,85,Right,54.38978003776937,39.410874614068106,2.7194890018884683,0.6190645707955242,Left,Incorrect,0.0,0.0,-45,45,2043,-1,-1
"{'cat': 'RB', 'resp': 'button'}",41,86,Left,39.55857472474905,57.34818517103281,1.9779287362374527,0.900823186150119,Left,Correct,0.0,0.0,-45,45,767,-1,-1
"{'cat': 'RB', 'resp': 'button'}",41,87,Left,37.82108862070652,16.775752419525105,1.891054431035326,0.26351290279810635,Left,Correct,0.0,0.0,-45,45,654,-1,-1
"{'cat': 'RB', 'resp': 'button'}",41,88,Right,65.29792970987981,37.477925525196966,3.26489648549399,0.5887018775087208,Right,Correct,0.0,0.0,-45,45,628,-1,-1
"{'cat': 'RB', 'resp': 'button'}",41,89,Right,57.873788762754124,32.50891782573169,2.8936894381377063,0.5106488870873648,Right,Correct,0.0,0.0,-45,45,662,-1,-1
"{'cat': 'RB', 'resp': 'button'}",41,90,Right,58.40296556665916,62.89009007529705,2.920148278332958,0.9878752248207678,Right,Correct,0.0,0.0,-45,45,609,-1,-1
"{'cat': 'RB', 'resp': 'button'}",41,91,Right,57.477926458027596,52.94129638809748,2.8738963229013796,0.8315999390218344,Right,Correct,0.0,0.0,-45,45,796,-1,-1
"{'cat': 'RB', 'resp': 'button'}",41,92,Left,32.200256372217275,62.125997424616074,1.6100128186108638,0.9758728855305612,Left,Correct,0.0,0.0,-45,45,769,-1,-1
"{'cat': 'RB', 'resp': 'button'}",41,93,Right,58.879656681750006,48.650697975905985,2.9439828340875005,0.7642033767656103,Right,Correct,0.0,0.0,-45,45,812,-1,-1
"{'cat': 'RB', 'resp': 'button'}",41,94,Right,58.81528759181754,29.558458501038782,2.9407643795908767,0.464303180391511,Right,Correct,0.0,0.0,-45,45,1001,-1,-1
"{'cat': 'RB', 'resp': 'button'}",41,95,Left,43.628607067690474,75.8748110327515,2.1814303533845236,1.1918387446650294,Left,Correct,0.0,0.0,-45,45,815,-1,-1
"{'cat': 'RB', 'resp': 'button'}",41,96,Left,35.08135823456018,70.3120130584259,1.754067911728009,1.1044585184173021,Right,Incorrect,0.0,0.0,-45,45,715,-1,-1
"{'cat': 'RB', 'resp': 'button'}",41,97,Left,35.718038301955815,71.46071458936808,1.7859019150977906,1.1225022798711786,Left,Correct,0.0,0.0,-45,45,724,-1,-1
"{'cat': 'RB', 'resp': 'button'}",41,98,Right,56.180459320064536,20.727005360764633,2.809022966003227,0.32557903886147216,Right,Correct,0.0,0.0,-45,45,427,-1,-1
"{'cat': 'RB', 'resp': 'button'}",41,99,Right,55.34153620041599,43.42370057813362,2.767076810020799,0.6820978936397372,Right,Correct,0.0,0.0,-45,45,2118,-1,-1
"{'cat': 'RB', 'resp': 'button'}",41,100,Right,56.49437883239489,45.91817501448288,2.8247189416197442,0.7212810064587492,Right,Correct,0.0,0.0,-45,45,731,-1,-1
"{'cat': 'RB', 'resp': 'button'}",41,101,Left,31.898714713790127,67.33528612941709,1.5949357356895064,1.057700201157717,Left,Correct,0.0,0.0,-45,45,596,-1,-1
"{'cat': 'RB', 'resp': 'button'}",41,102,Left,32.53373634423553,24.890794111238442,1.6266868172117765,0.3909836796094139,Left,Correct,0.0,0.0,-45,45,675,-1,-1
"{'cat': 'RB', 'resp': 'button'}",41,103,Right,55.553639334342414,81.06406344870811,2.777681966717121,1.2733513310029914,Left,Incorrect,0.0,0.0,-45,45,1554,-1,-1
"{'cat': 'RB', 'resp': 'button'}",41,104,Right,64.5886082133475,25.503204002135,3.2294304106673746,0.4006033916805456,Right,Correct,0.0,0.0,-45,45,661,-1,-1
"{'cat': 'RB', 'resp': 'button'}",41,105,Left,33.91157114565634,28.720431909907077,1.695578557282817,0.4511394894804498,Left,Correct,0.0,0.0,-45,45,881,-1,-1
"{'cat': 'RB', 'resp': 'button'}",41,106,Right,55.49606472996829,14.99023835415786,2.7748032364984145,0.23546611344491145,Right,Correct,0.0,0.0,-45,45,867,-1,-1
"{'cat': 'RB', 'resp': 'button'}",41,107,Right,63.377083567786165,40.25506445846282,3.1688541783893083,0.6323250738624518,Right,Correct,0.0,0.0,-45,45,565,-1,-1
"{'cat': 'RB', 'resp': 'button'}",41,108,Right,65.41404684671917,39.718665742913515,3.270702342335959,0.6238993425416285,Right,Correct,0.0,0.0,-45,45,1172,-1,-1
"{'cat': 'RB', 'resp': 'button'}",41,109,Right,52.85742568213942,30.548910169956528,2.6428712841069713,0.47986115882554975,Right,Correct,0.0,0.0,-45,45,555,-1,-1
"{'cat': 'RB', 'resp': 'button'}",41,110,Left,44.40772508336292,66.564340991483,2.220386254168146,1.0455902232494445,Right,Incorrect,0.0,0.0,-45,45,1459,-1,-1
"{'cat': 'RB', 'resp': 'button'}",41,111,Left,45.34445731165509,26.46588192010774,2.2672228655827547,0.4157251010549271,Left,Correct,0.0,0.0,-45,45,726,-1,-1
"{'cat': 'RB', 'resp': 'button'}",41,112,Right,57.18551222967914,85.574032699187,2.859275611483957,1.3441937623290932,Right,Correct,0.0,0.0,-45,45,605,-1,-1
"{'cat': 'RB', 'resp': 'button'}",41,113,Right,68.52128281687386,33.664684276201655,3.426064140843693,0.5288036240376747,Right,Correct,0.0,0.0,-45,45,515,-1,-1
"{'cat': 'RB', 'resp': 'button'}",41,114,Left,43.99557046957063,41.29863749840219,2.1997785234785314,0.6487174808412413,Left,Correct,0.0,0.0,-45,45,819,-1,-1
"{'cat': 'RB', 'resp': 'button'}",41,115,Right,64.67947909951512,78.18737678896356,3.233973954975756,1.2281644426183251,Right,Correct,0.0,0.0,-45,45,756,-1,-1
"{'cat': 'RB', 'resp': 'button'}",41,116,Left,44.37796512055662,32.31044212321952,2.2188982560278308,0.5075312380427232,Left,Correct,0.0,0.0,-45,45,691,-1,-1
"{'cat': 'RB', 'resp': 'button'}",41,117,Right,56.04470435023556,31.987153307487745,2.8022352175117784,0.5024530292002698,Right,Correct,0.0,0.0,-45,45,1322,-1,-1
"{'cat': 'RB', 'resp': 'button'}",41,118,Left,44.04735556330059,45.41095043372609,2.2023677781650295,0.7133135413756205,Left,Correct,0.0,0.0,-45,45,787,-1,-1
"{'cat': 'RB', 'resp': 'button'}",41,119,Left,47.943488052528345,72.50237290866465,2.3971744026264172,1.1388646104884426,Left,Correct,0.0,0.0,-45,45,4272,-1,-1
"{'cat': 'RB', 'resp': 'button'}",41,120,Right,60.812612579156955,72.59936108781748,3.0406306289578477,1.1403880972440006,Right,Correct,0.0,0.0,-45,45,1021,-1,-1
"{'cat': 'RB', 'resp': 'button'}",41,121,Right,63.55421605487404,17.302392462575845,3.177710802743702,0.27178534524977843,Right,Correct,0.0,0.0,-45,45,647,-1,-1
"{'cat': 'RB', 'resp': 'button'}",41,122,Left,41.95776073316346,37.75711723485223,2.097888036658173,0.5930874106287016,Left,Correct,0.0,0.0,-45,45,780,-1,-1
"{'cat': 'RB', 'resp': 'button'}",41,123,Right,57.332054804254675,11.207271780401456,2.8666027402127336,0.1760434134604671,Right,Correct,0.0,0.0,-45,45,1491,-1,-1
"{'cat': 'RB', 'resp': 'button'}",41,124,Right,67.2774084193482,25.79531354918042,3.36387042096741,0.4051918377157523,Right,Correct,0.0,0.0,-45,45,581,-1,-1
"{'cat': 'RB', 'resp': 'button'}",41,125,Right,52.53206204914612,75.2371681919938,2.626603102457306,1.181822674344337,Right,Correct,0.0,0.0,-45,45,614,-1,-1
"{'cat': 'RB', 'resp': 'button'}",41,126,Left,34.207422825232065,41.40894488289105,1.7103711412616034,0.6504501851849759,Left,Correct,0.0,0.0,-45,45,623,-1,-1
"{'cat': 'RB', 'resp': 'button'}",41,127,Right,57.901438852185905,84.75964656157862,2.8950719426092952,1.331401414793614,Right,Correct,0.0,0.0,-45,45,894,-1,-1
"{'cat': 'RB', 'resp': 'button'}",41,128,Right,56.36795499958582,56.8524008516376,2.818397749979291,0.8930354242722338,Right,Correct,0.0,0.0,-45,45,433,-1,-1
"{'cat': 'RB', 'resp': 'button'}",41,129,Right,53.00511112007315,56.67536382256107,2.6502555560036574,0.890254533122433,Right,Correct,0.0,0.0,-45,45,741,-1,-1
"{'cat': 'RB', 'resp': 'button'}",41,130,Right,67.3083352100394,67.86301085858585,3.36541676050197,1.0659896818190882,Right,Correct,0.0,0.0,-45,45,465,-1,-1
"{'cat': 'RB', 'resp': 'button'}",41,131,Left,39.25432594800108,60.61994264936146,1.962716297400054,0.9522158324413428,Left,Correct,0.0,0.0,-45,45,942,-1,-1
"{'cat': 'RB', 'resp': 'button'}",41,132,Left,38.342636140237346,45.88879448731039,1.9171318070118673,0.7208194982171306,Left,Correct,0.0,0.0,-45,45,801,-1,-1
"{'cat': 'RB', 'resp': 'button'}",41,133,Right,66.43470884199301,40.167787710115896,3.321735442099651,0.6309541339052723,Left,Incorrect,0.0,0.0,-45,45,694,-1,-1
"{'cat': 'RB', 'resp': 'button'}",41,134,Right,64.19159365821619,20.373142616150446,3.20957968291081,0.32002057586717686,Right,Correct,0.0,0.0,-45,45,609,-1,-1
"{'cat': 'RB', 'resp': 'button'}",41,135,Right,67.91741422266607,31.765408842417752,3.3958707111333037,0.49896987528807935,Right,Correct,0.0,0.0,-45,45,802,-1,-1
"{'cat': 'RB', 'resp': 'button'}",41,136,Right,50.91748028833518,59.087096968251586,2.545874014416759,0.9281379487870347,Right,Correct,0.0,0.0,-45,45,500,-1,-1
"{'cat': 'RB', 'resp': 'button'}",41,137,Right,55.25832391145762,54.833495291182885,2.762916195572881,0.8613225298871533,Right,Correct,0.0,0.0,-45,45,1121,-1,-1
"{'cat': 'RB', 'resp': 'button'}",41,138,Right,53.69160576334333,27.28190701758711,2.6845802881671665,0.42854319331185736,Right,Correct,0.0,0.0,-45,45,598,-1,-1
"{'cat': 'RB', 'resp': 'button'}",41,139,Right,60.687102405619825,34.40867109872105,3.0343551202809915,0.5404901417176474,Right,Correct,0.0,0.0,-45,45,420,-1,-1
"{'cat': 'RB', 'resp': 'button'}",41,140,Left,46.614226723117184,64.49180163930706,2.330711336155859,1.0130348512340863,Right,Incorrect,0.0,0.0,-45,45,474,-1,-1
"{'cat': 'RB', 'resp': 'button'}",41,141,Left,38.79910256264437,21.439015596846925,1.9399551281322187,0.33676326949625646,Left,Correct,0.0,0.0,-45,45,659,-1,-1
"{'cat': 'RB', 'resp': 'button'}",41,142,Left,31.94554594463488,49.87084185586237,1.5972772972317442,0.783369352013578,Left,Correct,0.0,0.0,-45,45,524,-1,-1
"{'cat': 'RB', 'resp': 'button'}",41,143,Right,59.27993077961574,8.993854810555426,2.9639965389807865,0.14127514100147073,Right,Correct,0.0,0.0,-45,45,740,-1,-1
"{'cat': 'RB', 'resp': 'button'}",41,144,Left,32.3556785572856,66.63116650158419,1.61778392786428,1.046639915907476,Left,Correct,0.0,0.0,-45,45,609,-1,-1
"{'cat': 'RB', 'resp': 'button'}",41,145,Left,40.43658994984144,66.72911724392587,2.0218294974920723,1.0481785225702476,Left,Correct,0.0,0.0,-45,45,820,-1,-1
"{'cat': 'RB', 'resp': 'button'}",41,146,Left,46.709986150619834,34.825973142288476,2.3354993075309918,0.5470451068896446,Right,Incorrect,0.0,0.0,-45,45,677,-1,-1
"{'cat': 'RB', 'resp': 'button'}",41,147,Right,51.21838776368729,34.8033848207568,2.560919388184365,0.5466902903647404,Left,Incorrect,0.0,0.0,-45,45,921,-1,-1
"{'cat': 'RB', 'resp': 'button'}",41,148,Left,42.76736516045095,83.95272339715025,2.138368258022547,1.318726295366716,Left,Correct,0.0,0.0,-45,45,841,-1,-1
"{'cat': 'RB', 'resp': 'button'}",41,149,Left,48.31763107481603,48.56793943863841,2.4158815537408014,0.7629034087021022,Right,Incorrect,0.0,0.0,-45,45,1404,-1,-1
"{'cat': 'RB', 'resp': 'button'}",41,150,Left,37.2113735584422,28.509515081424446,1.86056867792211,0.44782641568605225,Left,Correct,0.0,0.0,-45,45,1118,-1,-1
"{'cat': 'RB', 'resp': 'button'}",41,151,Left,31.771246861788242,70.50999641160475,1.5885623430894122,1.1075684336567009,Left,Correct,0.0,0.0,-45,45,787,-1,-1
"{'cat': 'RB', 'resp': 'button'}",41,152,Right,56.26448579115773,83.62031720875922,2.8132242895578865,1.3135048711694306,Right,Correct,0.0,0.0,-45,45,845,-1,-1
"{'cat': 'RB', 'resp': 'button'}",41,153,Right,58.1215537456168,52.867581362617166,2.90607768728084,0.8304420261092937,Right,Correct,0.0,0.0,-45,45,754,-1,-1
"{'cat': 'RB', 'resp': 'button'}",41,154,Left,34.55014578613236,54.948641605877675,1.7275072893066181,0.8631312439688188,Left,Correct,0.0,0.0,-45,45,727,-1,-1
"{'cat': 'RB', 'resp': 'button'}",41,155,Right,53.193169054239505,23.03757258335047,2.659658452711975,0.36187334392197734,Right,Correct,0.0,0.0,-45,45,879,-1,-1
"{'cat': 'RB', 'resp': 'button'}",41,156,Right,63.46808801425782,46.31252050809791,3.173404400712891,0.7274753709873353,Right,Correct,0.0,0.0,-45,45,706,-1,-1
"{'cat': 'RB', 'resp': 'button'}",41,157,Left,41.56259275771392,29.28389220174809,2.0781296378856964,0.45999030304763616,Left,Correct,0.0,0.0,-45,45,901,-1,-1
"{'cat': 'RB', 'resp': 'button'}",41,158,Left,39.72293962205387,90.65306834730227,1.9861469811026935,1.4239750677262912,Left,Correct,0.0,0.0,-45,45,795,-1,-1
"{'cat': 'RB', 'resp': 'button'}",41,159,Left,43.95541788765517,54.761474681902996,2.1977708943827587,0.8601912328020496,Left,Correct,0.0,0.0,-45,45,1640,-1,-1
"{'cat': 'RB', 'resp': 'button'}",41,160,Left,44.55122269987641,73.68309625498333,2.2275611349938207,1.1574113694420263,Left,Correct,0.0,0.0,-45,45,793,-1,-1
"{'cat': 'RB', 'resp': 'button'}",41,161,Right,55.2521849725297,38.24906867846071,2.762609248626485,0.6008149658345181,Right,Correct,0.0,0.0,-45,45,470,-1,-1
"{'cat': 'RB', 'resp': 'button'}",41,162,Right,63.23674924664126,34.7600363318251,3.161837462332063,0.5460093738928802,Right,Correct,0.0,0.0,-45,45,619,-1,-1
"{'cat': 'RB', 'resp': 'button'}",41,163,Left,43.315808516458965,82.05033965393048,2.1657904258229483,1.2888437214066764,Right,Incorrect,0.0,0.0,-45,45,423,-1,-1
"{'cat': 'RB', 'resp': 'button'}",41,164,Left,30.936829226790422,51.78886839280855,1.5468414613395212,0.8134976424028799,Left,Correct,0.0,0.0,-45,45,588,-1,-1
"{'cat': 'RB', 'resp': 'button'}",41,165,Right,63.01783834183271,39.96273622441116,3.150891917091635,0.627733192699784,Right,Correct,0.0,0.0,-45,45,597,-1,-1
"{'cat': 'RB', 'resp': 'button'}",41,166,Right,58.44861076455072,45.69017670662546,2.922430538227536,0.7176996174137701,Right,Correct,0.0,0.0,-45,45,670,-1,-1
"{'cat': 'RB', 'resp': 'button'}",41,167,Right,59.961938662705634,42.05035044014548,2.9980969331352814,0.6605253601181867,Right,Correct,0.0,0.0,-45,45,657,-1,-1
"{'cat': 'RB', 'resp': 'button'}",41,168,Right,61.35018887487325,78.94185683656863,3.067509443743662,1.2400157874925062,Right,Correct,0.0,0.0,-45,45,1168,-1,-1
"{'cat': 'RB', 'resp': 'button'}",41,169,Right,56.33805601233763,28.14315193245184,2.8169028006168815,0.4420715967992604,Right,Correct,0.0,0.0,-45,45,1228,-1,-1
"{'cat': 'RB', 'resp': 'button'}",41,170,Right,63.869796916220395,38.12126673611995,3.1934898458110195,0.598807457618657,Right,Correct,0.0,0.0,-45,45,1388,-1,-1
"{'cat': 'RB', 'resp': 'button'}",41,171,Left,36.3337344593606,77.06251657086835,1.81668672296803,1.2104951796309085,Left,Correct,0.0,0.0,-45,45,703,-1,-1
"{'cat': 'RB', 'resp': 'button'}",41,172,Right,64.61517144908206,39.48013116695449,3.2307585724541026,0.6201524501843283,Right,Correct,0.0,0.0,-45,45,1138,-1,-1
"{'cat': 'RB', 'resp': 'button'}",41,173,Right,53.71091250408628,80.57083515871803,2.6855456252043144,1.265603719141114,Right,Correct,0.0,0.0,-45,45,1501,-1,-1
"{'cat': 'RB', 'resp': 'button'}",41,174,Right,61.85624675199726,41.34707326036991,3.092812337599863,0.6494783080110855,Right,Correct,0.0,0.0,-45,45,1238,-1,-1
"{'cat': 'RB', 'resp': 'button'}",41,175,Left,42.974499373147694,53.914361209696466,2.1487249686573846,0.8468848054968445,Right,Incorrect,0.0,0.0,-45,45,2421,-1,-1
"{'cat': 'RB', 'resp': 'button'}",41,176,Right,65.67354114837589,40.12028648526088,3.283677057418794,0.630207986410067,Right,Correct,0.0,0.0,-45,45,572,-1,-1
"{'cat': 'RB', 'resp': 'button'}",41,177,Right,64.3096571143367,41.21435210905258,3.215482855716835,0.6473935290413128,Right,Correct,0.0,0.0,-45,45,664,-1,-1
"{'cat': 'RB', 'resp': 'button'}",41,178,Left,38.72274533517243,30.37619360106333,1.9361372667586212,0.4771481333056093,Left,Correct,0.0,0.0,-45,45,2056,-1,-1
"{'cat': 'RB', 'resp': 'button'}",41,179,Right,65.8709753367802,67.21236149380162,3.29354876683901,1.0557693054967434,Right,Correct,0.0,0.0,-45,45,872,-1,-1
"{'cat': 'RB', 'resp': 'button'}",41,180,Right,64.21160307392714,21.678334387173603,3.2105801536963567,0.3405224802640379,Right,Correct,0.0,0.0,-45,45,1056,-1,-1
"{'cat': 'RB', 'resp': 'button'}",41,181,Right,62.68645227698512,39.78044328657397,3.134322613849256,0.624869741928231,Right,Correct,0.0,0.0,-45,45,648,-1,-1
"{'cat': 'RB', 'resp': 'button'}",41,182,Right,51.73009773904709,54.205125354415024,2.5865048869523544,0.8514521180017204,Right,Correct,0.0,0.0,-45,45,1849,-1,-1
"{'cat': 'RB', 'resp': 'button'}",41,183,Left,38.73461601820521,60.79412618692592,1.9367308009102604,0.9549519010512867,Left,Correct,0.0,0.0,-45,45,601,-1,-1
"{'cat': 'RB', 'resp': 'button'}",41,184,Right,61.74421913326958,24.309292909700208,3.087210956663479,0.3818494800953831,Right,Correct,0.0,0.0,-45,45,917,-1,-1
"{'cat': 'RB', 'resp': 'button'}",41,185,Right,57.78246751876874,35.4713694119303,2.889123375938437,0.5571829677864496,Right,Correct,0.0,0.0,-45,45,737,-1,-1
"{'cat': 'RB', 'resp': 'button'}",41,186,Right,54.87044628136593,66.88081983466729,2.7435223140682967,1.0505614612932663,Right,Correct,0.0,0.0,-45,45,826,-1,-1
"{'cat': 'RB', 'resp': 'button'}",41,187,Right,64.86176135815292,61.77103124178193,3.243088067907646,0.9702970897692386,Right,Correct,0.0,0.0,-45,45,523,-1,-1
"{'cat': 'RB', 'resp': 'button'}",41,188,Left,38.054536010297824,62.152943523128485,1.9027268005148912,0.9762961538562089,Left,Correct,0.0,0.0,-45,45,575,-1,-1
"{'cat': 'RB', 'resp': 'button'}",41,189,Left,47.07106892634518,29.138103718700204,2.3535534463172585,0.4577002629110299,Right,Incorrect,0.0,0.0,-45,45,567,-1,-1
"{'cat': 'RB', 'resp': 'button'}",41,190,Right,65.82799039040138,20.35026200037624,3.2913995195200694,0.3196611679950476,Right,Correct,0.0,0.0,-45,45,503,-1,-1
"{'cat': 'RB', 'resp': 'button'}",41,191,Left,40.73435779803347,64.61948236412775,2.0367178899016736,1.0150404553695944,Left,Correct,0.0,0.0,-45,45,581,-1,-1
"{'cat': 'RB', 'resp': 'button'}",41,192,Right,62.34324711286045,13.967603547466247,3.117162355643023,0.21940260346487347,Right,Correct,0.0,0.0,-45,45,527,-1,-1
"{'cat': 'RB', 'resp': 'button'}",41,193,Left,43.8820324110855,24.395394252208114,2.194101620554275,0.3832019568208184,Left,Correct,0.0,0.0,-45,45,520,-1,-1
"{'cat': 'RB', 'resp': 'button'}",41,194,Right,53.84884438989357,31.403250772742986,2.692442219494678,0.49328110963243677,Right,Correct,0.0,0.0,-45,45,520,-1,-1
"{'cat': 'RB', 'resp': 'button'}",41,195,Right,54.94747970680689,31.72286572313943,2.7473739853403445,0.4983016095331515,Right,Correct,0.0,0.0,-45,45,773,-1,-1
"{'cat': 'RB', 'resp': 'button'}",41,196,Left,35.30128584301055,49.98735787108365,1.7650642921505273,0.7851995813008016,Left,Correct,0.0,0.0,-45,45,670,-1,-1
"{'cat': 'RB', 'resp': 'button'}",41,197,Right,56.268073068767215,35.46792524805453,2.813403653438361,0.5571288669868002,Right,Correct,0.0,0.0,-45,45,2221,-1,-1
"{'cat': 'RB', 'resp': 'button'}",41,198,Left,40.54542865335344,74.79622357708374,2.027271432667672,1.1748963325301296,Left,Correct,0.0,0.0,-45,45,647,-1,-1
"{'cat': 'RB', 'resp': 'button'}",41,199,Right,65.42195402562989,30.267830531758023,3.2710977012814944,0.47544597019335927,Right,Correct,0.0,0.0,-45,45,659,-1,-1
"{'cat': 'RB', 'resp': 'button'}",41,200,Right,61.68576836744387,42.7025943604245,3.0842884183721937,0.6707707836596727,Right,Correct,0.0,0.0,-45,45,896,-1,-1
"{'cat': 'RB', 'resp': 'button'}",41,201,Left,32.94317645911513,32.78863762684183,1.6471588229557566,0.5150427154485209,Left,Correct,0.0,0.0,-45,45,653,-1,-1
"{'cat': 'RB', 'resp': 'button'}",41,202,Left,46.3798925511312,19.9964739395777,2.31899462755656,0.3141038781313853,Left,Correct,0.0,0.0,-45,45,548,-1,-1
"{'cat': 'RB', 'resp': 'button'}",41,203,Right,66.6288288342601,76.41794719054487,3.331441441713005,1.2003703074811427,Right,Correct,0.0,0.0,-45,45,656,-1,-1
"{'cat': 'RB', 'resp': 'button'}",41,204,Right,62.36749600466038,66.56697016466569,3.118374800233019,1.0456315222052233,Right,Correct,0.0,0.0,-45,45,558,-1,-1
"{'cat': 'RB', 'resp': 'button'}",41,205,Left,34.44843960638106,74.01963750543904,1.7224219803190528,1.162697747042334,Left,Correct,0.0,0.0,-45,45,528,-1,-1
"{'cat': 'RB', 'resp': 'button'}",41,206,Left,38.97149288181444,56.99102604130964,1.9485746440907221,0.8952129436596148,Left,Correct,0.0,0.0,-45,45,541,-1,-1
"{'cat': 'RB', 'resp': 'button'}",41,207,Left,30.57026731787455,52.85544419337243,1.5285133658937275,0.8302513759006206,Left,Correct,0.0,0.0,-45,45,566,-1,-1
"{'cat': 'RB', 'resp': 'button'}",41,208,Right,53.39239169618053,37.226251973405695,2.6696195848090265,0.5847485986016694,Right,Correct,0.0,0.0,-45,45,758,-1,-1
"{'cat': 'RB', 'resp': 'button'}",41,209,Left,34.19852032584406,52.4303691266034,1.709926016292203,0.8235743123656919,Left,Correct,0.0,0.0,-45,45,512,-1,-1
"{'cat': 'RB', 'resp': 'button'}",41,210,Right,57.82689536093445,40.68164004206405,2.891344768046723,0.639025707460664,Left,Incorrect,0.0,0.0,-45,45,543,-1,-1
"{'cat': 'RB', 'resp': 'button'}",41,211,Left,35.788916569525895,21.140200151451037,1.7894458284762949,0.33206948745608206,Left,Correct,0.0,0.0,-45,45,489,-1,-1
"{'cat': 'RB', 'resp': 'button'}",41,212,Left,41.704150922191324,58.5454104330469,2.0852075461095665,0.9196291565892968,Right,Incorrect,0.0,0.0,-45,45,578,-1,-1
"{'cat': 'RB', 'resp': 'button'}",41,213,Right,66.39065640868378,44.10681077876773,3.3195328204341887,0.692828163579259,Right,Correct,0.0,0.0,-45,45,579,-1,-1
"{'cat': 'RB', 'resp': 'button'}",41,214,Left,47.505589866777385,69.66725486171018,2.3752794933388692,1.0943306803465824,Right,Incorrect,0.0,0.0,-45,45,601,-1,-1
"{'cat': 'RB', 'resp': 'button'}",41,215,Right,56.72989500377138,44.95656131510394,2.836494750188569,0.7061760137909482,Right,Correct,0.0,0.0,-45,45,531,-1,-1
"{'cat': 'RB', 'resp': 'button'}",41,216,Right,67.73791301695084,61.7350012924691,3.3868956508475425,0.9697311326488864,Right,Correct,0.0,0.0,-45,45,546,-1,-1
"{'cat': 'RB', 'resp': 'button'}",41,217,Right,67.18022225382505,55.06117120720498,3.3590111126912525,0.864898854813025,Right,Correct,0.0,0.0,-45,45,634,-1,-1
"{'cat': 'RB', 'resp': 'button'}",41,218,Right,68.10315441990414,62.6300043790488,3.4051577209952075,0.9837898082575814,Right,Correct,0.0,0.0,-45,45,578,-1,-1
"{'cat': 'RB', 'resp': 'button'}",41,219,Left,47.820525417948076,40.06880162396641,2.391026270897404,0.6293992640999982,Left,Correct,0.0,0.0,-45,45,753,-1,-1
"{'cat': 'RB', 'resp': 'button'}",41,220,Left,43.57108884560344,19.443239257133406,2.178554442280172,0.3054136880609949,Left,Correct,0.0,0.0,-45,45,633,-1,-1
"{'cat': 'RB', 'resp': 'button'}",41,221,Right,65.55622952006422,32.33738117044466,3.277811476003211,0.5079543956070093,Right,Correct,0.0,0.0,-45,45,525,-1,-1
"{'cat': 'RB', 'resp': 'button'}",41,222,Right,60.41858963097685,70.66694349024642,3.0209294815488423,1.1100337526030162,Right,Correct,0.0,0.0,-45,45,677,-1,-1
"{'cat': 'RB', 'resp': 'button'}",41,223,Right,53.888330129666066,38.47007074982595,2.694416506483303,0.604286458253664,Right,Correct,0.0,0.0,-45,45,971,-1,-1
"{'cat': 'RB', 'resp': 'button'}",41,224,Left,43.46824704053977,63.279173668828825,2.173412352026989,0.9939869356161266,Right,Incorrect,0.0,0.0,-45,45,1177,-1,-1
"{'cat': 'RB', 'resp': 'button'}",41,225,Left,38.08271116397865,44.38483754029617,1.9041355581989325,0.6971953977368545,Right,Incorrect,0.0,0.0,-45,45,613,-1,-1
"{'cat': 'RB', 'resp': 'button'}",41,226,Left,32.60767921676666,60.0056804873706,1.630383960838333,0.9425670249638993,Left,Correct,0.0,0.0,-45,45,576,-1,-1
"{'cat': 'RB', 'resp': 'button'}",41,227,Left,44.83234711264041,42.3505504285913,2.2416173556320205,0.6652408905097325,Left,Correct,0.0,0.0,-45,45,1706,-1,-1
"{'cat': 'RB', 'resp': 'button'}",41,228,Right,57.80159489881091,15.162971584274409,2.8900797449405458,0.23817940067873633,Right,Correct,0.0,0.0,-45,45,571,-1,-1
"{'cat': 'RB', 'resp': 'button'}",41,229,Left,46.80253349356491,45.82916211908413,2.3401266746782454,0.7198827951674517,Right,Incorrect,0.0,0.0,-45,45,956,-1,-1
"{'cat': 'RB', 'resp': 'button'}",41,230,Right,52.733470534263695,64.68099315441023,2.636673526713185,1.0160066646039345,Right,Correct,0.0,0.0,-45,45,758,-1,-1
"{'cat': 'RB', 'resp': 'button'}",41,231,Left,39.171350386139316,18.866187531340703,1.9585675193069658,0.29634938074853656,Left,Correct,0.0,0.0,-45,45,580,-1,-1
"{'cat': 'RB', 'resp': 'button'}",41,232,Left,38.27382219698669,79.92751526688863,1.9136911098493345,1.2554984739107167,Left,Correct,0.0,0.0,-45,45,642,-1,-1
"{'cat': 'RB', 'resp': 'button'}",41,233,Left,34.87747537369286,36.517379988672815,1.7438737686846428,0.5736136635038073,Left,Correct,0.0,0.0,-45,45,651,-1,-1
"{'cat': 'RB', 'resp': 'button'}",41,234,Right,56.82384254452502,85.48142543179335,2.841192127226251,1.3427390907745285,Right,Correct,0.0,0.0,-45,45,1008,-1,-1
"{'cat': 'RB', 'resp': 'button'}",41,235,Left,31.92373433504115,67.88642522904937,1.5961867167520574,1.0663574738902712,Left,Correct,0.0,0.0,-45,45,1833,-1,-1
"{'cat': 'RB', 'resp': 'button'}",41,236,Left,33.39494751831309,62.95968657681808,1.6697473759156543,0.9889684441102378,Left,Correct,0.0,0.0,-45,45,758,-1,-1
"{'cat': 'RB', 'resp': 'button'}",41,237,Right,60.042890130774374,63.6498700572665,3.002144506538719,0.9998098208692667,Right,Correct,0.0,0.0,-45,45,1343,-1,-1
"{'cat': 'RB', 'resp': 'button'}",41,238,Right,65.67035373194949,58.01794906348898,3.2835176865974747,0.9113438127710191,Right,Correct,0.0,0.0,-45,45,676,-1,-1
"{'cat': 'RB', 'resp': 'button'}",41,239,Right,60.63653828073427,73.96194776527524,3.0318269140367136,1.1617915587229035,Right,Correct,0.0,0.0,-45,45,606,-1,-1
"{'cat': 'RB', 'resp': 'button'}",41,240,Right,67.87072633066677,47.38072215026696,3.3935363165333388,0.7442546431452896,Right,Correct,0.0,0.0,-45,45,769,-1,-1
"{'cat': 'RB', 'resp': 'button'}",41,241,Right,56.34495151324654,81.79938124626621,2.817247575662327,1.284901675957303,Right,Correct,0.0,0.0,-45,45,856,-1,-1
"{'cat': 'RB', 'resp': 'button'}",41,242,Right,66.25508702030504,71.84188057518112,3.312754351015252,1.1284896211753213,Right,Correct,0.0,0.0,-45,45,538,-1,-1
"{'cat': 'RB', 'resp': 'button'}",41,243,Right,52.639820355583836,73.17753709205734,2.6319910177791916,1.1494700646810097,Right,Correct,0.0,0.0,-45,45,919,-1,-1
"{'cat': 'RB', 'resp': 'button'}",41,244,Left,44.70901655693718,81.93742910052427,2.235450827846859,1.287070126581208,Right,Incorrect,0.0,0.0,-45,45,769,-1,-1
"{'cat': 'RB', 'resp': 'button'}",41,245,Left,37.91907063878264,23.002317179710985,1.895953531939132,0.3613195533366116,Left,Correct,0.0,0.0,-45,45,536,-1,-1
"{'cat': 'RB', 'resp': 'button'}",41,246,Right,62.893341966506625,62.04847936074931,3.144667098325331,0.9746552346307397,Right,Correct,0.0,0.0,-45,45,418,-1,-1
"{'cat': 'RB', 'resp': 'button'}",41,247,Right,67.98555800441497,34.610598130093464,3.3992779002207487,0.5436620041092513,Right,Correct,0.0,0.0,-45,45,718,-1,-1
"{'cat': 'RB', 'resp': 'button'}",41,248,Right,54.475915609090336,68.9568128769358,2.723795780454517,1.0831710837457378,Right,Correct,0.0,0.0,-45,45,587,-1,-1
"{'cat': 'RB', 'resp': 'button'}",41,249,Left,39.49058452136459,65.05206156198615,1.9745292260682294,1.0218353935200333,Left,Correct,0.0,0.0,-45,45,669,-1,-1
"{'cat': 'RB', 'resp': 'button'}",41,250,Right,63.0462060880147,30.864001702237147,3.152310304400735,0.48481060504065543,Right,Correct,0.0,0.0,-45,45,534,-1,-1
"{'cat': 'RB', 'resp': 'button'}",41,251,Right,62.22728539513717,21.248069944757816,3.1113642697568586,0.33376390220706625,Right,Correct,0.0,0.0,-45,45,667,-1,-1
"{'cat': 'RB', 'resp': 'button'}",41,252,Right,59.68566247946567,34.17464273936023,2.984283123973283,0.5368140328451493,Right,Correct,0.0,0.0,-45,45,537,-1,-1
"{'cat': 'RB', 'resp': 'button'}",41,253,Right,60.93743367100766,37.77644379787067,3.046871683550383,0.5933909915706911,Right,Correct,0.0,0.0,-45,45,563,-1,-1
"{'cat': 'RB', 'resp': 'button'}",41,254,Left,44.40872820561683,57.81661082161237,2.2204364102808416,0.9081811990631877,Left,Correct,0.0,0.0,-45,45,777,-1,-1
"{'cat': 'RB', 'resp': 'button'}",41,255,Right,67.14375514301999,48.43873128451545,3.3571877571509994,0.760873811763219,Right,Correct,0.0,0.0,-45,45,586,-1,-1
"{'cat': 'RB', 'resp': 'button'}",41,256,Left,38.09244767335578,66.92493281452428,1.9046223836677887,1.0512543863605,Left,Correct,0.0,0.0,-45,45,654,-1,-1
"{'cat': 'RB', 'resp': 'button'}",41,257,Right,52.984213469851056,63.23147082261955,2.649210673492553,0.9932376210600945,Right,Correct,0.0,0.0,-45,45,1708,-1,-1
"{'cat': 'RB', 'resp': 'button'}",41,258,Right,65.0365259064422,66.08453390455435,3.2518262953221098,1.0380534311522678,Right,Correct,0.0,0.0,-45,45,851,-1,-1
"{'cat': 'RB', 'resp': 'button'}",41,259,Left,33.067252514360355,50.10803931085658,1.6533626257180176,0.7870952409238781,Left,Correct,0.0,0.0,-45,45,707,-1,-1
"{'cat': 'RB', 'resp': 'button'}",41,260,Right,57.20817859805745,12.83275741459881,2.8604089299028725,0.20157648209501783,Right,Correct,0.0,0.0,-45,45,1070,-1,-1
"{'cat': 'RB', 'resp': 'button'}",41,261,Left,42.2947401917203,14.488123303316655,2.114737009586015,0.22757890867001346,Right,Incorrect,0.0,0.0,-45,45,1339,-1,-1
"{'cat': 'RB', 'resp': 'button'}",41,262,Left,38.873073878302186,25.06393764842115,1.9436536939151094,0.39370341193156255,Left,Correct,0.0,0.0,-45,45,1018,-1,-1
"{'cat': 'RB', 'resp': 'button'}",41,263,Right,60.874798888656855,33.37735954585981,3.043739944432843,0.5242903377274917,Right,Correct,0.0,0.0,-45,45,567,-1,-1
"{'cat': 'RB', 'resp': 'button'}",41,264,Left,38.62747259268216,52.460004733083714,1.931373629634108,0.824039827383708,Left,Correct,0.0,0.0,-45,45,602,-1,-1
"{'cat': 'RB', 'resp': 'button'}",41,265,Left,43.215649942258885,23.148094258281176,2.1607824971129443,0.3636094143321011,Left,Correct,0.0,0.0,-45,45,1050,-1,-1
"{'cat': 'RB', 'resp': 'button'}",41,266,Left,47.14208964200572,36.941581342449346,2.357104482100286,0.5802770027871433,Right,Incorrect,0.0,0.0,-45,45,1573,-1,-1
"{'cat': 'RB', 'resp': 'button'}",41,267,Right,59.994866192357684,75.63055951423556,2.9997433096178843,1.18800205078404,Right,Correct,0.0,0.0,-45,45,525,-1,-1
"{'cat': 'RB', 'resp': 'button'}",41,268,Right,58.2464140795432,78.67427470239721,2.9123207039771604,1.235812617157782,Right,Correct,0.0,0.0,-45,45,570,-1,-1
"{'cat': 'RB', 'resp': 'button'}",41,269,Right,66.4168768133972,21.5975051929922,3.32084384066986,0.33925281825085857,Right,Correct,0.0,0.0,-45,45,455,-1,-1
"{'cat': 'RB', 'resp': 'button'}",41,270,Left,40.87948916572313,77.6684586216978,2.0439744582861565,1.2200132951078433,Right,Incorrect,0.0,0.0,-45,45,555,-1,-1
"{'cat': 'RB', 'resp': 'button'}",41,271,Left,39.29901266703155,85.51195720122851,1.9649506333515774,1.3432186826873216,Left,Correct,0.0,0.0,-45,45,512,-1,-1
"{'cat': 'RB', 'resp': 'button'}",41,272,Left,31.882052302733562,52.97458731092549,1.5941026151366782,0.832122871614773,Left,Correct,0.0,0.0,-45,45,570,-1,-1
"{'cat': 'RB', 'resp': 'button'}",41,273,Right,56.315732644336926,86.49226049298507,2.815786632216846,1.358617250785683,Left,Incorrect,0.0,0.0,-45,45,691,-1,-1
"{'cat': 'RB', 'resp': 'button'}",41,274,Left,41.07847607162663,82.49836329767925,2.0539238035813314,1.2958812603458547,Left,Correct,0.0,0.0,-45,45,1307,-1,-1
"{'cat': 'RB', 'resp': 'button'}",41,275,Right,58.064040575541874,68.02307732791898,2.903202028777094,1.0685040000398036,Right,Correct,0.0,0.0,-45,45,1124,-1,-1
"{'cat': 'RB', 'resp': 'button'}",41,276,Left,35.22120094927653,58.44250101146373,1.7610600474638263,0.9180126591751425,Left,Correct,0.0,0.0,-45,45,755,-1,-1
"{'cat': 'RB', 'resp': 'button'}",41,277,Left,38.8739509998963,69.59388299828402,1.943697549994815,1.0931781578109834,Left,Correct,0.0,0.0,-45,45,597,-1,-1
"{'cat': 'RB', 'resp': 'button'}",41,278,Left,32.290543670522695,55.59759086507431,1.6145271835261348,0.8733249150950422,Left,Correct,0.0,0.0,-45,45,571,-1,-1
"{'cat': 'RB', 'resp': 'button'}",41,279,Right,55.17675290198039,69.01661748579534,2.7588376450990197,1.0841104923449574,Right,Correct,0.0,0.0,-45,45,575,-1,-1
"{'cat': 'RB', 'resp': 'button'}",41,280,Right,56.102114721274326,71.52549198120252,2.8051057360637164,1.1235198007627074,Right,Correct,0.0,0.0,-45,45,575,-1,-1
"{'cat': 'RB', 'resp': 'button'}",41,281,Right,58.42187993062603,65.26262663686909,2.9210939965313014,1.0251429419818074,Right,Correct,0.0,0.0,-45,45,540,-1,-1
"{'cat': 'RB', 'resp': 'button'}",41,282,Right,65.85931607603867,18.00690926959544,3.2929658038019336,0.2828518693760949,Right,Correct,0.0,0.0,-45,45,520,-1,-1
"{'cat': 'RB', 'resp': 'button'}",41,283,Left,33.425038964803896,50.964355255155304,1.6712519482401946,0.8005462203226813,Left,Correct,0.0,0.0,-45,45,974,-1,-1
"{'cat': 'RB', 'resp': 'button'}",41,284,Left,31.926881596337914,35.905611516091,1.5963440798168957,0.5640040268080028,Left,Correct,0.0,0.0,-45,45,806,-1,-1
"{'cat': 'RB', 'resp': 'button'}",41,285,Right,57.643816787569925,55.33458338697994,2.8821908393784965,0.86919360328994,Right,Correct,0.0,0.0,-45,45,644,-1,-1
"{'cat': 'RB', 'resp': 'button'}",41,286,Right,56.08290885771599,65.33325236656391,2.8041454428857997,1.0262523283496257,Right,Correct,0.0,0.0,-45,45,710,-1,-1
"{'cat': 'RB', 'resp': 'button'}",41,287,Left,44.025391303162365,72.39029842839548,2.2012695651581184,1.1371041486691,Left,Correct,0.0,0.0,-45,45,1196,-1,-1
"{'cat': 'RB', 'resp': 'button'}",41,288,Left,43.220715318409084,12.2815077286186,2.161035765920454,0.19291747227617229,Left,Correct,0.0,0.0,-45,45,918,-1,-1
"{'cat': 'RB', 'resp': 'button'}",41,289,Right,61.48855259696179,54.75497727428492,3.0744276298480897,0.860089171761848,Right,Correct,0.0,0.0,-45,45,827,-1,-1
"{'cat': 'RB', 'resp': 'button'}",41,290,Left,38.686275053388414,82.63789611443285,1.9343137526694207,1.2980730367060938,Left,Correct,0.0,0.0,-45,45,969,-1,-1
"{'cat': 'RB', 'resp': 'button'}",41,291,Left,46.74125854505594,71.74463863893982,2.3370629272527967,1.1269621484127386,Left,Correct,0.0,0.0,-45,45,797,-1,-1
"{'cat': 'RB', 'resp': 'button'}",41,292,Right,54.88335400381246,46.87987122841079,2.7441677001906224,0.7363872952620543,Right,Correct,0.0,0.0,-45,45,905,-1,-1
"{'cat': 'RB', 'resp': 'button'}",41,293,Right,53.89259173454609,59.42523664271682,2.6946295867273045,0.9334494343729707,Left,Incorrect,0.0,0.0,-45,45,614,-1,-1
"{'cat': 'RB', 'resp': 'button'}",41,294,Left,43.902129829090576,64.92872781492626,2.1951064914545286,1.019898071551518,Left,Correct,0.0,0.0,-45,45,675,-1,-1
"{'cat': 'RB', 'resp': 'button'}",41,295,Right,60.42530993067954,49.78837946743763,3.021265496533977,0.7820740358452146,Right,Correct,0.0,0.0,-45,45,893,-1,-1
"{'cat': 'RB', 'resp': 'button'}",41,296,Left,42.47700059350087,28.54999685677832,2.1238500296750433,0.4484623019263323,Left,Correct,0.0,0.0,-45,45,787,-1,-1
"{'cat': 'RB', 'resp': 'button'}",41,297,Right,57.19855777188784,15.429884783268804,2.859927888594392,0.2423720634042711,Right,Correct,0.0,0.0,-45,45,580,-1,-1
"{'cat': 'RB', 'resp': 'button'}",41,298,Left,44.865056999191786,78.79508489340517,2.2432528499595894,1.237710299200529,Left,Correct,0.0,0.0,-45,45,675,-1,-1
"{'cat': 'RB', 'resp': 'button'}",41,299,Right,54.84981645823525,76.88908668579326,2.7424908229117624,1.2077709493665845,Right,Correct,0.0,0.0,-45,45,628,-1,-1
"{'cat': 'RB', 'resp': 'button'}",41,300,Left,43.46850021365763,42.55875273569456,2.173425010682881,0.6685113247020128,Left,Correct,0.0,0.0,-45,45,608,-1,-1
"{'cat': 'RB', 'resp': 'button'}",41,301,Right,58.08933182770143,23.6426903725961,2.9044665913850714,0.3713785119282302,Right,Correct,0.0,0.0,-45,45,539,-1,-1
"{'cat': 'RB', 'resp': 'button'}",41,302,Left,39.70475063404032,30.339343211267792,1.9852375317020161,0.47656928873629123,Left,Correct,0.0,0.0,-45,45,756,-1,-1
"{'cat': 'RB', 'resp': 'button'}",41,303,Right,57.61574520782635,20.68110034604499,2.8807872603913176,0.32485796457644134,Right,Correct,0.0,0.0,-45,45,788,-1,-1
"{'cat': 'RB', 'resp': 'button'}",41,304,Right,53.62125285545281,35.939446942335316,2.6810626427726403,0.5645355124406038,Right,Correct,0.0,0.0,-45,45,638,-1,-1
"{'cat': 'RB', 'resp': 'button'}",41,305,Left,38.515336539126025,24.3079683248327,1.9257668269563013,0.38182867356493894,Left,Correct,0.0,0.0,-45,45,1336,-1,-1
"{'cat': 'RB', 'resp': 'button'}",41,306,Right,65.8906709521242,82.07519450637311,3.2945335476062096,1.2892341405158756,Right,Correct,0.0,0.0,-45,45,3459,-1,-1
"{'cat': 'RB', 'resp': 'button'}",41,307,Right,52.205939372620044,29.33447698111753,2.6102969686310025,0.46078488690388864,Right,Correct,0.0,0.0,-45,45,1807,-1,-1
"{'cat': 'RB', 'resp': 'button'}",41,308,Right,55.04178055843916,64.87343431738,2.752089027921958,1.019029523323105,Left,Incorrect,0.0,0.0,-45,45,849,-1,-1
"{'cat': 'RB', 'resp': 'button'}",41,309,Left,37.59799452965734,58.30720093965335,1.8798997264828672,0.9158873706169942,Left,Correct,0.0,0.0,-45,45,669,-1,-1
"{'cat': 'RB', 'resp': 'button'}",41,310,Left,47.56462513347861,55.117412911106285,2.3782312566739305,0.8657822974320335,Left,Correct,0.0,0.0,-45,45,619,-1,-1
"{'cat': 'RB', 'resp': 'button'}",41,311,Right,68.1257491173766,52.008275349291594,3.4062874558688296,0.816944078816048,Right,Correct,0.0,0.0,-45,45,625,-1,-1
"{'cat': 'RB', 'resp': 'button'}",41,312,Right,60.868846137348896,47.038661568218856,3.043442306867445,0.7388815680870645,Right,Correct,0.0,0.0,-45,45,727,-1,-1
"{'cat': 'RB', 'resp': 'button'}",41,313,Right,55.7635397387391,58.41695638310619,2.788176986936955,0.9176114050912089,Right,Correct,0.0,0.0,-45,45,569,-1,-1
"{'cat': 'RB', 'resp': 'button'}",41,314,Left,36.50557303558267,64.82667935245077,1.8252786517791335,1.0182950980514023,Left,Correct,0.0,0.0,-45,45,1178,-1,-1
"{'cat': 'RB', 'resp': 'button'}",41,315,Right,64.04804288397618,65.00887535462816,3.2024021441988086,1.021157026161172,Right,Correct,0.0,0.0,-45,45,599,-1,-1
"{'cat': 'RB', 'resp': 'button'}",41,316,Left,39.976078506737615,68.98866424138282,1.9988039253368808,1.0836714038085058,Right,Incorrect,0.0,0.0,-45,45,574,-1,-1
"{'cat': 'RB', 'resp': 'button'}",41,317,Left,44.84089684045637,17.784343951553474,2.2420448420228185,0.27935582153557237,Left,Correct,0.0,0.0,-45,45,1296,-1,-1
"{'cat': 'RB', 'resp': 'button'}",41,318,Left,42.04377140509152,36.9799330993023,2.102188570254576,0.5808794307750508,Left,Correct,0.0,0.0,-45,45,631,-1,-1
"{'cat': 'RB', 'resp': 'button'}",41,319,Right,57.399497857004455,16.942738348337073,2.8699748928502227,0.26613591163414907,Right,Correct,0.0,0.0,-45,45,618,-1,-1
"{'cat': 'RB', 'resp': 'button'}",41,320,Right,58.567816976499806,84.58356554003507,2.9283908488249906,1.3286355405750245,Right,Correct,0.0,0.0,-45,45,728,-1,-1
"{'cat': 'RB', 'resp': 'button'}",41,321,Right,65.08892008033304,58.21357213130041,3.2544460040166516,0.9144166527345643,Right,Correct,0.0,0.0,-45,45,1478,-1,-1
"{'cat': 'RB', 'resp': 'button'}",41,322,Right,52.35489480296183,72.22162720865776,2.6177447401480913,1.1344546673451,Right,Correct,0.0,0.0,-45,45,807,-1,-1
"{'cat': 'RB', 'resp': 'button'}",41,323,Right,66.00462460098595,74.44949738250064,3.3002312300492975,1.1694499702015828,Right,Correct,0.0,0.0,-45,45,784,-1,-1
"{'cat': 'RB', 'resp': 'button'}",41,324,Right,65.90166869174219,23.895190834613988,3.2950834345871094,0.37534477991074733,Right,Correct,0.0,0.0,-45,45,627,-1,-1
"{'cat': 'RB', 'resp': 'button'}",41,325,Right,63.63516958561444,31.98719587806794,3.181758479280722,0.5024536978973798,Right,Correct,0.0,0.0,-45,45,458,-1,-1
"{'cat': 'RB', 'resp': 'button'}",41,326,Left,40.3185899822458,51.880049266333494,2.0159294991122896,0.814929908214949,Left,Correct,0.0,0.0,-45,45,979,-1,-1
"{'cat': 'RB', 'resp': 'button'}",41,327,Left,37.87735791454972,13.20992469525222,1.893867895727486,0.20750101188539377,Right,Incorrect,0.0,0.0,-45,45,835,-1,-1
"{'cat': 'RB', 'resp': 'button'}",41,328,Right,62.14827475410625,37.980591332247506,3.1074137377053126,0.5965977335419248,Right,Correct,0.0,0.0,-45,45,663,-1,-1
"{'cat': 'RB', 'resp': 'button'}",41,329,Left,36.2390802637574,58.2570574525351,1.81195401318787,0.9150997185632139,Left,Correct,0.0,0.0,-45,45,744,-1,-1
"{'cat': 'RB', 'resp': 'button'}",41,330,Left,35.16864099965677,17.82153995099528,1.7584320499828385,0.27994009492851885,Left,Correct,0.0,0.0,-45,45,2065,-1,-1
"{'cat': 'RB', 'resp': 'button'}",41,331,Left,47.9859886240592,56.93916892671305,2.39929943120296,0.8943983740083498,Left,Correct,0.0,0.0,-45,45,1300,-1,-1
"{'cat': 'RB', 'resp': 'button'}",41,332,Right,54.853663261151965,57.569269555393035,2.742683163057598,0.9042959715387664,Right,Correct,0.0,0.0,-45,45,1201,-1,-1
"{'cat': 'RB', 'resp': 'button'}",41,333,Left,36.9743942931141,18.736177947497097,1.848719714655705,0.29430719498103985,Left,Correct,0.0,0.0,-45,45,2134,-1,-1
"{'cat': 'RB', 'resp': 'button'}",41,334,Right,63.94163485144451,36.911902222572834,3.1970817425722253,0.5798108042622979,Right,Correct,0.0,0.0,-45,45,1584,-1,-1
"{'cat': 'RB', 'resp': 'button'}",41,335,Left,33.99795812888059,59.19974015212813,1.6998979064440294,0.9299073437817521,Left,Correct,0.0,0.0,-45,45,1388,-1,-1
"{'cat': 'RB', 'resp': 'button'}",41,336,Right,56.77351017179718,76.19127465296707,2.838675508589859,1.196809743587018,Left,Incorrect,0.0,0.0,-45,45,3268,-1,-1
"{'cat': 'RB', 'resp': 'button'}",41,337,Right,65.74571944099078,20.854813149937005,3.2872859720495393,0.3275866389191496,Right,Correct,0.0,0.0,-45,45,1107,-1,-1
"{'cat': 'RB', 'resp': 'button'}",41,338,Left,42.35779341069401,65.96675095396105,2.1178896705347,1.0362033008907576,Left,Correct,0.0,0.0,-45,45,1444,-1,-1
"{'cat': 'RB', 'resp': 'button'}",41,339,Left,46.47279510854213,57.84731471039378,2.3236397554271067,0.9086634946203496,Left,Correct,0.0,0.0,-45,45,2106,-1,-1
"{'cat': 'RB', 'resp': 'button'}",41,340,Left,47.1788287574732,58.96704608172254,2.3589414378736597,0.9262521938711517,Left,Correct,0.0,0.0,-45,45,922,-1,-1
"{'cat': 'RB', 'resp': 'button'}",41,341,Left,40.30255538518765,21.64571686391466,2.0151277692593825,0.340010125406795,Left,Correct,0.0,0.0,-45,45,735,-1,-1
"{'cat': 'RB', 'resp': 'button'}",41,342,Right,55.5887670285655,21.802579183926486,2.779438351428275,0.342474112967666,Right,Correct,0.0,0.0,-45,45,955,-1,-1
"{'cat': 'RB', 'resp': 'button'}",41,343,Right,54.07776607214581,76.39005033928768,2.7038883036072905,1.1999321047663034,Left,Incorrect,0.0,0.0,-45,45,1056,-1,-1
"{'cat': 'RB', 'resp': 'button'}",41,344,Right,63.143222779121295,13.78478639468198,3.1571611389560648,0.2165309183441872,Left,Incorrect,0.0,0.0,-45,45,639,-1,-1
"{'cat': 'RB', 'resp': 'button'}",41,345,Left,38.340285420123806,27.423157545173652,1.9170142710061902,0.4307619514107653,Left,Correct,0.0,0.0,-45,45,888,-1,-1
"{'cat': 'RB', 'resp': 'button'}",41,346,Left,41.885438816790604,75.65126911579834,2.0942719408395303,1.1883273564446823,Right,Incorrect,0.0,0.0,-45,45,1042,-1,-1
"{'cat': 'RB', 'resp': 'button'}",41,347,Right,68.88271160922314,47.546960539320295,3.4441355804611566,0.7468659096542621,Right,Correct,0.0,0.0,-45,45,660,-1,-1
"{'cat': 'RB', 'resp': 'button'}",41,348,Right,57.761273053500474,55.3035339353057,2.8880636526750236,0.868705879643551,Right,Correct,0.0,0.0,-45,45,1341,-1,-1
"{'cat': 'RB', 'resp': 'button'}",41,349,Left,37.21498461645943,66.28216794656309,1.8607492308229718,1.0411578594246373,Left,Correct,0.0,0.0,-45,45,918,-1,-1
"{'cat': 'RB', 'resp': 'button'}",41,350,Right,64.08612079434701,15.258535017503192,3.2043060397173506,0.23968050757765316,Right,Correct,0.0,0.0,-45,45,516,-1,-1
"{'cat': 'RB', 'resp': 'button'}",41,351,Right,68.22628057360176,49.94242961361817,3.4113140286800876,0.7844938498828409,Right,Correct,0.0,0.0,-45,45,603,-1,-1
"{'cat': 'RB', 'resp': 'button'}",41,352,Left,44.42474555326592,47.34246001865819,2.2212372776632963,0.7436536229874254,Left,Correct,0.0,0.0,-45,45,1984,-1,-1
"{'cat': 'RB', 'resp': 'button'}",41,353,Right,64.87218754525459,33.75345451154112,3.2436093772627292,0.5301980236336743,Right,Correct,0.0,0.0,-45,45,1502,-1,-1
"{'cat': 'RB', 'resp': 'button'}",41,354,Left,46.4807725933548,77.4263881510327,2.32403862966774,1.2162108610463807,Left,Correct,0.0,0.0,-45,45,1216,-1,-1
"{'cat': 'RB', 'resp': 'button'}",41,355,Left,34.495456515555134,65.73529575213152,1.7247728257777566,1.0325676110822437,Left,Correct,0.0,0.0,-45,45,1099,-1,-1
"{'cat': 'RB', 'resp': 'button'}",41,356,Left,33.26595072211635,69.09439060632373,1.6632975361058175,1.085332149665451,Left,Correct,0.0,0.0,-45,45,671,-1,-1
"{'cat': 'RB', 'resp': 'button'}",41,357,Left,37.51555832981223,61.44665258242103,1.8757779164906114,0.9652017617030909,Left,Correct,0.0,0.0,-45,45,507,-1,-1
"{'cat': 'RB', 'resp': 'button'}",41,358,Right,54.23508140042999,65.2194905425236,2.7117540700214993,1.0244653617963058,Left,Incorrect,0.0,0.0,-45,45,1844,-1,-1
"{'cat': 'RB', 'resp': 'button'}",41,359,Left,37.6905660017661,43.899013469659884,1.884528300088305,0.6895640910806142,Left,Correct,0.0,0.0,-45,45,795,-1,-1
"{'cat': 'RB', 'resp': 'button'}",41,360,Right,65.52433012077019,29.63189956862004,3.276216506038509,0.4654567899834364,Right,Correct,0.0,0.0,-45,45,576,-1,-1
"{'cat': 'RB', 'resp': 'button'}",41,361,Right,55.606101009872404,75.80103189112869,2.78030505049362,1.1906798246184775,Right,Correct,0.0,0.0,-45,45,1041,-1,-1
"{'cat': 'RB', 'resp': 'button'}",41,362,Left,38.616848125770645,54.00370405172078,1.9308424062885323,0.8482881995776167,Left,Correct,0.0,0.0,-45,45,656,-1,-1
"{'cat': 'RB', 'resp': 'button'}",41,363,Left,41.40340654314775,58.274699480939496,2.0701703271573875,0.9153768388973622,Left,Correct,0.0,0.0,-45,45,1169,-1,-1
"{'cat': 'RB', 'resp': 'button'}",41,364,Left,40.29751661730928,72.90422068343331,2.014875830865464,1.1451768205738155,Left,Correct,0.0,0.0,-45,45,1051,-1,-1
"{'cat': 'RB', 'resp': 'button'}",41,365,Left,46.61075672643518,39.68471489169167,2.3305378363217586,0.6233660438177202,Left,Correct,0.0,0.0,-45,45,1878,-1,-1
"{'cat': 'RB', 'resp': 'button'}",41,366,Left,37.262725684977596,54.62502562375035,1.86313628424888,0.8580478960086414,Left,Correct,0.0,0.0,-45,45,533,-1,-1
"{'cat': 'RB', 'resp': 'button'}",41,367,Left,37.632847737770305,52.945739141638896,1.8816423868885153,0.8316697256312715,Left,Correct,0.0,0.0,-45,45,903,-1,-1
"{'cat': 'RB', 'resp': 'button'}",41,368,Left,48.656879196995256,35.7050373298377,2.432843959849763,0.5608534148578371,Right,Incorrect,0.0,0.0,-45,45,720,-1,-1
"{'cat': 'RB', 'resp': 'button'}",41,369,Left,40.45566973028757,19.876367214949763,2.0227834865143786,0.31221724611269597,Left,Correct,0.0,0.0,-45,45,1514,-1,-1
"{'cat': 'RB', 'resp': 'button'}",41,370,Left,31.500388135422686,63.71990828526109,1.5750194067711343,1.0009099787819582,Left,Correct,0.0,0.0,-45,45,595,-1,-1
"{'cat': 'RB', 'resp': 'button'}",41,371,Left,43.01372980436829,64.90512625067419,2.1506864902184146,1.0195273390471804,Left,Correct,0.0,0.0,-45,45,1159,-1,-1
"{'cat': 'RB', 'resp': 'button'}",41,372,Right,65.98132493552176,55.28618316487537,3.2990662467760874,0.8684333343789606,Right,Correct,0.0,0.0,-45,45,807,-1,-1
"{'cat': 'RB', 'resp': 'button'}",41,373,Right,64.7794233641402,33.299746585647604,3.23897116820701,0.5230711961993616,Right,Correct,0.0,0.0,-45,45,3129,-1,-1
"{'cat': 'RB', 'resp': 'button'}",41,374,Right,56.461435432207416,47.35129511999577,2.823071771610371,0.7437924044347045,Right,Correct,0.0,0.0,-45,45,774,-1,-1
"{'cat': 'RB', 'resp': 'button'}",41,375,Right,68.85843247578863,63.2545464077263,3.4429216237894313,0.9936000915033378,Right,Correct,0.0,0.0,-45,45,1262,-1,-1
"{'cat': 'RB', 'resp': 'button'}",41,376,Left,48.234443286970915,55.04090440866098,2.411722164348546,0.8645805046859368,Left,Correct,0.0,0.0,-45,45,2075,-1,-1
"{'cat': 'RB', 'resp': 'button'}",41,377,Right,60.06427346632552,74.24627983975913,3.0032136733162758,1.1662578365047962,Right,Correct,0.0,0.0,-45,45,1727,-1,-1
"{'cat': 'RB', 'resp': 'button'}",41,378,Left,40.896211134330194,87.24374445827056,2.04481055671651,1.37042153330884,Left,Correct,0.0,0.0,-45,45,778,-1,-1
"{'cat': 'RB', 'resp': 'button'}",41,379,Right,62.944882515276916,24.662774332189663,3.1472441257638457,0.3874019532957497,Right,Correct,0.0,0.0,-45,45,2889,-1,-1
"{'cat': 'RB', 'resp': 'button'}",41,380,Right,57.40412897968266,47.85343982842738,2.870206448984133,0.7516800750699435,Right,Correct,0.0,0.0,-45,45,2205,-1,-1
"{'cat': 'RB', 'resp': 'button'}",41,381,Right,67.63160122827291,69.1867530666454,3.3815800614136458,1.0867829757995213,Right,Correct,0.0,0.0,-45,45,795,-1,-1
"{'cat': 'RB', 'resp': 'button'}",41,382,Right,58.60613012768784,79.00340846750325,2.930306506384392,1.2409826382503093,Right,Correct,0.0,0.0,-45,45,797,-1,-1
"{'cat': 'RB', 'resp': 'button'}",41,383,Right,57.17314267952999,48.847148128534705,2.8586571339764992,0.7672892085470853,Right,Correct,0.0,0.0,-45,45,684,-1,-1
"{'cat': 'RB', 'resp': 'button'}",41,384,Left,35.19567435873553,47.48374390386476,1.7597837179367763,0.7458729050666033,Left,Correct,0.0,0.0,-45,45,866,-1,-1
"{'cat': 'RB', 'resp': 'button'}",41,385,Left,45.34880970151942,77.88759168961559,2.267440485075971,1.2234554292894888,Left,Correct,0.0,0.0,-45,45,729,-1,-1
"{'cat': 'RB', 'resp': 'button'}",41,386,Right,64.47447161912686,60.40308377183123,3.223723580956343,0.9488094211587692,Right,Correct,0.0,0.0,-45,45,662,-1,-1
"{'cat': 'RB', 'resp': 'button'}",41,387,Left,44.53894524031672,55.62739924398098,2.2269472620158357,0.8737931440159853,Left,Correct,0.0,0.0,-45,45,748,-1,-1
"{'cat': 'RB', 'resp': 'button'}",41,388,Left,35.15678055201565,37.48144639226246,1.7578390276007823,0.5887571831592571,Left,Correct,0.0,0.0,-45,45,688,-1,-1
"{'cat': 'RB', 'resp': 'button'}",41,389,Right,55.34651363170293,80.66259257409848,2.7673256815851466,1.267045041251472,Left,Incorrect,0.0,0.0,-45,45,737,-1,-1
"{'cat': 'RB', 'resp': 'button'}",41,390,Left,34.2497821689878,36.623428606103154,1.7124891084493898,0.5752794712910198,Left,Correct,0.0,0.0,-45,45,874,-1,-1
"{'cat': 'RB', 'resp': 'button'}",41,391,Left,37.30698361308852,59.70412076818173,1.8653491806544258,0.9378301359717874,Left,Correct,0.0,0.0,-45,45,1387,-1,-1
"{'cat': 'RB', 'resp': 'button'}",41,392,Left,44.10832020621155,33.350656398987,2.2054160103105773,0.5238708856772749,Right,Incorrect,0.0,0.0,-45,45,966,-1,-1
"{'cat': 'RB', 'resp': 'button'}",41,393,Right,52.46379111260105,58.36870029232495,2.6231895556300526,0.9168534001897625,Right,Correct,0.0,0.0,-45,45,899,-1,-1
"{'cat': 'RB', 'resp': 'button'}",41,394,Left,39.95856598199164,21.40892737958179,1.997928299099582,0.33629064488465765,Left,Correct,0.0,0.0,-45,45,1573,-1,-1
"{'cat': 'RB', 'resp': 'button'}",41,395,Left,38.68289165773293,40.028771937725324,1.9341445828866466,0.6287704792588957,Left,Correct,0.0,0.0,-45,45,1181,-1,-1
"{'cat': 'RB', 'resp': 'button'}",41,396,Right,63.64799115078236,47.125791318014976,3.1823995575391177,0.7402501989964075,Right,Correct,0.0,0.0,-45,45,1211,-1,-1
"{'cat': 'RB', 'resp': 'button'}",41,397,Right,61.44380003590759,69.7361750359956,3.0721900017953794,1.0954132759126785,Right,Correct,0.0,0.0,-45,45,1577,-1,-1
"{'cat': 'RB', 'resp': 'button'}",41,398,Left,36.69963379194687,53.86213881175479,1.8349816895973436,0.8460644979882125,Left,Correct,0.0,0.0,-45,45,3488,-1,-1
"{'cat': 'RB', 'resp': 'button'}",41,399,Left,32.233592503181214,44.821212839394484,1.6116796251590608,0.7040499649061311,Left,Correct,0.0,0.0,-45,45,1304,-1,-1
