condition,subject,trial,cat,x,y,xt,yt,resp,fb,rotation,su,target_angle_left,target_angle_right,rt,mt,ep
"{'cat': 'RB', 'resp': 'button'}",45,0,Right,58.22369158667411,27.24516409172224,2.9111845793337054,0.42796603678201506,Right,Correct,0.0,0.0,-45,45,6947,-1,-1
"{'cat': 'RB', 'resp': 'button'}",45,1,Right,63.791890259742175,64.80291225903973,3.1895945129871084,1.0179217654211157,Left,Incorrect,0.0,0.0,-45,45,4507,-1,-1
"{'cat': 'RB', 'resp': 'button'}",45,2,Right,53.917158838691904,79.23870525513303,2.695857941934595,1.244678671547464,Right,Correct,0.0,0.0,-45,45,1981,-1,-1
"{'cat': 'RB', 'resp': 'button'}",45,3,Right,58.82467156751836,69.29491514857408,2.9412335783759183,1.088481981809442,Right,Correct,0.0,0.0,-45,45,1350,-1,-1
"{'cat': 'RB', 'resp': 'button'}",45,4,Right,64.93610694976597,22.931735145256724,3.2468053474882987,0.3602108533320269,Right,Correct,0.0,0.0,-45,45,2667,-1,-1
"{'cat': 'RB', 'resp': 'button'}",45,5,Left,36.76590576312562,48.06454424259314,1.8382952881562813,0.7549960954533611,Right,Incorrect,0.0,0.0,-45,45,1481,-1,-1
"{'cat': 'RB', 'resp': 'button'}",45,6,Right,62.964463810473745,23.37319307190592,3.148223190523687,0.3671452582281775,Left,Incorrect,0.0,0.0,-45,45,3798,-1,-1
"{'cat': 'RB', 'resp': 'button'}",45,7,Right,52.98452438894856,45.8775382896393,2.649226219447428,0.7206426862775762,Left,Incorrect,0.0,0.0,-45,45,3419,-1,-1
"{'cat': 'RB', 'resp': 'button'}",45,8,Left,44.90712031594018,27.3074281792142,2.245356015797009,0.42894407878125107,Right,Incorrect,0.0,0.0,-45,45,1354,-1,-1
"{'cat': 'RB', 'resp': 'button'}",45,9,Left,42.66316797817932,74.13642924207852,2.133158398908966,1.164532307351467,Left,Correct,0.0,0.0,-45,45,4773,-1,-1
"{'cat': 'RB', 'resp': 'button'}",45,10,Right,51.78914398691815,59.012693977470164,2.5894571993459072,0.9269692293408145,Left,Incorrect,0.0,0.0,-45,45,3758,-1,-1
"{'cat': 'RB', 'resp': 'button'}",45,11,Left,43.16337080750733,88.97289612165793,2.1581685403753665,1.3975829841220417,Right,Incorrect,0.0,0.0,-45,45,2399,-1,-1
"{'cat': 'RB', 'resp': 'button'}",45,12,Right,63.06284107192571,58.503762633080655,3.1531420535962855,0.9189749544772362,Right,Correct,0.0,0.0,-45,45,4587,-1,-1
"{'cat': 'RB', 'resp': 'button'}",45,13,Right,59.64995595345118,36.475403732307726,2.982497797672559,0.5729543020106984,Right,Correct,0.0,0.0,-45,45,1688,-1,-1
"{'cat': 'RB', 'resp': 'button'}",45,14,Left,45.91265649086622,52.88124573232395,2.295632824543311,0.8306566655267276,Left,Correct,0.0,0.0,-45,45,3055,-1,-1
"{'cat': 'RB', 'resp': 'button'}",45,15,Right,54.82411509374806,19.293696580155174,2.741205754687403,0.3030646771840301,Right,Correct,0.0,0.0,-45,45,1431,-1,-1
"{'cat': 'RB', 'resp': 'button'}",45,16,Right,55.74844493762356,41.39943133951855,2.787422246881178,0.6503007467951327,Right,Correct,0.0,0.0,-45,45,3415,-1,-1
"{'cat': 'RB', 'resp': 'button'}",45,17,Left,37.786447065163124,58.72032346618785,1.889322353258156,0.9223766840889606,Left,Correct,0.0,0.0,-45,45,9929,-1,-1
"{'cat': 'RB', 'resp': 'button'}",45,18,Left,33.956180438416844,66.38055569405853,1.6978090219208424,1.042703330548312,Left,Correct,0.0,0.0,-45,45,1214,-1,-1
"{'cat': 'RB', 'resp': 'button'}",45,19,Right,65.27237587156192,83.0327291554944,3.263618793578096,1.3042750596120611,Right,Correct,0.0,0.0,-45,45,8174,-1,-1
"{'cat': 'RB', 'resp': 'button'}",45,20,Right,55.424153353894425,32.47601004438057,2.7712076676947213,0.5101319728666718,Right,Correct,0.0,0.0,-45,45,2466,-1,-1
"{'cat': 'RB', 'resp': 'button'}",45,21,Right,52.01125304164946,32.59243547966794,2.600562652082473,0.5119607793276206,Right,Correct,0.0,0.0,-45,45,1292,-1,-1
"{'cat': 'RB', 'resp': 'button'}",45,22,Left,43.29507959770957,49.903583599467446,2.1647539798854782,0.783883658119455,Left,Correct,0.0,0.0,-45,45,2506,-1,-1
"{'cat': 'RB', 'resp': 'button'}",45,23,Left,36.11133397290307,73.24664938360976,1.8055666986451535,1.150555678018079,Left,Correct,0.0,0.0,-45,45,2178,-1,-1
"{'cat': 'RB', 'resp': 'button'}",45,24,Left,42.81333814004102,33.932143291024175,2.140666907002051,0.5330048604181886,Right,Incorrect,0.0,0.0,-45,45,3291,-1,-1
"{'cat': 'RB', 'resp': 'button'}",45,25,Right,57.30127803824585,83.90886587615819,2.865063901912292,1.3180373830379495,Left,Incorrect,0.0,0.0,-45,45,3607,-1,-1
"{'cat': 'RB', 'resp': 'button'}",45,26,Left,48.84124112529828,47.13692558789309,2.442062056264914,0.7404250956986683,Right,Incorrect,0.0,0.0,-45,45,1965,-1,-1
"{'cat': 'RB', 'resp': 'button'}",45,27,Left,45.75790946982982,22.285307254737564,2.287895473491491,0.35005678777237426,Right,Incorrect,0.0,0.0,-45,45,3251,-1,-1
"{'cat': 'RB', 'resp': 'button'}",45,28,Right,54.3620773529985,65.68986365590075,2.7181038676499245,1.0318539653834646,Right,Correct,0.0,0.0,-45,45,1445,-1,-1
"{'cat': 'RB', 'resp': 'button'}",45,29,Left,38.360668930833995,47.36951951011421,1.9180334465416997,0.7440786724852658,Left,Correct,0.0,0.0,-45,45,2723,-1,-1
"{'cat': 'RB', 'resp': 'button'}",45,30,Left,33.4512309835511,69.20058956220608,1.6725615491775552,1.0870003189635455,Left,Correct,0.0,0.0,-45,45,610,-1,-1
"{'cat': 'RB', 'resp': 'button'}",45,31,Left,35.55520567057715,41.841216670838186,1.7777602835288575,0.6572402945518201,Left,Correct,0.0,0.0,-45,45,2231,-1,-1
"{'cat': 'RB', 'resp': 'button'}",45,32,Right,64.68515395550178,21.78921232704572,3.2342576977750888,0.342264146870775,Left,Incorrect,0.0,0.0,-45,45,1191,-1,-1
"{'cat': 'RB', 'resp': 'button'}",45,33,Left,43.69764346795,22.608950341609138,2.1848821733975,0.35514056149287854,Right,Incorrect,0.0,0.0,-45,45,669,-1,-1
"{'cat': 'RB', 'resp': 'button'}",45,34,Right,52.10339911488588,40.36036139763524,2.605169955744294,0.6339790743151997,Right,Correct,0.0,0.0,-45,45,895,-1,-1
"{'cat': 'RB', 'resp': 'button'}",45,35,Right,64.72774706169234,32.171351538194116,3.2363873530846172,0.5053464082422267,Left,Incorrect,0.0,0.0,-45,45,321,-1,-1
"{'cat': 'RB', 'resp': 'button'}",45,36,Right,58.4850966103379,75.93693295818963,2.9242548305168947,1.1928145535879457,Left,Incorrect,0.0,0.0,-45,45,4432,-1,-1
"{'cat': 'RB', 'resp': 'button'}",45,37,Left,41.68799440822934,67.14426420615561,2.0843997204114673,1.0546996358037528,Right,Incorrect,0.0,0.0,-45,45,652,-1,-1
"{'cat': 'RB', 'resp': 'button'}",45,38,Right,54.39635843044557,65.39969370345545,2.7198179215222784,1.0272959864289914,Right,Correct,0.0,0.0,-45,45,523,-1,-1
"{'cat': 'RB', 'resp': 'button'}",45,39,Left,32.25599741541991,41.881230319042075,1.6127998707709958,0.6578688274680236,Left,Correct,0.0,0.0,-45,45,366,-1,-1
"{'cat': 'RB', 'resp': 'button'}",45,40,Left,42.51617726175608,72.55203999818062,2.1258088630878036,1.1396447793061852,Left,Correct,0.0,0.0,-45,45,1365,-1,-1
"{'cat': 'RB', 'resp': 'button'}",45,41,Left,47.14353836227885,40.54133036894188,2.3571769181139426,0.636821728269123,Right,Incorrect,0.0,0.0,-45,45,797,-1,-1
"{'cat': 'RB', 'resp': 'button'}",45,42,Right,53.90342807364214,43.40906111820537,2.6951714036821066,0.6818679375409217,Left,Incorrect,0.0,0.0,-45,45,982,-1,-1
"{'cat': 'RB', 'resp': 'button'}",45,43,Left,47.28151688915157,76.2491826472642,2.3640758444575782,1.1977193602343579,Left,Correct,0.0,0.0,-45,45,1256,-1,-1
"{'cat': 'RB', 'resp': 'button'}",45,44,Left,32.369088918478575,65.64472796561935,1.6184544459239287,1.031144975618451,Right,Incorrect,0.0,0.0,-45,45,441,-1,-1
"{'cat': 'RB', 'resp': 'button'}",45,45,Left,34.29251836739434,40.180672097958436,1.7146259183697168,0.631156521396233,Right,Incorrect,0.0,0.0,-45,45,1719,-1,-1
"{'cat': 'RB', 'resp': 'button'}",45,46,Right,68.23249702062209,46.25624481736535,3.4116248510311045,0.7265913945044298,Right,Correct,0.0,0.0,-45,45,2007,-1,-1
"{'cat': 'RB', 'resp': 'button'}",45,47,Right,56.24641303645668,83.43415913115209,2.812320651822834,1.3105807069243458,Right,Correct,0.0,0.0,-45,45,990,-1,-1
"{'cat': 'RB', 'resp': 'button'}",45,48,Left,35.04483304999054,81.93378454995866,1.7522416524995268,1.2870128781147951,Right,Incorrect,0.0,0.0,-45,45,582,-1,-1
"{'cat': 'RB', 'resp': 'button'}",45,49,Left,41.94254505376716,76.39487974740089,2.097127252688358,1.2000079649315516,Right,Incorrect,0.0,0.0,-45,45,2858,-1,-1
"{'cat': 'RB', 'resp': 'button'}",45,50,Right,62.94509153563048,72.42210446948313,3.147254576781524,1.137603756794204,Right,Correct,0.0,0.0,-45,45,6177,-1,-1
"{'cat': 'RB', 'resp': 'button'}",45,51,Right,51.63327472064054,40.40194005101054,2.581663736032027,0.6346321902751496,Right,Correct,0.0,0.0,-45,45,3421,-1,-1
"{'cat': 'RB', 'resp': 'button'}",45,52,Right,65.62913491740727,75.0872319410108,3.2814567458703636,1.179467481221362,Right,Correct,0.0,0.0,-45,45,1385,-1,-1
"{'cat': 'RB', 'resp': 'button'}",45,53,Right,64.32322859845398,21.20599816328438,3.216161429922699,0.3331030402090642,Right,Correct,0.0,0.0,-45,45,1850,-1,-1
"{'cat': 'RB', 'resp': 'button'}",45,54,Right,55.69561685517516,55.62394173766965,2.784780842758758,0.8737388336338482,Right,Correct,0.0,0.0,-45,45,3478,-1,-1
"{'cat': 'RB', 'resp': 'button'}",45,55,Left,45.87966664972764,62.0208624907893,2.2939833324863823,0.974221429851832,Right,Incorrect,0.0,0.0,-45,45,1451,-1,-1
"{'cat': 'RB', 'resp': 'button'}",45,56,Left,40.61406891929152,46.20747059554121,2.030703445964576,0.7258252508195931,Left,Correct,0.0,0.0,-45,45,6286,-1,-1
"{'cat': 'RB', 'resp': 'button'}",45,57,Right,69.0429479657225,47.694468767142595,3.4521473982861255,0.7491829634786151,Right,Correct,0.0,0.0,-45,45,2798,-1,-1
"{'cat': 'RB', 'resp': 'button'}",45,58,Right,67.03234564640772,33.927173017510974,3.3516172823203862,0.5329267875444116,Right,Correct,0.0,0.0,-45,45,1651,-1,-1
"{'cat': 'RB', 'resp': 'button'}",45,59,Right,52.55122519133389,54.937637381834094,2.6275612595666944,0.8629583900217499,Left,Incorrect,0.0,0.0,-45,45,8136,-1,-1
"{'cat': 'RB', 'resp': 'button'}",45,60,Left,39.7751904279623,53.66425442521043,1.9887595213981148,0.8429561373130732,Left,Correct,0.0,0.0,-45,45,1462,-1,-1
"{'cat': 'RB', 'resp': 'button'}",45,61,Left,43.41899552493084,19.120945445159073,2.170949776246542,0.3003511087010148,Right,Incorrect,0.0,0.0,-45,45,678,-1,-1
"{'cat': 'RB', 'resp': 'button'}",45,62,Left,39.08658720222694,16.950273487875897,1.954329360111347,0.2662542733292438,Left,Correct,0.0,0.0,-45,45,1412,-1,-1
"{'cat': 'RB', 'resp': 'button'}",45,63,Right,67.07669702407777,55.0764639137167,3.3538348512038887,0.8651390720851787,107,Incorrect,0.0,0.0,-45,45,682,-1,-1
"{'cat': 'RB', 'resp': 'button'}",45,64,Right,61.07779298296606,22.506975527479977,3.053889649148303,0.35353874485828174,Right,Correct,0.0,0.0,-45,45,1790,-1,-1
"{'cat': 'RB', 'resp': 'button'}",45,65,Left,39.536967098819176,70.53112544628351,1.9768483549409586,1.1079003277573218,Left,Correct,0.0,0.0,-45,45,1586,-1,-1
"{'cat': 'RB', 'resp': 'button'}",45,66,Left,34.229577528294406,37.1050026886628,1.7114788764147204,0.582844019290663,Left,Correct,0.0,0.0,-45,45,2069,-1,-1
"{'cat': 'RB', 'resp': 'button'}",45,67,Right,59.20767581516273,41.74118126022867,2.960383790758136,0.6556689419964716,Right,Correct,0.0,0.0,-45,45,1175,-1,-1
"{'cat': 'RB', 'resp': 'button'}",45,68,Left,42.82368303369271,60.00545755304212,2.1411841516846355,0.9425635231196564,Right,Incorrect,0.0,0.0,-45,45,988,-1,-1
"{'cat': 'RB', 'resp': 'button'}",45,69,Right,59.45313657652613,82.86664524695902,2.9726568288263064,1.30166621967739,Left,Incorrect,0.0,0.0,-45,45,3553,-1,-1
"{'cat': 'RB', 'resp': 'button'}",45,70,Left,36.62495707551352,28.82580059449764,1.831247853775676,0.4527946169075904,Right,Incorrect,0.0,0.0,-45,45,901,-1,-1
"{'cat': 'RB', 'resp': 'button'}",45,71,Right,56.976181289827984,25.553124883614664,2.848809064491399,0.40138754705313184,Right,Correct,0.0,0.0,-45,45,392,-1,-1
"{'cat': 'RB', 'resp': 'button'}",45,72,Right,56.490709282253185,36.08055742481759,2.824535464112659,0.5667520707161581,107,Incorrect,0.0,0.0,-45,45,341,-1,-1
"{'cat': 'RB', 'resp': 'button'}",45,73,Left,45.865463421321486,39.584504556324234,2.2932731710660743,0.6217919435506996,Left,Correct,0.0,0.0,-45,45,2034,-1,-1
"{'cat': 'RB', 'resp': 'button'}",45,74,Right,64.48682287684449,32.421439138009795,3.2243411438422243,0.5092747750739008,Right,Correct,0.0,0.0,-45,45,1857,-1,-1
"{'cat': 'RB', 'resp': 'button'}",45,75,Right,68.55018477812733,42.36791708216485,3.427509238906367,0.665513685266153,Left,Incorrect,0.0,0.0,-45,45,1452,-1,-1
"{'cat': 'RB', 'resp': 'button'}",45,76,Left,40.327292861410854,32.842074855458435,2.016364643070543,0.5158821054727715,Right,Incorrect,0.0,0.0,-45,45,3765,-1,-1
"{'cat': 'RB', 'resp': 'button'}",45,77,Left,35.10696000439272,54.133804469962385,1.7553480002196358,0.8503318121685006,Left,Correct,0.0,0.0,-45,45,2050,-1,-1
"{'cat': 'RB', 'resp': 'button'}",45,78,Right,59.839412759341585,33.3002085294996,2.9919706379670794,0.5230784523964205,Right,Correct,0.0,0.0,-45,45,1637,-1,-1
"{'cat': 'RB', 'resp': 'button'}",45,79,Left,32.973997546158145,65.66726329400349,1.6486998773079073,1.0314989597289401,Left,Correct,0.0,0.0,-45,45,1027,-1,-1
"{'cat': 'RB', 'resp': 'button'}",45,80,Right,65.77848186450763,51.88043022372965,3.2889240932253814,0.8149358922797346,Right,Correct,0.0,0.0,-45,45,1198,-1,-1
"{'cat': 'RB', 'resp': 'button'}",45,81,Right,60.09809215950945,19.983357131199792,3.0049046079754724,0.3138978397871924,Right,Correct,0.0,0.0,-45,45,1113,-1,-1
"{'cat': 'RB', 'resp': 'button'}",45,82,Left,38.256527216141336,49.844159681856496,1.9128263608070668,0.7829502294043847,Left,Correct,0.0,0.0,-45,45,1629,-1,-1
"{'cat': 'RB', 'resp': 'button'}",45,83,Right,57.18992943995133,27.076992585577397,2.859496471997567,0.4253244049407763,Right,Correct,0.0,0.0,-45,45,846,-1,-1
"{'cat': 'RB', 'resp': 'button'}",45,84,Left,44.191179096802905,54.582313623304415,2.209558954840145,0.8573769774745361,Right,Incorrect,0.0,0.0,-45,45,1375,-1,-1
"{'cat': 'RB', 'resp': 'button'}",45,85,Right,57.409778817676845,22.719987465203346,2.870488940883842,0.3568847285516751,Right,Correct,0.0,0.0,-45,45,913,-1,-1
"{'cat': 'RB', 'resp': 'button'}",45,86,Right,59.03166458681725,39.37256699002524,2.9515832293408626,0.6184628360441764,Right,Correct,0.0,0.0,-45,45,1447,-1,-1
"{'cat': 'RB', 'resp': 'button'}",45,87,Left,38.976595129516845,31.723336944339525,1.9488297564758423,0.4983090114584537,Left,Correct,0.0,0.0,-45,45,977,-1,-1
"{'cat': 'RB', 'resp': 'button'}",45,88,Right,66.6497612966131,73.23138378384573,3.3324880648306543,1.1503158865377223,Right,Correct,0.0,0.0,-45,45,851,-1,-1
"{'cat': 'RB', 'resp': 'button'}",45,89,Right,55.71973817801364,58.08612723852636,2.785986908900682,0.9124147530401818,Right,Correct,0.0,0.0,-45,45,1118,-1,-1
"{'cat': 'RB', 'resp': 'button'}",45,90,Left,33.05629959739986,27.720875188376215,1.652814979869993,0.4354384892144114,Left,Correct,0.0,0.0,-45,45,736,-1,-1
"{'cat': 'RB', 'resp': 'button'}",45,91,Left,42.77555137251917,64.5439935349822,2.1387775686259585,1.013854679614236,Left,Correct,0.0,0.0,-45,45,1890,-1,-1
"{'cat': 'RB', 'resp': 'button'}",45,92,Right,60.2821670575442,89.14334348668575,3.01410835287721,1.4002603650710175,Right,Correct,0.0,0.0,-45,45,999,-1,-1
"{'cat': 'RB', 'resp': 'button'}",45,93,Right,56.49307521966908,32.92428977510771,2.824653760983454,0.5171735344106996,Right,Correct,0.0,0.0,-45,45,775,-1,-1
"{'cat': 'RB', 'resp': 'button'}",45,94,Right,63.35305581003542,62.95965156470294,3.167652790501771,0.9889678941412193,Right,Correct,0.0,0.0,-45,45,603,-1,-1
"{'cat': 'RB', 'resp': 'button'}",45,95,Right,66.89460637304747,51.406226701947794,3.344730318652373,0.8074871207780534,Right,Correct,0.0,0.0,-45,45,666,-1,-1
"{'cat': 'RB', 'resp': 'button'}",45,96,Right,62.52974638565654,68.5479902572996,3.126487319282827,1.0767493130533856,Right,Correct,0.0,0.0,-45,45,647,-1,-1
"{'cat': 'RB', 'resp': 'button'}",45,97,Left,36.68390007714525,23.01552416625355,1.8341950038572628,0.3615270081961025,Left,Correct,0.0,0.0,-45,45,781,-1,-1
"{'cat': 'RB', 'resp': 'button'}",45,98,Left,38.13695841096428,68.30367429966346,1.906847920548214,1.0729116069650633,Left,Correct,0.0,0.0,-45,45,1026,-1,-1
"{'cat': 'RB', 'resp': 'button'}",45,99,Left,36.852701083437644,60.83313873401565,1.8426350541718821,0.9555647087079613,Left,Correct,0.0,0.0,-45,45,1900,-1,-1
"{'cat': 'RB', 'resp': 'button'}",45,100,Right,66.36295094018617,57.6935870792327,3.3181475470093087,0.9062487466368023,Right,Correct,0.0,0.0,-45,45,487,-1,-1
"{'cat': 'RB', 'resp': 'button'}",45,101,Right,63.47921595154815,60.71254769716296,3.1739607975774073,0.9536704691306354,Right,Correct,0.0,0.0,-45,45,1290,-1,-1
"{'cat': 'RB', 'resp': 'button'}",45,102,Right,66.33231370881782,56.257572117303994,3.3166156854408912,0.883691876362601,Right,Correct,0.0,0.0,-45,45,3096,-1,-1
"{'cat': 'RB', 'resp': 'button'}",45,103,Left,42.30188810596134,17.84157229650028,2.1150944052980667,0.2802547622758823,Left,Correct,0.0,0.0,-45,45,833,-1,-1
"{'cat': 'RB', 'resp': 'button'}",45,104,Right,59.171545657450785,89.39933671032234,2.958577282872539,1.404281497224745,Right,Correct,0.0,0.0,-45,45,1151,-1,-1
"{'cat': 'RB', 'resp': 'button'}",45,105,Left,41.61747741577453,83.29766727362667,2.080873870788727,1.3084366978399624,Left,Correct,0.0,0.0,-45,45,804,-1,-1
"{'cat': 'RB', 'resp': 'button'}",45,106,Left,33.43911770445788,39.63329132112495,1.671955885222894,0.6225582842601513,Left,Correct,0.0,0.0,-45,45,831,-1,-1
"{'cat': 'RB', 'resp': 'button'}",45,107,Left,39.45300612337359,58.25896447995197,1.9726503061686795,0.915129674079829,Left,Correct,0.0,0.0,-45,45,782,-1,-1
"{'cat': 'RB', 'resp': 'button'}",45,108,Right,61.54906452141512,24.1715619801229,3.077453226070756,0.3796860077127222,Right,Correct,0.0,0.0,-45,45,454,-1,-1
"{'cat': 'RB', 'resp': 'button'}",45,109,Right,64.53769319395673,82.52766832135936,3.2268846596978364,1.2963415825813882,Right,Correct,0.0,0.0,-45,45,632,-1,-1
"{'cat': 'RB', 'resp': 'button'}",45,110,Left,46.966022954145345,46.60259036411691,2.348301147707267,0.7320317776308207,Left,Correct,0.0,0.0,-45,45,1574,-1,-1
"{'cat': 'RB', 'resp': 'button'}",45,111,Left,36.798927225597375,12.13432795269238,1.8399463612798685,0.1906055777621383,Left,Correct,0.0,0.0,-45,45,693,-1,-1
"{'cat': 'RB', 'resp': 'button'}",45,112,Left,40.23180850677621,46.84031701087755,2.011590425338811,0.7357659790659496,Left,Correct,0.0,0.0,-45,45,483,-1,-1
"{'cat': 'RB', 'resp': 'button'}",45,113,Right,67.06797868526647,24.58037336336026,3.353398934263323,0.3861076019041342,Right,Correct,0.0,0.0,-45,45,546,-1,-1
"{'cat': 'RB', 'resp': 'button'}",45,114,Right,62.04716487032516,87.0668764552336,3.102358243516258,1.36764329721386,Right,Correct,0.0,0.0,-45,45,932,-1,-1
"{'cat': 'RB', 'resp': 'button'}",45,115,Left,37.57035699039477,37.17698812381001,1.8785178495197385,0.5839747638617826,Left,Correct,0.0,0.0,-45,45,720,-1,-1
"{'cat': 'RB', 'resp': 'button'}",45,116,Right,58.10721223509299,51.19927459261077,2.9053606117546495,0.8042363246463627,107,Correct,0.0,0.0,-45,45,1453,-1,-1
"{'cat': 'RB', 'resp': 'button'}",45,117,Left,42.36895871765684,41.3412164314001,2.1184479358828416,0.6493863091567609,Left,Correct,0.0,0.0,-45,45,976,-1,-1
"{'cat': 'RB', 'resp': 'button'}",45,118,Right,64.401451005537,68.68451520119812,3.22007255027685,1.0788938418573024,Right,Correct,0.0,0.0,-45,45,516,-1,-1
"{'cat': 'RB', 'resp': 'button'}",45,119,Right,51.81255444168564,60.43097852825561,2.590627722084282,0.9492475909680519,Left,Incorrect,0.0,0.0,-45,45,1292,-1,-1
"{'cat': 'RB', 'resp': 'button'}",45,120,Right,50.750301231909624,44.49321466599204,2.537515061595481,0.6988977816463713,Left,Incorrect,0.0,0.0,-45,45,1361,-1,-1
"{'cat': 'RB', 'resp': 'button'}",45,121,Right,67.96356237896131,62.594113616025794,3.3981781189480658,0.9832260374703575,Right,Correct,0.0,0.0,-45,45,580,-1,-1
"{'cat': 'RB', 'resp': 'button'}",45,122,Left,41.876084310365364,80.75886321920339,2.093804215518268,1.2685572570085617,100,Incorrect,0.0,0.0,-45,45,609,-1,-1
"{'cat': 'RB', 'resp': 'button'}",45,123,Left,32.301017389748424,26.303297258305367,1.6150508694874213,0.41317122715940346,Left,Correct,0.0,0.0,-45,45,727,-1,-1
"{'cat': 'RB', 'resp': 'button'}",45,124,Left,41.733366823307016,63.21078165143707,2.086668341165351,0.9929126363191159,Left,Correct,0.0,0.0,-45,45,935,-1,-1
"{'cat': 'RB', 'resp': 'button'}",45,125,Right,53.22108327684477,74.72989361382866,2.661054163842239,1.173854423903755,Right,Correct,0.0,0.0,-45,45,845,-1,-1
"{'cat': 'RB', 'resp': 'button'}",45,126,Right,59.94482907978691,9.231155628336218,2.997241453989346,0.14500265353062566,Right,Correct,0.0,0.0,-45,45,905,-1,-1
"{'cat': 'RB', 'resp': 'button'}",45,127,Left,41.75900785313607,13.753181248842715,2.0879503926568033,0.21603446587426586,Left,Correct,0.0,0.0,-45,45,2890,-1,-1
"{'cat': 'RB', 'resp': 'button'}",45,128,Left,35.21279352628481,48.51663172125499,1.7606396763142407,0.7620974689620811,Left,Correct,0.0,0.0,-45,45,1353,-1,-1
"{'cat': 'RB', 'resp': 'button'}",45,129,Left,32.75894217456796,45.892877156244275,1.637947108728398,0.7208836286307793,Left,Correct,0.0,0.0,-45,45,563,-1,-1
"{'cat': 'RB', 'resp': 'button'}",45,130,Right,57.425562030241416,88.99928034002014,2.871278101512071,1.3979974264549286,Right,Correct,0.0,0.0,-45,45,2705,-1,-1
"{'cat': 'RB', 'resp': 'button'}",45,131,Left,42.35107278773657,74.74384680998452,2.1175536393868284,1.1740736001964411,Left,Correct,0.0,0.0,-45,45,707,-1,-1
"{'cat': 'RB', 'resp': 'button'}",45,132,Right,52.02760433330436,66.57334021485852,2.601380216665218,1.0457315827196672,Right,Correct,0.0,0.0,-45,45,537,-1,-1
"{'cat': 'RB', 'resp': 'button'}",45,133,Left,34.40759482456019,37.01973943830776,1.7203797412280095,0.58150470728598,Left,Correct,0.0,0.0,-45,45,938,-1,-1
"{'cat': 'RB', 'resp': 'button'}",45,134,Right,55.96260700846779,51.50197815696389,2.79813035042339,0.8089911811162985,Right,Correct,0.0,0.0,-45,45,627,-1,-1
"{'cat': 'RB', 'resp': 'button'}",45,135,Right,51.508307940416174,59.07628117457158,2.5754153970208087,0.9279680546971952,Right,Correct,0.0,0.0,-45,45,746,-1,-1
"{'cat': 'RB', 'resp': 'button'}",45,136,Left,37.208020492140115,77.6867171804092,1.8604010246070057,1.2203000998774076,Left,Correct,0.0,0.0,-45,45,643,-1,-1
"{'cat': 'RB', 'resp': 'button'}",45,137,Left,39.216080527968266,43.50059005152657,1.9608040263984134,0.6833056706634856,Right,Incorrect,0.0,0.0,-45,45,918,-1,-1
"{'cat': 'RB', 'resp': 'button'}",45,138,Right,60.19405628615042,69.00649530433986,3.009702814307521,1.0839514934904635,Right,Correct,0.0,0.0,-45,45,618,-1,-1
"{'cat': 'RB', 'resp': 'button'}",45,139,Right,65.81125537208948,64.33198606848497,3.290562768604474,1.0105244741179664,Right,Correct,0.0,0.0,-45,45,525,-1,-1
"{'cat': 'RB', 'resp': 'button'}",45,140,Left,44.65279863630875,22.273705209827718,2.2326399318154375,0.34987454327709727,Left,Correct,0.0,0.0,-45,45,3468,-1,-1
"{'cat': 'RB', 'resp': 'button'}",45,141,Right,62.86917453107397,68.68858256231503,3.143458726553699,1.0789577318163244,Right,Correct,0.0,0.0,-45,45,485,-1,-1
"{'cat': 'RB', 'resp': 'button'}",45,142,Right,57.73344058211774,66.88522193559083,2.886672029105887,1.0506306093328752,Right,Correct,0.0,0.0,-45,45,483,-1,-1
"{'cat': 'RB', 'resp': 'button'}",45,143,Left,43.87969117991584,37.31170120734174,2.193984558995792,0.5860908320296111,Left,Correct,0.0,0.0,-45,45,2044,-1,-1
"{'cat': 'RB', 'resp': 'button'}",45,144,Right,69.31162431245265,49.6390988351499,3.4655812156226324,0.7797291411566228,Right,Correct,0.0,0.0,-45,45,536,-1,-1
"{'cat': 'RB', 'resp': 'button'}",45,145,Left,41.17501587537494,61.79479685224395,2.0587507937687466,0.9706703991054163,Left,Correct,0.0,0.0,-45,45,1164,-1,-1
"{'cat': 'RB', 'resp': 'button'}",45,146,Right,61.52459831757759,77.92075058004313,3.0762299158788795,1.2239762879223306,Right,Correct,0.0,0.0,-45,45,723,-1,-1
"{'cat': 'RB', 'resp': 'button'}",45,147,Right,53.009396259995455,59.374446288866366,2.650469812999773,0.9326516213603218,Right,Correct,0.0,0.0,-45,45,984,-1,-1
"{'cat': 'RB', 'resp': 'button'}",45,148,Right,56.45551814493087,31.647057473839276,2.8227759072465437,0.4971108163377371,Right,Correct,0.0,0.0,-45,45,758,-1,-1
"{'cat': 'RB', 'resp': 'button'}",45,149,Left,41.1108015034669,83.39775472238117,2.0555400751733455,1.3100088678085808,Left,Correct,0.0,0.0,-45,45,795,-1,-1
"{'cat': 'RB', 'resp': 'button'}",45,150,Right,53.395959146213436,77.13105117003903,2.6697979573106716,1.2115717185972652,Right,Correct,0.0,0.0,-45,45,659,-1,-1
"{'cat': 'RB', 'resp': 'button'}",45,151,Left,42.195210418308484,51.31547999694724,2.109760520915424,0.8060616748692171,Left,Correct,0.0,0.0,-45,45,1142,-1,-1
"{'cat': 'RB', 'resp': 'button'}",45,152,Right,59.95691153593554,13.658338180427904,2.997845576796777,0.21454467443938643,Right,Correct,0.0,0.0,-45,45,812,-1,-1
"{'cat': 'RB', 'resp': 'button'}",45,153,Left,36.7002965466376,29.4360065130538,1.8350148273318803,0.46237970906215564,Left,Correct,0.0,0.0,-45,45,1066,-1,-1
"{'cat': 'RB', 'resp': 'button'}",45,154,Right,68.37764611181052,55.88288713129272,3.418882305590526,0.877806338365284,Right,Correct,0.0,0.0,-45,45,964,-1,-1
"{'cat': 'RB', 'resp': 'button'}",45,155,Left,39.54222966253423,35.729317443623216,1.9771114831267116,0.5612348059933218,Left,Correct,0.0,0.0,-45,45,923,-1,-1
"{'cat': 'RB', 'resp': 'button'}",45,156,Left,38.81101040443326,75.7302532861017,1.940550520221663,1.1895680368905568,Left,Correct,0.0,0.0,-45,45,765,-1,-1
"{'cat': 'RB', 'resp': 'button'}",45,157,Right,58.937777790715465,65.66806489379728,2.946888889535773,1.0315115512290567,Right,Correct,0.0,0.0,-45,45,588,-1,-1
"{'cat': 'RB', 'resp': 'button'}",45,158,Right,58.182014977860064,77.65396017563852,2.9091007488930027,1.2197855540497018,Right,Correct,0.0,0.0,-45,45,658,-1,-1
"{'cat': 'RB', 'resp': 'button'}",45,159,Right,66.6522067760104,25.724470914292194,3.3326103388005204,0.4040790442091234,Right,Correct,0.0,0.0,-45,45,1148,-1,-1
"{'cat': 'RB', 'resp': 'button'}",45,160,Left,33.961441350102234,77.44920151949879,1.6980720675051117,1.2165692126002643,Left,Correct,0.0,0.0,-45,45,1490,-1,-1
"{'cat': 'RB', 'resp': 'button'}",45,161,Right,62.18403018526898,69.9798538897193,3.109201509263449,1.0992409743961462,Right,Correct,0.0,0.0,-45,45,517,-1,-1
"{'cat': 'RB', 'resp': 'button'}",45,162,Left,38.47392981116804,57.48236517650315,1.923696490558402,0.9029308807473402,Left,Correct,0.0,0.0,-45,45,651,-1,-1
"{'cat': 'RB', 'resp': 'button'}",45,163,Left,35.98923093384325,64.32057256683994,1.7994615466921626,1.0103451912533676,Left,Correct,0.0,0.0,-45,45,1215,-1,-1
"{'cat': 'RB', 'resp': 'button'}",45,164,Right,57.97395739630127,67.23599343876528,2.898697869815064,1.0561405152201826,Right,Correct,0.0,0.0,-45,45,809,-1,-1
"{'cat': 'RB', 'resp': 'button'}",45,165,Right,59.64795771973084,19.79368496977808,2.9823978859865417,0.3109184764426276,Right,Correct,0.0,0.0,-45,45,1184,-1,-1
"{'cat': 'RB', 'resp': 'button'}",45,166,Left,38.53776799530295,51.57505893895485,1.9268883997651474,0.8101391313554056,Left,Correct,0.0,0.0,-45,45,2535,-1,-1
"{'cat': 'RB', 'resp': 'button'}",45,167,Left,35.748567383036786,78.9035741094346,1.7874283691518393,1.2394144438208876,Left,Correct,0.0,0.0,-45,45,734,-1,-1
"{'cat': 'RB', 'resp': 'button'}",45,168,Left,47.180243037385736,41.08790255368001,2.359012151869287,0.645407264070272,Right,Incorrect,0.0,0.0,-45,45,2483,-1,-1
"{'cat': 'RB', 'resp': 'button'}",45,169,Left,35.146157093545376,71.54773974057852,1.757307854677269,1.1238692677497797,Left,Correct,0.0,0.0,-45,45,628,-1,-1
"{'cat': 'RB', 'resp': 'button'}",45,170,Right,60.812905319491726,26.029888347717478,3.040645265974586,0.4088765300347589,Right,Correct,0.0,0.0,-45,45,658,-1,-1
"{'cat': 'RB', 'resp': 'button'}",45,171,Left,43.44833080435941,85.5025893590593,2.1724165402179705,1.3430715329666276,Left,Correct,0.0,0.0,-45,45,861,-1,-1
"{'cat': 'RB', 'resp': 'button'}",45,172,Left,44.29705988776249,34.26801491204011,2.2148529943881243,0.5382807195038535,Right,Incorrect,0.0,0.0,-45,45,1061,-1,-1
"{'cat': 'RB', 'resp': 'button'}",45,173,Right,55.247248068562165,58.96187756299746,2.7623624034281082,0.9261710069688683,Right,Correct,0.0,0.0,-45,45,494,-1,-1
"{'cat': 'RB', 'resp': 'button'}",45,174,Left,35.894295487366605,85.56221550847172,1.7947147743683303,1.3440081383314073,Left,Correct,0.0,0.0,-45,45,673,-1,-1
"{'cat': 'RB', 'resp': 'button'}",45,175,Left,33.013423894786044,53.31675212640441,1.6506711947393022,0.8374975839679004,Left,Correct,0.0,0.0,-45,45,755,-1,-1
"{'cat': 'RB', 'resp': 'button'}",45,176,Right,66.33174005260938,59.69023281727469,3.3165870026304685,0.9376119845490728,Right,Correct,0.0,0.0,-45,45,891,-1,-1
"{'cat': 'RB', 'resp': 'button'}",45,177,Right,52.60330711159202,41.99180999018608,2.6301653555796007,0.6596058088805353,Right,Correct,0.0,0.0,-45,45,690,-1,-1
"{'cat': 'RB', 'resp': 'button'}",45,178,Right,60.9675114514082,9.067467991234594,3.04837557257041,0.142431454139616,Right,Correct,0.0,0.0,-45,45,552,-1,-1
"{'cat': 'RB', 'resp': 'button'}",45,179,Right,56.99200413662095,48.54508872361295,2.8496002068310475,0.7625444705098356,Right,Correct,0.0,0.0,-45,45,685,-1,-1
"{'cat': 'RB', 'resp': 'button'}",45,180,Right,62.15307953120245,67.12465792137603,3.107653976560123,1.0543916610026143,Right,Correct,0.0,0.0,-45,45,436,-1,-1
"{'cat': 'RB', 'resp': 'button'}",45,181,Left,35.666729306982205,53.46802202813524,1.7833364653491102,0.8398737260278344,Left,Correct,0.0,0.0,-45,45,599,-1,-1
"{'cat': 'RB', 'resp': 'button'}",45,182,Left,48.12364902159249,55.04578683545838,2.4061824510796246,0.8646571976667289,Right,Incorrect,0.0,0.0,-45,45,964,-1,-1
"{'cat': 'RB', 'resp': 'button'}",45,183,Right,59.77044349813749,58.236876173269295,2.9885221749068744,0.9147827117698063,Left,Incorrect,0.0,0.0,-45,45,374,-1,-1
"{'cat': 'RB', 'resp': 'button'}",45,184,Right,57.10427255341727,85.34107853043159,2.8552136276708633,1.3405345268031672,Right,Correct,0.0,0.0,-45,45,828,-1,-1
"{'cat': 'RB', 'resp': 'button'}",45,185,Left,44.16552578275041,14.310937939237753,2.2082762891375207,0.2247956874794439,Left,Correct,0.0,0.0,-45,45,809,-1,-1
"{'cat': 'RB', 'resp': 'button'}",45,186,Left,38.40261971079669,30.22432693787401,1.9201309855398347,0.4747626173386054,Left,Correct,0.0,0.0,-45,45,711,-1,-1
"{'cat': 'RB', 'resp': 'button'}",45,187,Right,58.30320095740785,28.679370198238402,2.9151600478703927,0.45049449362183913,Right,Correct,0.0,0.0,-45,45,707,-1,-1
"{'cat': 'RB', 'resp': 'button'}",45,188,Right,53.3398453949405,50.961359169811836,2.6669922697470247,0.8004991579241586,Left,Incorrect,0.0,0.0,-45,45,1236,-1,-1
"{'cat': 'RB', 'resp': 'button'}",45,189,Right,65.06528716169298,18.944704639711507,3.253264358084649,0.2975827246027307,Right,Correct,0.0,0.0,-45,45,573,-1,-1
"{'cat': 'RB', 'resp': 'button'}",45,190,Right,58.58408059531579,39.258831905161685,2.9292040297657893,0.6166762895088627,Right,Correct,0.0,0.0,-45,45,725,-1,-1
"{'cat': 'RB', 'resp': 'button'}",45,191,Left,40.93547587250138,63.28721900539951,2.0467737936250687,0.9941133114674571,Left,Correct,0.0,0.0,-45,45,572,-1,-1
"{'cat': 'RB', 'resp': 'button'}",45,192,Right,61.67914173317662,46.33529845767503,3.083957086658831,0.7278331661826117,Right,Correct,0.0,0.0,-45,45,644,-1,-1
"{'cat': 'RB', 'resp': 'button'}",45,193,Left,41.798856882805296,11.822711645622732,2.089942844140265,0.18571072025699434,Left,Correct,0.0,0.0,-45,45,894,-1,-1
"{'cat': 'RB', 'resp': 'button'}",45,194,Right,61.242578794100154,59.01695454714222,3.0621289397050075,0.9270361542127237,Right,Correct,0.0,0.0,-45,45,541,-1,-1
"{'cat': 'RB', 'resp': 'button'}",45,195,Left,39.04933222022548,78.01738027621391,1.952466611011274,1.2254941436403741,Left,Correct,0.0,0.0,-45,45,575,-1,-1
"{'cat': 'RB', 'resp': 'button'}",45,196,Right,62.21333113387697,17.226872819690037,3.1106665566938485,0.2705990854733195,Right,Correct,0.0,0.0,-45,45,473,-1,-1
"{'cat': 'RB', 'resp': 'button'}",45,197,Left,42.96280481342697,16.07454876057369,2.1481402406713483,0.2524984214799461,Left,Correct,0.0,0.0,-45,45,786,-1,-1
"{'cat': 'RB', 'resp': 'button'}",45,198,Left,41.5092207491169,90.4751841260987,2.075461037455845,1.4211808689136776,Left,Correct,0.0,0.0,-45,45,500,-1,-1
"{'cat': 'RB', 'resp': 'button'}",45,199,Left,38.64421041825229,87.97296324013084,1.9322105209126148,1.3818760751486,Left,Correct,0.0,0.0,-45,45,514,-1,-1
"{'cat': 'RB', 'resp': 'button'}",45,200,Right,56.89917385477361,64.54034638921779,2.8449586927386803,1.0137973903825357,Right,Correct,0.0,0.0,-45,45,549,-1,-1
"{'cat': 'RB', 'resp': 'button'}",45,201,Left,34.61346599344856,50.82465956351114,1.730673299672428,0.7983518855296441,Left,Correct,0.0,0.0,-45,45,604,-1,-1
"{'cat': 'RB', 'resp': 'button'}",45,202,Right,55.8817219710103,43.932449739881754,2.794086098550515,0.6900893067850766,Right,Correct,0.0,0.0,-45,45,835,-1,-1
"{'cat': 'RB', 'resp': 'button'}",45,203,Left,35.15105714708837,42.19080116663847,1.7575528573544188,0.6627315549708955,Left,Correct,0.0,0.0,-45,45,721,-1,-1
"{'cat': 'RB', 'resp': 'button'}",45,204,Left,39.540840108116626,19.015994290628864,1.9770420054058315,0.2987025398207254,Left,Correct,0.0,0.0,-45,45,754,-1,-1
"{'cat': 'RB', 'resp': 'button'}",45,205,Right,60.402250015559,30.26978668517711,3.02011250077795,0.4754766973794127,Right,Correct,0.0,0.0,-45,45,614,-1,-1
"{'cat': 'RB', 'resp': 'button'}",45,206,Left,38.589858058198104,45.21876769558849,1.9294929029099053,0.7102947419842213,Left,Correct,0.0,0.0,-45,45,720,-1,-1
"{'cat': 'RB', 'resp': 'button'}",45,207,Right,62.539911276634726,72.57050932537797,3.126995563831736,1.139934894819385,Right,Correct,0.0,0.0,-45,45,571,-1,-1
"{'cat': 'RB', 'resp': 'button'}",45,208,Right,62.7293062312596,50.28590781622862,3.13646531156298,0.7898891928727869,Right,Correct,0.0,0.0,-45,45,820,-1,-1
"{'cat': 'RB', 'resp': 'button'}",45,209,Left,46.33773440370305,76.65367071666884,2.3168867201851526,1.2040730439708895,Left,Correct,0.0,0.0,-45,45,607,-1,-1
"{'cat': 'RB', 'resp': 'button'}",45,210,Left,37.29269116134623,77.15056062524317,1.8646345580673114,1.2118781724029892,Left,Correct,0.0,0.0,-45,45,655,-1,-1
"{'cat': 'RB', 'resp': 'button'}",45,211,Right,64.7202784240605,29.566425951400518,3.236013921203025,0.46442833280913237,Right,Correct,0.0,0.0,-45,45,557,-1,-1
"{'cat': 'RB', 'resp': 'button'}",45,212,Left,41.38833068470617,17.49378419259905,2.0694165342353084,0.27479171951477216,Left,Correct,0.0,0.0,-45,45,639,-1,-1
"{'cat': 'RB', 'resp': 'button'}",45,213,Left,48.70151458446833,65.19622423646483,2.435075729223416,1.0240998955153537,Left,Correct,0.0,0.0,-45,45,1569,-1,-1
"{'cat': 'RB', 'resp': 'button'}",45,214,Right,62.636013454741274,36.71842866808133,3.1318006727370635,0.5767717287750258,Right,Correct,0.0,0.0,-45,45,559,-1,-1
"{'cat': 'RB', 'resp': 'button'}",45,215,Left,37.21523395271425,86.51521972698015,1.8607616976357124,1.3589778935899377,Left,Correct,0.0,0.0,-45,45,642,-1,-1
"{'cat': 'RB', 'resp': 'button'}",45,216,Left,48.12517907411112,39.922617698851724,2.4062589537055556,0.6271030123739321,Right,Incorrect,0.0,0.0,-45,45,2262,-1,-1
"{'cat': 'RB', 'resp': 'button'}",45,217,Right,63.0008663803206,18.468040354132693,3.1500433190160297,0.29009529951371554,Right,Correct,0.0,0.0,-45,45,706,-1,-1
"{'cat': 'RB', 'resp': 'button'}",45,218,Right,51.67310288188601,59.56617195923282,2.5836551440943003,0.9356632411479607,Right,Correct,0.0,0.0,-45,45,678,-1,-1
"{'cat': 'RB', 'resp': 'button'}",45,219,Right,65.36666579872696,50.701026955460584,3.268333289936348,0.7964098690636653,Right,Correct,0.0,0.0,-45,45,473,-1,-1
"{'cat': 'RB', 'resp': 'button'}",45,220,Right,53.77435698053616,50.21937237347663,2.688717849026808,0.7888440565820222,Right,Correct,0.0,0.0,-45,45,1024,-1,-1
"{'cat': 'RB', 'resp': 'button'}",45,221,Left,47.697383551658696,37.04970210897412,2.3848691775829347,0.5819753598162168,Right,Incorrect,0.0,0.0,-45,45,645,-1,-1
"{'cat': 'RB', 'resp': 'button'}",45,222,Left,46.66382170407147,26.33526334533959,2.3331910852035733,0.4136733492803571,Left,Correct,0.0,0.0,-45,45,972,-1,-1
"{'cat': 'RB', 'resp': 'button'}",45,223,Left,40.318731310214915,36.541499423794036,2.0159365655107457,0.573992530704735,Left,Correct,0.0,0.0,-45,45,504,-1,-1
"{'cat': 'RB', 'resp': 'button'}",45,224,Right,52.91564141862704,67.44102190804765,2.645782070931352,1.059361094884554,Right,Correct,0.0,0.0,-45,45,652,-1,-1
"{'cat': 'RB', 'resp': 'button'}",45,225,Right,55.04843884962561,84.38235830710705,2.7524219424812806,1.325474984750946,Right,Correct,0.0,0.0,-45,45,504,-1,-1
"{'cat': 'RB', 'resp': 'button'}",45,226,Left,41.81817698633678,18.867858794409354,2.090908849316839,0.29637563288742996,Left,Correct,0.0,0.0,-45,45,842,-1,-1
"{'cat': 'RB', 'resp': 'button'}",45,227,Right,66.33912877611618,76.25942965590504,3.3169564388058093,1.1978803198696941,Right,Correct,0.0,0.0,-45,45,711,-1,-1
"{'cat': 'RB', 'resp': 'button'}",45,228,Left,41.04555596968016,66.4685048986912,2.052277798484008,1.044084833424127,Left,Correct,0.0,0.0,-45,45,567,-1,-1
"{'cat': 'RB', 'resp': 'button'}",45,229,Right,56.35726196571151,56.52356739762852,2.8178630982855752,0.8878701204553865,Right,Correct,0.0,0.0,-45,45,1097,-1,-1
"{'cat': 'RB', 'resp': 'button'}",45,230,Left,40.42245184346351,12.424584181069129,2.0211225921731755,0.19516491193577368,Left,Correct,0.0,0.0,-45,45,609,-1,-1
"{'cat': 'RB', 'resp': 'button'}",45,231,Right,63.80960113577998,15.685719955367212,3.190480056788999,0.24639071289024225,Right,Correct,0.0,0.0,-45,45,864,-1,-1
"{'cat': 'RB', 'resp': 'button'}",45,232,Right,59.72963997887564,13.666925202517753,2.986481998943782,0.21467955906695482,Right,Correct,0.0,0.0,-45,45,744,-1,-1
"{'cat': 'RB', 'resp': 'button'}",45,233,Left,37.91814595780434,35.85125672444468,1.8959072978902172,0.5631502237373854,Left,Correct,0.0,0.0,-45,45,588,-1,-1
"{'cat': 'RB', 'resp': 'button'}",45,234,Left,48.92376209799366,55.61603915149409,2.446188104899683,0.8736147001004808,Right,Incorrect,0.0,0.0,-45,45,753,-1,-1
"{'cat': 'RB', 'resp': 'button'}",45,235,Right,62.62852656253069,47.5548828014793,3.1314263281265347,0.746990352257255,Right,Correct,0.0,0.0,-45,45,703,-1,-1
"{'cat': 'RB', 'resp': 'button'}",45,236,Right,53.93621470029976,51.20873320215393,2.6968107350149877,0.8043849001376326,Right,Correct,0.0,0.0,-45,45,824,-1,-1
"{'cat': 'RB', 'resp': 'button'}",45,237,Left,39.988032848425966,16.507426372513244,1.9994016424212984,0.25929804710781007,Left,Correct,0.0,0.0,-45,45,605,-1,-1
"{'cat': 'RB', 'resp': 'button'}",45,238,Right,57.315463091174415,50.28027252808436,2.8657731545587204,0.7898006739736126,107,Incorrect,0.0,0.0,-45,45,1040,-1,-1
"{'cat': 'RB', 'resp': 'button'}",45,239,Left,42.248942083746954,78.89086856419159,2.1124471041873476,1.2392148655829114,Left,Correct,0.0,0.0,-45,45,562,-1,-1
"{'cat': 'RB', 'resp': 'button'}",45,240,Left,37.87384974973679,37.413314687405865,1.8936924874868395,0.5876869728419868,Left,Correct,0.0,0.0,-45,45,582,-1,-1
"{'cat': 'RB', 'resp': 'button'}",45,241,Right,63.04255956677705,86.01703586600752,3.1521279783388523,1.3511524398010948,Right,Correct,0.0,0.0,-45,45,654,-1,-1
"{'cat': 'RB', 'resp': 'button'}",45,242,Left,42.09747429134471,39.592224624356405,2.1048737145672356,0.6219132100957749,Left,Correct,0.0,0.0,-45,45,728,-1,-1
"{'cat': 'RB', 'resp': 'button'}",45,243,Right,55.06720506001121,22.115180753628977,2.7533602530005608,0.34738444694205584,Right,Correct,0.0,0.0,-45,45,851,-1,-1
"{'cat': 'RB', 'resp': 'button'}",45,244,Left,39.930320441150165,48.69992417691839,1.9965160220575084,0.7649766201229338,Left,Correct,0.0,0.0,-45,45,715,-1,-1
"{'cat': 'RB', 'resp': 'button'}",45,245,Right,56.036443712796014,87.35103240169802,2.801822185639801,1.3721068083832924,Left,Incorrect,0.0,0.0,-45,45,1485,-1,-1
"{'cat': 'RB', 'resp': 'button'}",45,246,Left,40.926982244966034,39.57347690993156,2.046349112248302,0.6216187216862313,Left,Correct,0.0,0.0,-45,45,829,-1,-1
"{'cat': 'RB', 'resp': 'button'}",45,247,Right,67.60537485081572,59.12913066337129,3.3802687425407862,0.9287982125259912,Right,Correct,0.0,0.0,-45,45,708,-1,-1
"{'cat': 'RB', 'resp': 'button'}",45,248,Right,51.06079240525013,36.896597789288705,2.5530396202625067,0.579570402786434,Left,Incorrect,0.0,0.0,-45,45,1455,-1,-1
"{'cat': 'RB', 'resp': 'button'}",45,249,Left,39.020308027480745,29.290078375130342,1.9510154013740373,0.4600874752318937,Left,Correct,0.0,0.0,-45,45,693,-1,-1
"{'cat': 'RB', 'resp': 'button'}",45,250,Right,54.9355472716864,21.556005779723606,2.7467773635843202,0.338600946991594,Right,Correct,0.0,0.0,-45,45,722,-1,-1
"{'cat': 'RB', 'resp': 'button'}",45,251,Right,64.52412690263809,67.53947604932054,3.2262063451319047,1.060907608919246,Right,Correct,0.0,0.0,-45,45,768,-1,-1
"{'cat': 'RB', 'resp': 'button'}",45,252,Right,52.8831799095649,65.11434375255621,2.6441589954782447,1.022813719881755,Left,Incorrect,0.0,0.0,-45,45,819,-1,-1
"{'cat': 'RB', 'resp': 'button'}",45,253,Right,54.85351546789149,63.15708840624075,2.7426757733945744,0.9920692247958353,Right,Correct,0.0,0.0,-45,45,1525,-1,-1
"{'cat': 'RB', 'resp': 'button'}",45,254,Left,44.19520216952277,38.3525522770687,2.2097601084761385,0.6024404824002876,Left,Correct,0.0,0.0,-45,45,911,-1,-1
"{'cat': 'RB', 'resp': 'button'}",45,255,Left,46.87176736442554,51.34890834923683,2.3435883682212766,0.8065867661990901,Left,Correct,0.0,0.0,-45,45,2686,-1,-1
"{'cat': 'RB', 'resp': 'button'}",45,256,Right,57.383631621052494,89.12428677091347,2.869181581052625,1.3999610228796586,Right,Correct,0.0,0.0,-45,45,1471,-1,-1
"{'cat': 'RB', 'resp': 'button'}",45,257,Left,42.41195547359765,59.813018455729384,2.1205977736798824,0.9395406968477509,Left,Correct,0.0,0.0,-45,45,716,-1,-1
"{'cat': 'RB', 'resp': 'button'}",45,258,Right,55.23852858801444,47.448757784453385,2.761926429400722,0.7453233443880012,Right,Correct,0.0,0.0,-45,45,756,-1,-1
"{'cat': 'RB', 'resp': 'button'}",45,259,Right,55.433649179846334,59.01063637291151,2.771682458992317,0.9269369085639872,Right,Correct,0.0,0.0,-45,45,841,-1,-1
"{'cat': 'RB', 'resp': 'button'}",45,260,Right,65.66251977727391,65.77243913935288,3.283125988863696,1.033151058044364,Right,Correct,0.0,0.0,-45,45,744,-1,-1
"{'cat': 'RB', 'resp': 'button'}",45,261,Right,57.8749191979042,32.47706305299417,2.8937459598952096,0.510148513487295,Right,Correct,0.0,0.0,-45,45,2042,-1,-1
"{'cat': 'RB', 'resp': 'button'}",45,262,Right,63.9749672442309,29.21488348224654,3.198748362211545,0.45890631661653764,Right,Correct,0.0,0.0,-45,45,605,-1,-1
"{'cat': 'RB', 'resp': 'button'}",45,263,Right,65.77111374116272,61.30856638481744,3.288555687058136,0.963032708783323,Right,Correct,0.0,0.0,-45,45,612,-1,-1
"{'cat': 'RB', 'resp': 'button'}",45,264,Left,32.95478555766015,34.48247094005512,1.6477392778830078,0.5416493869145035,Left,Correct,0.0,0.0,-45,45,510,-1,-1
"{'cat': 'RB', 'resp': 'button'}",45,265,Right,53.173507126453586,45.01407209234931,2.6586753563226795,0.7070793909674297,Right,Correct,0.0,0.0,-45,45,898,-1,-1
"{'cat': 'RB', 'resp': 'button'}",45,266,Left,42.33992253747438,59.14858573241546,2.116996126873719,0.9291038120359123,Left,Correct,0.0,0.0,-45,45,1165,-1,-1
"{'cat': 'RB', 'resp': 'button'}",45,267,Left,39.56858644286132,25.584397051400547,1.9784293221430658,0.4018787691160216,Left,Correct,0.0,0.0,-45,45,867,-1,-1
"{'cat': 'RB', 'resp': 'button'}",45,268,Left,41.47941265765203,12.649508205191822,2.0739706328826015,0.19869801024477216,Left,Correct,0.0,0.0,-45,45,877,-1,-1
"{'cat': 'RB', 'resp': 'button'}",45,269,Left,35.04004239848764,79.89603483632142,1.752002119924382,1.2550039804637079,Left,Correct,0.0,0.0,-45,45,618,-1,-1
"{'cat': 'RB', 'resp': 'button'}",45,270,Left,45.42445334174208,75.1154090817526,2.271222667087104,1.17991008671313,Left,Correct,0.0,0.0,-45,45,1272,-1,-1
"{'cat': 'RB', 'resp': 'button'}",45,271,Right,64.78335879964712,16.750787163745343,3.2391679399823556,0.2631207494773429,Right,Correct,0.0,0.0,-45,45,491,-1,-1
"{'cat': 'RB', 'resp': 'button'}",45,272,Left,46.074398470672186,56.57875344708772,2.303719923533609,0.8887369808931949,Left,Correct,0.0,0.0,-45,45,1150,-1,-1
"{'cat': 'RB', 'resp': 'button'}",45,273,Left,38.144988298025766,81.4176231573052,1.9072494149012882,1.2789050339186614,Left,Correct,0.0,0.0,-45,45,551,-1,-1
"{'cat': 'RB', 'resp': 'button'}",45,274,Left,40.845485019028935,24.2636077188585,2.0422742509514467,0.38113185879575234,Left,Correct,0.0,0.0,-45,45,1129,-1,-1
"{'cat': 'RB', 'resp': 'button'}",45,275,Left,41.89615946097787,43.98017167611311,2.0948079730488933,0.6908389212064743,Left,Correct,0.0,0.0,-45,45,929,-1,-1
"{'cat': 'RB', 'resp': 'button'}",45,276,Left,38.28790635560456,88.91409873283263,1.914395317780228,1.3966593968981227,Left,Correct,0.0,0.0,-45,45,1197,-1,-1
"{'cat': 'RB', 'resp': 'button'}",45,277,Right,64.84433271915145,61.83894140142025,3.242216635957573,0.9713638200623578,Right,Correct,0.0,0.0,-45,45,430,-1,-1
"{'cat': 'RB', 'resp': 'button'}",45,278,Right,55.42363581724995,22.975249115249166,2.7711817908624976,0.36089436917431095,Right,Correct,0.0,0.0,-45,45,612,-1,-1
"{'cat': 'RB', 'resp': 'button'}",45,279,Left,40.079341351179146,46.61037353517964,2.0039670675589574,0.7321540353959823,Left,Correct,0.0,0.0,-45,45,1056,-1,-1
"{'cat': 'RB', 'resp': 'button'}",45,280,Right,62.19752130565131,75.64011513094984,3.1098760652825654,1.1881521500603909,Right,Correct,0.0,0.0,-45,45,661,-1,-1
"{'cat': 'RB', 'resp': 'button'}",45,281,Left,37.14333537375256,27.537218404104635,1.8571667686876279,0.4325536151931638,Left,Correct,0.0,0.0,-45,45,511,-1,-1
"{'cat': 'RB', 'resp': 'button'}",45,282,Left,38.037528509962975,61.5175284410862,1.9018764254981488,0.9663150770875879,Left,Correct,0.0,0.0,-45,45,924,-1,-1
"{'cat': 'RB', 'resp': 'button'}",45,283,Right,66.11207772799662,37.089821248968576,3.305603886399831,0.5826055497935915,Right,Correct,0.0,0.0,-45,45,623,-1,-1
"{'cat': 'RB', 'resp': 'button'}",45,284,Right,65.2662592856857,72.0118065219163,3.2633129642842853,1.131158811704909,Right,Correct,0.0,0.0,-45,45,2005,-1,-1
"{'cat': 'RB', 'resp': 'button'}",45,285,Left,37.46596699986091,56.09939341145478,1.8732983499930456,0.8812072110613499,Left,Correct,0.0,0.0,-45,45,478,-1,-1
"{'cat': 'RB', 'resp': 'button'}",45,286,Left,48.210995508988354,67.42994054987048,2.4105497754494176,1.059187029317348,Left,Correct,0.0,0.0,-45,45,708,-1,-1
"{'cat': 'RB', 'resp': 'button'}",45,287,Right,53.44149840072491,34.74744590736981,2.6720749200362457,0.5458116039680087,Left,Incorrect,0.0,0.0,-45,45,2791,-1,-1
"{'cat': 'RB', 'resp': 'button'}",45,288,Right,63.41047462434852,85.71102025047863,3.1705237312174255,1.3463455577529482,Right,Correct,0.0,0.0,-45,45,639,-1,-1
"{'cat': 'RB', 'resp': 'button'}",45,289,Right,61.65418529082954,48.01944327459885,3.0827092645414766,0.7542876511047578,Right,Correct,0.0,0.0,-45,45,599,-1,-1
"{'cat': 'RB', 'resp': 'button'}",45,290,Right,62.96565779123033,32.33015185052693,3.1482828895615165,0.5078408377152892,Right,Correct,0.0,0.0,-45,45,532,-1,-1
"{'cat': 'RB', 'resp': 'button'}",45,291,Left,33.227173546785835,25.69083469415699,1.6613586773392917,0.4035506876987669,Left,Correct,0.0,0.0,-45,45,725,-1,-1
"{'cat': 'RB', 'resp': 'button'}",45,292,Right,66.75323759208823,69.92451756768152,3.3376618796044113,1.0983717534821935,Right,Correct,0.0,0.0,-45,45,747,-1,-1
"{'cat': 'RB', 'resp': 'button'}",45,293,Right,62.87002835729379,56.3340098692683,3.1435014178646896,0.8848925577627409,Right,Correct,0.0,0.0,-45,45,675,-1,-1
"{'cat': 'RB', 'resp': 'button'}",45,294,Left,31.011141018005794,46.03403011811792,1.5505570509002897,0.7231008541710526,Left,Correct,0.0,0.0,-45,45,702,-1,-1
"{'cat': 'RB', 'resp': 'button'}",45,295,Left,38.55983229776533,11.320927452561207,1.9279916148882665,0.1778287125839465,Left,Correct,0.0,0.0,-45,45,1237,-1,-1
"{'cat': 'RB', 'resp': 'button'}",45,296,Left,40.51017466935976,49.02989921130767,2.0255087334679884,0.7701598558424609,Left,Correct,0.0,0.0,-45,45,864,-1,-1
"{'cat': 'RB', 'resp': 'button'}",45,297,Left,46.84460828935238,64.98133606939345,2.342230414467619,1.0207244400802795,Right,Incorrect,0.0,0.0,-45,45,720,-1,-1
"{'cat': 'RB', 'resp': 'button'}",45,298,Left,45.32901089558103,37.42980322370449,2.2664505447790515,0.5879459741645079,Left,Correct,0.0,0.0,-45,45,515,-1,-1
"{'cat': 'RB', 'resp': 'button'}",45,299,Left,40.62096529842483,55.312293380081314,2.0310482649212416,0.868843472680334,Left,Correct,0.0,0.0,-45,45,680,-1,-1
"{'cat': 'RB', 'resp': 'button'}",45,300,Right,53.439420150766644,49.66299384480033,2.6719710075383323,0.7801044830904991,Right,Correct,0.0,0.0,-45,45,596,-1,-1
"{'cat': 'RB', 'resp': 'button'}",45,301,Left,42.04853113435777,25.951318259731337,2.1024265567178886,0.4076423539787131,Left,Correct,0.0,0.0,-45,45,842,-1,-1
"{'cat': 'RB', 'resp': 'button'}",45,302,Left,42.20284354142765,80.46710095222184,2.1101421770713826,1.263974266035842,Left,Correct,0.0,0.0,-45,45,613,-1,-1
"{'cat': 'RB', 'resp': 'button'}",45,303,Left,36.73255971187556,66.73279200676544,1.836627985593778,1.0482362456099499,Left,Correct,0.0,0.0,-45,45,563,-1,-1
"{'cat': 'RB', 'resp': 'button'}",45,304,Left,33.120006506589185,35.39532325650504,1.6560003253294593,0.5559884375703609,Left,Correct,0.0,0.0,-45,45,492,-1,-1
"{'cat': 'RB', 'resp': 'button'}",45,305,Left,39.484070184824006,77.77738016965802,1.9742035092412005,1.2217242307822904,Left,Correct,0.0,0.0,-45,45,538,-1,-1
"{'cat': 'RB', 'resp': 'button'}",45,306,Left,48.024394319421944,47.065373153770594,2.4012197159710973,0.7393011526917397,Right,Incorrect,0.0,0.0,-45,45,580,-1,-1
"{'cat': 'RB', 'resp': 'button'}",45,307,Right,64.34510175477581,57.41482214761079,3.21725508773879,0.901869917330493,Right,Correct,0.0,0.0,-45,45,2440,-1,-1
"{'cat': 'RB', 'resp': 'button'}",45,308,Left,47.5567239452783,59.86430798127389,2.377836197263915,0.9403463508310345,Left,Correct,0.0,0.0,-45,45,1456,-1,-1
"{'cat': 'RB', 'resp': 'button'}",45,309,Left,49.059953097825826,61.16712415535142,2.4529976548912913,0.9608109394383338,Right,Incorrect,0.0,0.0,-45,45,2773,-1,-1
"{'cat': 'RB', 'resp': 'button'}",45,310,Left,46.737025767812696,48.34891339956317,2.3368512883906347,0.759462955725584,Left,Correct,0.0,0.0,-45,45,576,-1,-1
"{'cat': 'RB', 'resp': 'button'}",45,311,Left,45.45253354923254,68.15046800179924,2.272626677461627,1.0705050480657938,Left,Correct,0.0,0.0,-45,45,588,-1,-1
"{'cat': 'RB', 'resp': 'button'}",45,312,Left,42.65168615899509,41.971905742446516,2.1325843079497546,0.6592931536881661,Left,Correct,0.0,0.0,-45,45,791,-1,-1
"{'cat': 'RB', 'resp': 'button'}",45,313,Right,52.392817158941085,40.15830150037458,2.619640857947054,0.6308051248711036,Right,Correct,0.0,0.0,-45,45,603,-1,-1
"{'cat': 'RB', 'resp': 'button'}",45,314,Left,35.67185443717227,15.09158858833375,1.7835927218586136,0.23705811920054431,Left,Correct,0.0,0.0,-45,45,796,-1,-1
"{'cat': 'RB', 'resp': 'button'}",45,315,Left,47.129544291365576,38.91549493694123,2.3564772145682786,0.6112831650235268,Right,Incorrect,0.0,0.0,-45,45,1861,-1,-1
"{'cat': 'RB', 'resp': 'button'}",45,316,Left,39.72029281174328,65.579733254937,1.9860146405871637,1.0301240410904415,Left,Correct,0.0,0.0,-45,45,669,-1,-1
"{'cat': 'RB', 'resp': 'button'}",45,317,Left,46.78791361884919,76.74680824756066,2.3393956809424594,1.2055360448850057,Right,Incorrect,0.0,0.0,-45,45,1263,-1,-1
"{'cat': 'RB', 'resp': 'button'}",45,318,Right,66.20369893175813,76.72843791405427,3.3101849465879063,1.2052474843610672,Right,Correct,0.0,0.0,-45,45,697,-1,-1
"{'cat': 'RB', 'resp': 'button'}",45,319,Right,59.864277526151,13.432049582754345,2.99321387630755,0.2109901414591745,Right,Correct,0.0,0.0,-45,45,500,-1,-1
"{'cat': 'RB', 'resp': 'button'}",45,320,Left,38.371848499583116,90.01765059481534,1.9185924249791557,1.4139939490104234,Left,Correct,0.0,0.0,-45,45,596,-1,-1
"{'cat': 'RB', 'resp': 'button'}",45,321,Left,39.70631984999093,81.30191629244919,1.9853159924995467,1.2770875147356535,Left,Correct,0.0,0.0,-45,45,878,-1,-1
"{'cat': 'RB', 'resp': 'button'}",45,322,Left,34.906837519636355,42.789387626157094,1.7453418759818178,0.6721341290897056,Left,Correct,0.0,0.0,-45,45,796,-1,-1
"{'cat': 'RB', 'resp': 'button'}",45,323,Left,43.17431338174355,18.002728409709565,2.1587156690871776,0.2827861965825791,Left,Correct,0.0,0.0,-45,45,736,-1,-1
"{'cat': 'RB', 'resp': 'button'}",45,324,Left,36.92709861460632,82.23057458585794,1.8463549307303162,1.2916748450969942,Left,Correct,0.0,0.0,-45,45,569,-1,-1
"{'cat': 'RB', 'resp': 'button'}",45,325,Right,64.64597985985891,27.72712700015852,3.2322989929929458,0.4355366924442461,Right,Correct,0.0,0.0,-45,45,723,-1,-1
"{'cat': 'RB', 'resp': 'button'}",45,326,Left,46.71264486152286,38.45417816468367,2.3356322430761427,0.6040368181100162,Left,Correct,0.0,0.0,-45,45,1684,-1,-1
"{'cat': 'RB', 'resp': 'button'}",45,327,Right,52.15663925492997,64.93852116095341,2.6078319627464985,1.0200519050711827,Right,Correct,0.0,0.0,-45,45,660,-1,-1
"{'cat': 'RB', 'resp': 'button'}",45,328,Right,53.64225846000151,63.60259796452596,2.682112923000075,0.9990672725728995,Right,Correct,0.0,0.0,-45,45,1275,-1,-1
"{'cat': 'RB', 'resp': 'button'}",45,329,Right,56.70975627301412,69.86957379425172,2.8354878136507065,1.0975086987073557,Right,Correct,0.0,0.0,-45,45,2226,-1,-1
"{'cat': 'RB', 'resp': 'button'}",45,330,Left,36.783110750733684,18.343848138341848,1.8391555375366841,0.2881444927499078,Left,Correct,0.0,0.0,-45,45,726,-1,-1
"{'cat': 'RB', 'resp': 'button'}",45,331,Right,61.536943564390185,80.94631160368141,3.0768471782195093,1.2715016893465787,Right,Correct,0.0,0.0,-45,45,1464,-1,-1
"{'cat': 'RB', 'resp': 'button'}",45,332,Right,60.171473618451124,79.93324093680127,3.0085736809225563,1.2555884125233887,Right,Correct,0.0,0.0,-45,45,595,-1,-1
"{'cat': 'RB', 'resp': 'button'}",45,333,Right,59.886052570743026,22.199333854236773,2.9943026285371515,0.3487063207552872,Right,Correct,0.0,0.0,-45,45,710,-1,-1
"{'cat': 'RB', 'resp': 'button'}",45,334,Right,58.90849925821378,85.26181472771108,2.945424962910689,1.3392894539015558,Left,Incorrect,0.0,0.0,-45,45,1947,-1,-1
"{'cat': 'RB', 'resp': 'button'}",45,335,Left,43.06672946276964,27.93580968828767,2.153336473138482,0.43881467244403555,Left,Correct,0.0,0.0,-45,45,704,-1,-1
"{'cat': 'RB', 'resp': 'button'}",45,336,Right,67.59312391765772,27.168472520890653,3.379656195882886,0.4267613684044312,Right,Correct,0.0,0.0,-45,45,789,-1,-1
"{'cat': 'RB', 'resp': 'button'}",45,337,Left,42.96169524740391,20.968684350198952,2.1480847623701953,0.32937532355014143,Left,Correct,0.0,0.0,-45,45,591,-1,-1
"{'cat': 'RB', 'resp': 'button'}",45,338,Left,41.7550114788513,44.59991411129844,2.0877505739425652,0.7005738126139546,Left,Correct,0.0,0.0,-45,45,1027,-1,-1
"{'cat': 'RB', 'resp': 'button'}",45,339,Right,55.79512159131691,26.855383536257957,2.7897560795658456,0.4218433781342214,Left,Incorrect,0.0,0.0,-45,45,1140,-1,-1
"{'cat': 'RB', 'resp': 'button'}",45,340,Right,64.28109257809756,45.55929871963108,3.214054628904878,0.7156437908014793,Right,Correct,0.0,0.0,-45,45,596,-1,-1
"{'cat': 'RB', 'resp': 'button'}",45,341,Left,41.71366105210171,89.26852706193398,2.0856830526050856,1.4022267440727672,Left,Correct,0.0,0.0,-45,45,636,-1,-1
"{'cat': 'RB', 'resp': 'button'}",45,342,Left,45.1872448940111,23.285175759326926,2.259362244700555,0.365762685515243,107,Incorrect,0.0,0.0,-45,45,1314,-1,-1
"{'cat': 'RB', 'resp': 'button'}",45,343,Right,56.557138612274734,76.56329511096084,2.8278569306137364,1.2026534272761094,Right,Correct,0.0,0.0,-45,45,666,-1,-1
"{'cat': 'RB', 'resp': 'button'}",45,344,Right,62.55317987416837,12.29750211431189,3.1276589937084185,0.1931687114991359,Right,Correct,0.0,0.0,-45,45,715,-1,-1
"{'cat': 'RB', 'resp': 'button'}",45,345,Right,65.02543685285737,31.14876386372951,3.2512718426428684,0.48928363861347923,Right,Correct,0.0,0.0,-45,45,837,-1,-1
"{'cat': 'RB', 'resp': 'button'}",45,346,Right,56.223725368580595,39.51971498463212,2.81118626842903,0.6207742313384136,Right,Correct,0.0,0.0,-45,45,448,-1,-1
"{'cat': 'RB', 'resp': 'button'}",45,347,Left,31.973718273427814,43.65409791506248,1.5986859136713907,0.6857169665452488,Left,Correct,0.0,0.0,-45,45,565,-1,-1
"{'cat': 'RB', 'resp': 'button'}",45,348,Right,51.50439102267758,35.28505815971168,2.5752195511338787,0.5542563974801941,Right,Correct,0.0,0.0,-45,45,588,-1,-1
"{'cat': 'RB', 'resp': 'button'}",45,349,Left,38.94290428026016,39.66405976653836,1.947145214013008,0.6230415938705168,Left,Correct,0.0,0.0,-45,45,644,-1,-1
"{'cat': 'RB', 'resp': 'button'}",45,350,Left,41.0225277572549,15.179120209678402,2.051126387862745,0.23843306269341014,Left,Correct,0.0,0.0,-45,45,913,-1,-1
"{'cat': 'RB', 'resp': 'button'}",45,351,Right,64.70905536647659,39.25752424766836,3.23545276832383,0.6166557488729904,Right,Correct,0.0,0.0,-45,45,456,-1,-1
"{'cat': 'RB', 'resp': 'button'}",45,352,Left,34.00374065233412,74.14025563903344,1.7001870326167063,1.1645924122542834,Left,Correct,0.0,0.0,-45,45,651,-1,-1
"{'cat': 'RB', 'resp': 'button'}",45,353,Right,62.63489684341921,52.335244795290315,3.1317448421709604,0.8220801028635375,Right,Correct,0.0,0.0,-45,45,650,-1,-1
"{'cat': 'RB', 'resp': 'button'}",45,354,Right,60.99530569268572,89.89057330328444,3.049765284634286,1.4119978235828659,Right,Correct,0.0,0.0,-45,45,1219,-1,-1
"{'cat': 'RB', 'resp': 'button'}",45,355,Left,49.41027459213531,46.68312012139916,2.470513729606765,0.7332967361001874,Left,Correct,0.0,0.0,-45,45,1040,-1,-1
"{'cat': 'RB', 'resp': 'button'}",45,356,Right,68.38478919176231,57.082991404592704,3.4192394595881153,0.8966575322079887,Right,Correct,0.0,0.0,-45,45,806,-1,-1
"{'cat': 'RB', 'resp': 'button'}",45,357,Left,43.83502125470061,53.109214506596594,2.1917510627350305,0.8342375906592416,Left,Correct,0.0,0.0,-45,45,781,-1,-1
"{'cat': 'RB', 'resp': 'button'}",45,358,Right,63.66151707978791,31.27141336136482,3.1830758539893957,0.49121021241716706,Right,Correct,0.0,0.0,-45,45,481,-1,-1
"{'cat': 'RB', 'resp': 'button'}",45,359,Right,68.48474608734405,43.202392625326084,3.4242373043672023,0.6786215964461314,Right,Correct,0.0,0.0,-45,45,859,-1,-1
"{'cat': 'RB', 'resp': 'button'}",45,360,Left,41.222113321965736,28.370868822038176,2.0611056660982867,0.44564856533637415,Left,Correct,0.0,0.0,-45,45,579,-1,-1
"{'cat': 'RB', 'resp': 'button'}",45,361,Left,35.177538258188015,67.24709213651384,1.7588769129094006,1.0563148531567392,Left,Correct,0.0,0.0,-45,45,675,-1,-1
"{'cat': 'RB', 'resp': 'button'}",45,362,Left,37.296419206546915,37.568997257699536,1.8648209603273458,0.5901324289376196,Left,Correct,0.0,0.0,-45,45,523,-1,-1
"{'cat': 'RB', 'resp': 'button'}",45,363,Right,64.36574670082044,71.60145734827407,3.2182873350410217,1.1247130619583035,Right,Correct,0.0,0.0,-45,45,655,-1,-1
"{'cat': 'RB', 'resp': 'button'}",45,364,Right,54.48196462995256,53.395667534681785,2.7240982314976283,0.8387371843023966,Left,Incorrect,0.0,0.0,-45,45,2388,-1,-1
"{'cat': 'RB', 'resp': 'button'}",45,365,Right,53.0956664103925,69.7050195610676,2.6547833205196247,1.094923886856914,Right,Correct,0.0,0.0,-45,45,436,-1,-1
"{'cat': 'RB', 'resp': 'button'}",45,366,Right,65.94610361537897,82.11477284542974,3.297305180768949,1.2898558356119834,Right,Correct,0.0,0.0,-45,45,547,-1,-1
"{'cat': 'RB', 'resp': 'button'}",45,367,Right,55.08194897802049,51.45966901147445,2.7540974489010246,0.8083265906130522,Right,Correct,0.0,0.0,-45,45,1565,-1,-1
"{'cat': 'RB', 'resp': 'button'}",45,368,Left,31.927184295850495,66.43297100985781,1.596359214792525,1.043526668403565,Left,Correct,0.0,0.0,-45,45,682,-1,-1
"{'cat': 'RB', 'resp': 'button'}",45,369,Left,38.33016550110404,74.353831177616,1.916508275055202,1.1679472489692708,Left,Correct,0.0,0.0,-45,45,477,-1,-1
"{'cat': 'RB', 'resp': 'button'}",45,370,Left,38.26392012662847,32.92286034509678,1.9131960063314235,0.5171510809765939,Left,Correct,0.0,0.0,-45,45,611,-1,-1
"{'cat': 'RB', 'resp': 'button'}",45,371,Right,56.74135578214635,49.43901103963318,2.8370677891073175,0.7765861694142814,Right,Correct,0.0,0.0,-45,45,428,-1,-1
"{'cat': 'RB', 'resp': 'button'}",45,372,Left,35.31076378354855,45.28473504397901,1.7655381891774278,0.7113309546696237,Left,Correct,0.0,0.0,-45,45,506,-1,-1
"{'cat': 'RB', 'resp': 'button'}",45,373,Left,37.644540387354716,55.66840095595008,1.8822270193677357,0.8744371974015188,Left,Correct,0.0,0.0,-45,45,854,-1,-1
"{'cat': 'RB', 'resp': 'button'}",45,374,Left,38.42653107614467,56.37150434444574,1.9213265538072335,0.8854815196015791,Left,Correct,0.0,0.0,-45,45,1548,-1,-1
"{'cat': 'RB', 'resp': 'button'}",45,375,Left,43.984360779123946,73.64256572171003,2.1992180389561975,1.1567747173141387,Left,Correct,0.0,0.0,-45,45,881,-1,-1
"{'cat': 'RB', 'resp': 'button'}",45,376,Right,56.470468403197,18.243420904572638,2.8235234201598503,0.28656698545075926,Right,Correct,0.0,0.0,-45,45,592,-1,-1
"{'cat': 'RB', 'resp': 'button'}",45,377,Right,65.67012694970397,26.635366629796682,3.2835063474851984,0.4183873606491999,Left,Incorrect,0.0,0.0,-45,45,466,-1,-1
"{'cat': 'RB', 'resp': 'button'}",45,378,Left,34.8706209758224,53.37241377553391,1.7435310487911198,0.83837191510786,Left,Correct,0.0,0.0,-45,45,522,-1,-1
"{'cat': 'RB', 'resp': 'button'}",45,379,Left,35.83367847030512,43.580710671736796,1.791683923515256,0.684564202422753,Left,Correct,0.0,0.0,-45,45,475,-1,-1
"{'cat': 'RB', 'resp': 'button'}",45,380,Right,66.4180816423744,68.3343995464611,3.3209040821187203,1.0733942380131594,Right,Correct,0.0,0.0,-45,45,385,-1,-1
"{'cat': 'RB', 'resp': 'button'}",45,381,Right,67.89451778879126,59.49134791681285,3.3947258894395635,0.9344879078380686,Right,Correct,0.0,0.0,-45,45,461,-1,-1
"{'cat': 'RB', 'resp': 'button'}",45,382,Left,45.59434165944948,48.85741634527035,2.279717082972474,0.7674505013183961,Left,Correct,0.0,0.0,-45,45,582,-1,-1
"{'cat': 'RB', 'resp': 'button'}",45,383,Right,51.33263304812536,47.02747539280614,2.566631652406268,0.7387058560545728,Left,Incorrect,0.0,0.0,-45,45,891,-1,-1
"{'cat': 'RB', 'resp': 'button'}",45,384,Right,59.26835402238384,13.42053623833376,2.963417701119192,0.21080929026792464,Right,Correct,0.0,0.0,-45,45,415,-1,-1
"{'cat': 'RB', 'resp': 'button'}",45,385,Right,65.55571252970299,40.17645275267337,3.2777856264851493,0.6310902440754804,Right,Correct,0.0,0.0,-45,45,526,-1,-1
"{'cat': 'RB', 'resp': 'button'}",45,386,Left,44.18141803492865,18.41529830461831,2.2090709017464323,0.28926682933726733,Left,Correct,0.0,0.0,-45,45,497,-1,-1
"{'cat': 'RB', 'resp': 'button'}",45,387,Left,45.38452299734285,71.04041230475886,2.2692261498671424,1.1159001870231018,Right,Incorrect,0.0,0.0,-45,45,418,-1,-1
"{'cat': 'RB', 'resp': 'button'}",45,388,Left,34.34236285941502,70.78518600683853,1.7171181429707507,1.1118911017103548,Left,Correct,0.0,0.0,-45,45,359,-1,-1
"{'cat': 'RB', 'resp': 'button'}",45,389,Right,66.37837545348816,59.140039971467864,3.318918772674408,0.9289695755368508,Right,Correct,0.0,0.0,-45,45,406,-1,-1
"{'cat': 'RB', 'resp': 'button'}",45,390,Right,57.756103379529215,58.142510795064865,2.8878051689764606,0.9133004238752053,Left,Incorrect,0.0,0.0,-45,45,934,-1,-1
"{'cat': 'RB', 'resp': 'button'}",45,391,Right,58.50829904531516,57.91812009364739,2.925414952265758,0.9097757029796701,Right,Correct,0.0,0.0,-45,45,541,-1,-1
"{'cat': 'RB', 'resp': 'button'}",45,392,Left,35.22567754097965,54.128199934996886,1.7612838770489827,0.8502437763391286,Left,Correct,0.0,0.0,-45,45,511,-1,-1
"{'cat': 'RB', 'resp': 'button'}",45,393,Left,40.47182781617219,40.65918485050277,2.023591390808609,0.6386729821364446,Left,Correct,0.0,0.0,-45,45,710,-1,-1
"{'cat': 'RB', 'resp': 'button'}",45,394,Right,56.953623323063795,33.80256398684442,2.8476811661531896,0.5309694334678466,Right,Correct,0.0,0.0,-45,45,472,-1,-1
"{'cat': 'RB', 'resp': 'button'}",45,395,Left,33.57484813082635,30.401753902768608,1.6787424065413175,0.4775496335859134,Left,Correct,0.0,0.0,-45,45,558,-1,-1
"{'cat': 'RB', 'resp': 'button'}",45,396,Left,38.88114349772729,73.75893003928073,1.9440571748863644,1.1586025637402393,Left,Correct,0.0,0.0,-45,45,529,-1,-1
"{'cat': 'RB', 'resp': 'button'}",45,397,Left,36.306077903229706,15.591811908363916,1.8153038951614855,0.24491560873734966,Left,Correct,0.0,0.0,-45,45,455,-1,-1
"{'cat': 'RB', 'resp': 'button'}",45,398,Left,36.462355939365146,51.71450459099075,1.8231177969682575,0.812329538535461,Left,Correct,0.0,0.0,-45,45,731,-1,-1
"{'cat': 'RB', 'resp': 'button'}",45,399,Right,66.32820609715289,66.69263240255846,3.3164103048576443,1.0476054200222114,Right,Correct,0.0,0.0,-45,45,506,-1,-1
