condition,subject,trial,cat,x,y,xt,yt,resp,fb,rotation,su,target_angle_left,target_angle_right,rt,mt,ep
"{'cat': 'II', 'resp': 'reach'}",28,0,Left,27.62890214519171,49.4480755250828,1.3814451072595855,0.7767285540187668,Right,Incorrect,0.0,0.0,-45,45,2004,4200,-0.78
"{'cat': 'II', 'resp': 'reach'}",28,1,Left,33.58622683728773,55.60876434930087,1.6793113418643868,0.8735004277748482,Right,Incorrect,0.0,0.0,-45,45,2004,4021,-0.68
"{'cat': 'II', 'resp': 'reach'}",28,2,Right,55.79405201902844,39.178099659448385,2.7897026009514216,0.615408150358659,Left,Incorrect,0.0,0.0,-45,45,2004,4529,-2.54
"{'cat': 'II', 'resp': 'reach'}",28,3,Right,78.04083493168437,50.48560450581431,3.9020417465842185,0.7930260211375298,Right,Correct,0.0,0.0,-45,45,2004,9471,-0.67
"{'cat': 'II', 'resp': 'reach'}",28,4,Left,38.15341869764058,59.56688376042882,1.907670934882029,0.9356744220950018,Left,Correct,0.0,0.0,-45,45,2013,3487,-2.63
"{'cat': 'II', 'resp': 'reach'}",28,5,Right,58.754738551473245,40.109268209674866,2.9377369275736624,0.630034911741886,Left,Incorrect,0.0,0.0,-45,45,2005,4762,-2.6
"{'cat': 'II', 'resp': 'reach'}",28,6,Left,13.714489094039273,31.02302614394504,0.6857244547019635,0.48730855512970905,Right,Incorrect,0.0,0.0,-45,45,2004,988,-0.81
"{'cat': 'II', 'resp': 'reach'}",28,7,Right,71.3024853043168,52.175107935537255,3.5651242652158404,0.8195646789526918,Right,Correct,0.0,0.0,-45,45,2004,1458,-0.77
"{'cat': 'II', 'resp': 'reach'}",28,8,Right,32.15090446474176,14.300628322270068,1.607545223237088,0.22463374439480888,Right,Correct,0.0,0.0,-45,45,2004,2792,-0.77
"{'cat': 'II', 'resp': 'reach'}",28,9,Right,32.80262450668312,19.35424694489957,1.6401312253341558,0.30401580008929596,Right,Correct,0.0,0.0,-45,45,2012,1450,-0.74
"{'cat': 'II', 'resp': 'reach'}",28,10,Left,27.439924733919767,57.63442361105666,1.3719962366959886,0.9053194090518886,Right,Incorrect,0.0,0.0,-45,45,2004,2908,-0.75
"{'cat': 'II', 'resp': 'reach'}",28,11,Right,67.09605824888423,43.70180931780877,3.3548029124442116,0.68646641550705,Right,Correct,0.0,0.0,-45,45,2005,8849,-0.74
"{'cat': 'II', 'resp': 'reach'}",28,12,Left,51.213940464857984,66.63254939158412,2.560697023242899,1.0466616382927987,Right,Incorrect,0.0,0.0,-45,45,2008,2458,-0.75
"{'cat': 'II', 'resp': 'reach'}",28,13,Left,58.919847662407676,69.13233241381664,2.945992383120384,1.0859281381838695,Left,Correct,0.0,0.0,-45,45,2017,7291,-2.59
"{'cat': 'II', 'resp': 'reach'}",28,14,Left,33.16372643610967,58.93196111319136,1.6581863218054835,0.9257010804742067,Right,Incorrect,0.0,0.0,-45,45,2009,8079,-0.75
"{'cat': 'II', 'resp': 'reach'}",28,15,Right,64.94300852595846,46.33568175721742,3.247150426297923,0.7278391870377443,Right,Correct,0.0,0.0,-45,45,2004,2458,-0.79
"{'cat': 'II', 'resp': 'reach'}",28,16,Right,60.82759660282801,33.03402214895274,3.0413798301414006,0.5188972065083621,Left,Incorrect,0.0,0.0,-45,45,2012,2438,-2.5
"{'cat': 'II', 'resp': 'reach'}",28,17,Left,24.319128188601965,51.61606331702924,1.2159564094300983,0.8107832266200233,Right,Incorrect,0.0,0.0,-45,45,2004,1230,-0.84
"{'cat': 'II', 'resp': 'reach'}",28,18,Left,60.74376838203358,81.29936696595453,3.037188419101679,1.2770474700087175,Right,Incorrect,0.0,0.0,-45,45,2004,3967,-0.94
"{'cat': 'II', 'resp': 'reach'}",28,19,Left,18.79687481159057,48.23384113348979,0.9398437405795285,0.7576554047969435,Left,Correct,0.0,0.0,-45,45,2017,2766,-2.54
"{'cat': 'II', 'resp': 'reach'}",28,20,Left,49.83583039195749,60.219733553609935,2.491791519597874,0.9459293626657787,Left,Correct,0.0,0.0,-45,45,2008,1679,-2.55
"{'cat': 'II', 'resp': 'reach'}",28,21,Left,38.80746304140364,45.935961307842355,1.9403731520701823,0.7215603929015126,Right,Incorrect,0.0,0.0,-45,45,2009,24678,-0.46
"{'cat': 'II', 'resp': 'reach'}",28,22,Right,43.680592737907105,34.80889053568342,2.184029636895355,0.5467767739325715,Left,Incorrect,0.0,0.0,-45,45,2004,1904,-2.57
"{'cat': 'II', 'resp': 'reach'}",28,23,Left,48.4802500301504,69.12194558759865,2.42401250150752,1.0857649822991666,Right,Incorrect,0.0,0.0,-45,45,2004,1471,-0.72
"{'cat': 'II', 'resp': 'reach'}",28,24,Left,64.01699740997337,74.22683886234056,3.2008498704986685,1.1659524583456122,Right,Incorrect,0.0,0.0,-45,45,2008,2696,-0.66
"{'cat': 'II', 'resp': 'reach'}",28,25,Left,10.680680618147935,30.975825308585325,0.5340340309073968,0.48656712614166214,Left,Correct,0.0,0.0,-45,45,2004,1817,-2.61
"{'cat': 'II', 'resp': 'reach'}",28,26,Left,44.53483602121611,56.35709746986131,2.2267418010608053,0.8852552169448009,Left,Correct,0.0,0.0,-45,45,2004,2096,-2.41
"{'cat': 'II', 'resp': 'reach'}",28,27,Right,40.92783320023646,24.083116485103236,2.0463916600118233,0.3782967091257378,Right,Correct,0.0,0.0,-45,45,2017,2375,-0.81
"{'cat': 'II', 'resp': 'reach'}",28,28,Right,74.37243711959181,49.00922019384466,3.7186218559795905,0.7698350305957347,Right,Correct,0.0,0.0,-45,45,2004,3154,-0.7
"{'cat': 'II', 'resp': 'reach'}",28,29,Left,43.948352558270834,51.535727335911545,2.197417627913542,0.8095213119795319,Left,Correct,0.0,0.0,-45,45,2004,2509,-2.5
"{'cat': 'II', 'resp': 'reach'}",28,30,Left,40.79258345518645,48.09992136518193,2.0396291727593225,0.7555517979955113,Right,Incorrect,0.0,0.0,-45,45,2012,4562,-0.81
"{'cat': 'II', 'resp': 'reach'}",28,31,Left,16.931645414625297,36.62670857546263,0.8465822707312648,0.5753309929292384,Left,Correct,0.0,0.0,-45,45,2004,1371,-2.53
"{'cat': 'II', 'resp': 'reach'}",28,32,Right,49.081129870207434,31.01126063440652,2.4540564935103717,0.48712374293804933,Right,Correct,0.0,0.0,-45,45,2016,1650,-0.71
"{'cat': 'II', 'resp': 'reach'}",28,33,Right,65.24586669316888,34.373382299678994,3.2622933346584437,0.5399358265585247,Right,Correct,0.0,0.0,-45,45,2004,1937,-0.67
"{'cat': 'II', 'resp': 'reach'}",28,34,Right,53.898233616446134,29.80524907713378,2.694911680822307,0.46817975769568726,Right,Correct,0.0,0.0,-45,45,2004,2316,-0.72
"{'cat': 'II', 'resp': 'reach'}",28,35,Right,70.52165342479408,51.88573151468483,3.526082671239704,0.8150191647633312,Right,Correct,0.0,0.0,-45,45,2012,1938,-0.69
"{'cat': 'II', 'resp': 'reach'}",28,36,Right,50.59012387802526,34.685093617552276,2.529506193901263,0.5448321764898822,Right,Correct,0.0,0.0,-45,45,2004,1800,-0.7
"{'cat': 'II', 'resp': 'reach'}",28,37,Left,26.15252522067931,56.78271993227461,1.3076262610339655,0.8919408789504031,Left,Correct,0.0,0.0,-45,45,2005,1733,-2.42
"{'cat': 'II', 'resp': 'reach'}",28,38,Right,58.905173510960246,41.091440045974764,2.945258675548012,0.6454628308692987,Right,Correct,0.0,0.0,-45,45,2008,1279,-0.78
"{'cat': 'II', 'resp': 'reach'}",28,39,Right,74.89719450145711,52.626514837871085,3.744859725072855,0.8266553619934501,Right,Correct,0.0,0.0,-45,45,2004,1520,-0.79
"{'cat': 'II', 'resp': 'reach'}",28,40,Right,55.96480915561706,35.738132148790406,2.798240457780853,0.5613732670583056,Left,Incorrect,0.0,0.0,-45,45,2013,1049,-2.6
"{'cat': 'II', 'resp': 'reach'}",28,41,Right,71.32720199365194,56.13039446323848,3.5663600996825973,0.8816941744440361,Right,Correct,0.0,0.0,-45,45,2004,754,-0.77
"{'cat': 'II', 'resp': 'reach'}",28,42,Right,42.29765907855925,32.83711114630374,2.1148829539279626,0.5158041357116967,Left,Incorrect,0.0,0.0,-45,45,2009,691,-2.42
"{'cat': 'II', 'resp': 'reach'}",28,43,Left,61.333588976708384,87.70420146633764,3.066679448835419,1.3776543750780275,Right,Incorrect,0.0,0.0,-45,45,2004,1613,-0.71
"{'cat': 'II', 'resp': 'reach'}",28,44,Left,34.73765417713137,48.52081835495621,1.7368827088565684,0.762163232450476,Right,Incorrect,0.0,0.0,-45,45,2008,933,-0.71
"{'cat': 'II', 'resp': 'reach'}",28,45,Left,67.61304266855744,79.94755363981291,3.3806521334278723,1.2558132359365608,Left,Correct,0.0,0.0,-45,45,2004,1454,-2.53
"{'cat': 'II', 'resp': 'reach'}",28,46,Right,52.99214202117109,33.89857127545969,2.649607101058555,0.5324775124308707,Left,Incorrect,0.0,0.0,-45,45,2017,967,-2.48
"{'cat': 'II', 'resp': 'reach'}",28,47,Left,50.728123809455866,64.41411093950904,2.5364061904727935,1.0118144885753977,Left,Correct,0.0,0.0,-45,45,2012,2267,-2.5
"{'cat': 'II', 'resp': 'reach'}",28,48,Right,41.113868328179336,26.62184382640447,2.0556934164089666,0.41817494495023527,Right,Correct,0.0,0.0,-45,45,2008,1225,-0.69
"{'cat': 'II', 'resp': 'reach'}",28,49,Left,38.183516153706904,58.66958585486025,1.9091758076853451,0.9215796995539232,Right,Incorrect,0.0,0.0,-45,45,2013,2058,-0.77
"{'cat': 'II', 'resp': 'reach'}",28,50,Right,67.86351455895783,44.96593343200851,3.3931757279478916,0.7063232306590281,Left,Incorrect,0.0,0.0,-45,45,2008,1779,-2.61
"{'cat': 'II', 'resp': 'reach'}",28,51,Left,33.0815891551914,61.04790545959775,1.65407945775957,0.9589382565445825,Right,Incorrect,0.0,0.0,-45,45,2005,1004,-0.79
"{'cat': 'II', 'resp': 'reach'}",28,52,Left,62.847513174151075,76.67343276912582,3.1423756587075538,1.2043834655649828,Right,Incorrect,0.0,0.0,-45,45,2004,1812,-0.69
"{'cat': 'II', 'resp': 'reach'}",28,53,Right,49.307381521227214,32.73381846612391,2.4653690760613607,0.5141816180855838,Left,Incorrect,0.0,0.0,-45,45,2005,1433,-2.57
"{'cat': 'II', 'resp': 'reach'}",28,54,Left,42.663765151463785,68.11379927756738,2.1331882575731895,1.069929057092477,Right,Incorrect,0.0,0.0,-45,45,2004,1038,-0.77
"{'cat': 'II', 'resp': 'reach'}",28,55,Right,31.434120220329664,10.300185026942355,1.571706011016483,0.16179492805628842,Right,Correct,0.0,0.0,-45,45,2004,1820,-0.73
"{'cat': 'II', 'resp': 'reach'}",28,56,Right,76.19524751329521,46.967645418199716,3.8097623756647607,0.7377660490111326,Right,Correct,0.0,0.0,-45,45,2008,4713,1.43
"{'cat': 'II', 'resp': 'reach'}",28,57,Right,58.98502163782349,33.94916335437692,2.9492510818911746,0.5332722109481517,Right,Correct,0.0,0.0,-45,45,2004,988,-0.7
"{'cat': 'II', 'resp': 'reach'}",28,58,Right,66.91613399468304,38.26004135948542,3.345806699734152,0.6009873243050052,Left,Incorrect,0.0,0.0,-45,45,2013,637,-2.54
"{'cat': 'II', 'resp': 'reach'}",28,59,Left,41.94497934234758,63.00513844735142,2.097248967117379,0.9896824004230352,Right,Incorrect,0.0,0.0,-45,45,2008,533,-0.76
"{'cat': 'II', 'resp': 'reach'}",28,60,Left,46.156825576618225,74.01353239444045,2.307841278830911,1.1626018481830214,Right,Incorrect,0.0,0.0,-45,45,2009,954,-0.74
"{'cat': 'II', 'resp': 'reach'}",28,61,Left,49.50956461905013,72.91694017935012,2.4754782309525067,1.1453766179484637,Right,Incorrect,0.0,0.0,-45,45,2004,1300,-0.9
"{'cat': 'II', 'resp': 'reach'}",28,62,Left,20.76512098506599,51.877606219281844,1.0382560492532995,0.8148915329216,Left,Correct,0.0,0.0,-45,45,2004,492,-2.5
"{'cat': 'II', 'resp': 'reach'}",28,63,Right,58.16687901207508,44.381377947148835,2.9083439506037543,0.6971410545747742,Left,Incorrect,0.0,0.0,-45,45,2004,1750,-2.57
"{'cat': 'II', 'resp': 'reach'}",28,64,Left,42.567425306543846,73.80249710277172,2.1283712653271922,1.1592869135732482,Left,Correct,0.0,0.0,-45,45,2004,2338,-2.65
"{'cat': 'II', 'resp': 'reach'}",28,65,Left,20.61648772803175,41.2066736560968,1.0308243864015876,0.6472729161843288,Left,Correct,0.0,0.0,-45,45,2013,1987,-2.54
"{'cat': 'II', 'resp': 'reach'}",28,66,Right,49.85051842284872,19.561879409102303,2.492525921142436,0.3072772832102262,Right,Correct,0.0,0.0,-45,45,2013,1333,-0.89
"{'cat': 'II', 'resp': 'reach'}",28,67,Left,48.417597879306996,60.66047805962327,2.4208798939653495,0.9528525611767864,Right,Incorrect,0.0,0.0,-45,45,2005,1229,-0.68
"{'cat': 'II', 'resp': 'reach'}",28,68,Right,59.54156508102032,48.49855366850395,2.9770782540510163,0.7618134995735117,Left,Incorrect,0.0,0.0,-45,45,2004,775,-2.43
"{'cat': 'II', 'resp': 'reach'}",28,69,Left,14.535558198303704,42.06386810795403,0.7267779099151852,0.6607376951475917,Right,Incorrect,0.0,0.0,-45,45,2017,491,-0.68
"{'cat': 'II', 'resp': 'reach'}",28,70,Right,78.45044529852896,59.359451627331595,3.922522264926448,0.9324160857677181,Left,Incorrect,0.0,0.0,-45,45,2012,2075,-2.4
"{'cat': 'II', 'resp': 'reach'}",28,71,Right,85.89407263649491,66.20824761333643,4.294703631824746,1.0399967215455583,Left,Incorrect,0.0,0.0,-45,45,2013,2316,-2.58
"{'cat': 'II', 'resp': 'reach'}",28,72,Left,11.601542807884336,30.682320988431506,0.5800771403942168,0.48195677106170165,Left,Correct,0.0,0.0,-45,45,2004,1521,-2.44
"{'cat': 'II', 'resp': 'reach'}",28,73,Left,56.03413646009915,79.18645931817271,2.8017068230049573,1.243857994288792,Right,Incorrect,0.0,0.0,-45,45,2004,1784,-0.69
"{'cat': 'II', 'resp': 'reach'}",28,74,Right,81.5350856786089,68.12947964370562,4.076754283930445,1.0701753637078046,Right,Correct,0.0,0.0,-45,45,2004,900,-0.62
"{'cat': 'II', 'resp': 'reach'}",28,75,Right,45.36608203230588,36.6367054986404,2.268304101615294,0.5754880242313073,Left,Incorrect,0.0,0.0,-45,45,2012,1834,-2.54
"{'cat': 'II', 'resp': 'reach'}",28,76,Right,48.409467122474915,32.715648776711426,2.420473356123746,0.5138962092717025,Right,Correct,0.0,0.0,-45,45,2012,1192,-0.58
"{'cat': 'II', 'resp': 'reach'}",28,77,Left,53.55574170976404,77.52357002906756,2.6777870854882018,1.2177373904168627,Right,Incorrect,0.0,0.0,-45,45,2016,1621,-0.61
"{'cat': 'II', 'resp': 'reach'}",28,78,Right,43.62854153528463,29.47277208538626,2.1814270767642316,0.462957221321879,Right,Correct,0.0,0.0,-45,45,2004,1704,-0.61
"{'cat': 'II', 'resp': 'reach'}",28,79,Right,56.97012777227409,26.6370307339795,2.8485063886137043,0.41841350033657765,Right,Correct,0.0,0.0,-45,45,2008,2600,-0.63
"{'cat': 'II', 'resp': 'reach'}",28,80,Right,63.852439559318455,50.574918603509055,3.1926219779659224,0.794428963703429,Left,Incorrect,0.0,0.0,-45,45,2004,1796,-2.48
"{'cat': 'II', 'resp': 'reach'}",28,81,Left,47.552985345413944,63.1682101715631,2.3776492672706975,0.9922439250769934,Left,Correct,0.0,0.0,-45,45,2013,1350,-2.5
"{'cat': 'II', 'resp': 'reach'}",28,82,Left,53.147895878113594,72.95530489528556,2.6573947939056795,1.145979249497163,Left,Correct,0.0,0.0,-45,45,2004,1167,-2.4
"{'cat': 'II', 'resp': 'reach'}",28,83,Right,31.02412354277284,11.061406134241146,1.5512061771386418,0.17375216124852527,Right,Correct,0.0,0.0,-45,45,2004,1292,-0.66
"{'cat': 'II', 'resp': 'reach'}",28,84,Left,33.14718068585057,54.45684919882744,1.6573590342925286,0.8554061869034175,Left,Correct,0.0,0.0,-45,45,2005,2054,-2.43
"{'cat': 'II', 'resp': 'reach'}",28,85,Left,42.75907292372885,59.58772510559376,2.1379536461864426,0.9360017971793073,Left,Correct,0.0,0.0,-45,45,2004,1479,-2.41
"{'cat': 'II', 'resp': 'reach'}",28,86,Right,37.91852212903203,28.755017152477315,1.8959261064516013,0.4516827532003561,Right,Correct,0.0,0.0,-45,45,2004,1209,-0.67
"{'cat': 'II', 'resp': 'reach'}",28,87,Left,38.187616699742826,45.799738618391316,1.9093808349871413,0.7194206118993546,Right,Incorrect,0.0,0.0,-45,45,2004,1775,-0.77
"{'cat': 'II', 'resp': 'reach'}",28,88,Left,24.535852473232488,50.22234922984957,1.2267926236616244,0.7888908169325821,Left,Correct,0.0,0.0,-45,45,2004,1350,-2.4
"{'cat': 'II', 'resp': 'reach'}",28,89,Left,47.874111452450975,77.41736462359907,2.3937055726225487,1.216069119808906,Left,Correct,0.0,0.0,-45,45,2008,967,-2.43
"{'cat': 'II', 'resp': 'reach'}",28,90,Left,25.791780072365867,57.86352363387657,1.2895890036182933,0.9089181037950299,Left,Correct,0.0,0.0,-45,45,2016,1179,-2.43
"{'cat': 'II', 'resp': 'reach'}",28,91,Right,78.1090199272731,63.05989704234225,3.905450996363655,0.9905425464217558,Left,Incorrect,0.0,0.0,-45,45,2004,1946,-2.31
"{'cat': 'II', 'resp': 'reach'}",28,92,Left,66.8186690422564,78.76480105550792,3.34093345211282,1.2372346017872262,Left,Correct,0.0,0.0,-45,45,2004,987,-2.29
"{'cat': 'II', 'resp': 'reach'}",28,93,Right,67.52286766527794,45.43069575835173,3.376143383263897,0.7136237002095539,Right,Correct,0.0,0.0,-45,45,2013,2770,-0.62
"{'cat': 'II', 'resp': 'reach'}",28,94,Left,31.776646768536057,54.83811006055706,1.5888323384268028,0.861395018514973,Left,Correct,0.0,0.0,-45,45,2009,2629,-2.47
"{'cat': 'II', 'resp': 'reach'}",28,95,Left,59.42827299033661,78.46013545486147,2.9714136495168306,1.2324489257232645,Left,Correct,0.0,0.0,-45,45,2009,1137,-2.53
"{'cat': 'II', 'resp': 'reach'}",28,96,Right,58.12173395145608,30.22746843793734,2.9060866975728037,0.4748119639062064,Right,Correct,0.0,0.0,-45,45,2005,1037,-0.69
"{'cat': 'II', 'resp': 'reach'}",28,97,Left,32.360032043137636,59.97325440770687,1.6180016021568817,0.9420576772956178,Left,Correct,0.0,0.0,-45,45,2004,1309,-2.54
"{'cat': 'II', 'resp': 'reach'}",28,98,Right,63.92979016984546,39.73534488099553,3.196489508492273,0.6241613378299616,Right,Correct,0.0,0.0,-45,45,2005,1250,-0.71
"{'cat': 'II', 'resp': 'reach'}",28,99,Left,67.29120927416405,80.77019148167209,3.364560463708202,1.2687352009393096,Left,Correct,0.0,0.0,-45,45,2009,1229,-2.42
"{'cat': 'II', 'resp': 'reach'}",28,100,Left,26.245809063464076,44.96503241911442,1.3122904531732038,0.7063090775815838,Left,Correct,0.0,0.0,-45,45,2004,3354,-2.47
"{'cat': 'II', 'resp': 'reach'}",28,101,Right,40.74504303789543,32.1662380337762,2.037252151894771,0.5052660855026596,Right,Correct,0.0,0.0,-45,45,2012,1300,-0.73
"{'cat': 'II', 'resp': 'reach'}",28,102,Left,27.390649144315816,42.53094096605717,1.369532457215791,0.6680744584461319,Left,Correct,0.0,0.0,-45,45,2004,3171,-2.41
"{'cat': 'II', 'resp': 'reach'}",28,103,Left,52.6818346196362,64.37849526904502,2.63409173098181,1.0112550389319852,Left,Correct,0.0,0.0,-45,45,2013,2250,-2.37
"{'cat': 'II', 'resp': 'reach'}",28,104,Left,65.5814386170074,88.03338726853127,3.2790719308503697,1.3828252135672152,Left,Correct,0.0,0.0,-45,45,2004,1842,-2.34
"{'cat': 'II', 'resp': 'reach'}",28,105,Right,60.41923566094269,34.141536829481204,3.020961783047135,0.5362940064288175,Right,Correct,0.0,0.0,-45,45,2013,1179,-0.66
"{'cat': 'II', 'resp': 'reach'}",28,106,Left,32.518676572307655,41.60559781946786,1.6259338286153826,0.6535392022892588,Right,Incorrect,0.0,0.0,-45,45,2005,2562,-0.68
"{'cat': 'II', 'resp': 'reach'}",28,107,Left,51.86885613430586,80.19930722392971,2.5934428067152933,1.259767771988442,Left,Correct,0.0,0.0,-45,45,2004,1017,-2.4
"{'cat': 'II', 'resp': 'reach'}",28,108,Left,29.539078092447056,38.985788823131344,1.4769539046223528,0.6123873388057626,Right,Incorrect,0.0,0.0,-45,45,2004,1934,-0.68
"{'cat': 'II', 'resp': 'reach'}",28,109,Left,11.077249886421669,35.05848655744129,0.5538624943210835,0.5506974190741705,Left,Correct,0.0,0.0,-45,45,2004,3083,-2.56
"{'cat': 'II', 'resp': 'reach'}",28,110,Right,41.41533801532603,30.293853036823695,2.0707669007663014,0.47585473074707074,Left,Incorrect,0.0,0.0,-45,45,2012,2530,-2.5
"{'cat': 'II', 'resp': 'reach'}",28,111,Left,42.39910111204526,61.97550107701228,2.119955055602263,0.9735088944304403,Left,Correct,0.0,0.0,-45,45,2004,1171,-2.45
"{'cat': 'II', 'resp': 'reach'}",28,112,Left,46.09331510933295,74.07831785137932,2.3046657554666474,1.1636194957609145,Left,Correct,0.0,0.0,-45,45,2012,1050,-2.37
"{'cat': 'II', 'resp': 'reach'}",28,113,Right,65.78610899726083,40.75154736590331,3.2893054498630416,0.6401238091356916,Left,Incorrect,0.0,0.0,-45,45,2008,1729,-2.33
"{'cat': 'II', 'resp': 'reach'}",28,114,Right,52.77264980837496,32.48688382441882,2.6386324904187477,0.5103027778040962,Left,Incorrect,0.0,0.0,-45,45,2004,1571,-2.37
"{'cat': 'II', 'resp': 'reach'}",28,115,Right,73.19585727852528,58.176703004495465,3.6597928639262642,0.913837513844991,Left,Incorrect,0.0,0.0,-45,45,2008,1571,-2.36
"{'cat': 'II', 'resp': 'reach'}",28,116,Left,56.225158890154376,71.17395547898644,2.8112579445077186,1.1179978782985538,Left,Correct,0.0,0.0,-45,45,2004,1563,-2.34
"{'cat': 'II', 'resp': 'reach'}",28,117,Right,77.53126102104318,51.19479678595914,3.876563051052159,0.8041659874239581,Left,Incorrect,0.0,0.0,-45,45,2013,2912,-2.38
"{'cat': 'II', 'resp': 'reach'}",28,118,Right,65.55888679368886,55.09243360977705,3.277944339684443,0.865389923484295,Left,Incorrect,0.0,0.0,-45,45,2004,1483,-2.38
"{'cat': 'II', 'resp': 'reach'}",28,119,Right,34.082992563027084,22.403216318297112,1.7041496281513542,0.3519088990117259,Right,Correct,0.0,0.0,-45,45,2004,1429,-0.79
"{'cat': 'II', 'resp': 'reach'}",28,120,Left,45.81683646167324,62.325341789957626,2.290841823083662,0.979004179499019,Left,Correct,0.0,0.0,-45,45,2012,1450,-2.26
"{'cat': 'II', 'resp': 'reach'}",28,121,Left,57.84113227445705,80.77746464113024,2.8920566137228523,1.2688494474609202,Left,Correct,0.0,0.0,-45,45,2009,1258,-2.38
"{'cat': 'II', 'resp': 'reach'}",28,122,Left,37.36408365859691,63.562874274578505,1.8682041829298455,0.9984432943103374,Left,Correct,0.0,0.0,-45,45,2004,3891,-2.46
"{'cat': 'II', 'resp': 'reach'}",28,123,Left,27.103391808708825,42.27048046376619,1.3551695904354413,0.6639831544433937,Right,Incorrect,0.0,0.0,-45,45,2008,1942,-0.75
"{'cat': 'II', 'resp': 'reach'}",28,124,Left,38.07855859420253,54.8110907483677,1.9039279297101268,0.8609706001515772,Right,Incorrect,0.0,0.0,-45,45,2012,1363,-0.74
"{'cat': 'II', 'resp': 'reach'}",28,125,Left,32.11136536848641,59.06834267118337,1.6055682684243207,0.9278433569775708,Left,Correct,0.0,0.0,-45,45,2008,1138,-2.42
"{'cat': 'II', 'resp': 'reach'}",28,126,Right,63.53454258409046,48.95795831494891,3.1767271292045227,0.7690298108849941,Right,Correct,0.0,0.0,-45,45,2009,3021,-0.75
"{'cat': 'II', 'resp': 'reach'}",28,127,Right,84.75478039539018,61.2509583011536,4.237739019769509,0.9621278031211946,Left,Incorrect,0.0,0.0,-45,45,2004,2571,-2.03
"{'cat': 'II', 'resp': 'reach'}",28,128,Left,46.39882134619462,73.6950880119074,2.319941067309731,1.1575997355193075,Left,Correct,0.0,0.0,-45,45,2004,1842,-2.55
"{'cat': 'II', 'resp': 'reach'}",28,129,Right,40.32364597521905,30.857889832808475,2.0161822987609526,0.4847146000201714,Right,Correct,0.0,0.0,-45,45,2004,2600,-0.65
"{'cat': 'II', 'resp': 'reach'}",28,130,Right,52.17607599939598,30.853815578663337,2.6088037999697984,0.4846506017857153,Right,Correct,0.0,0.0,-45,45,2004,1108,-0.67
"{'cat': 'II', 'resp': 'reach'}",28,131,Right,75.73051539172134,64.67742374358508,3.786525769586067,1.0159505964298048,Left,Incorrect,0.0,0.0,-45,45,2012,1229,-2.45
"{'cat': 'II', 'resp': 'reach'}",28,132,Right,52.71904279789732,31.41088093952304,2.6359521398948664,0.4934009640119462,Right,Correct,0.0,0.0,-45,45,2009,1779,-0.76
"{'cat': 'II', 'resp': 'reach'}",28,133,Right,45.3480990245075,24.81476573550907,2.267404951225375,0.38978942867613503,Right,Correct,0.0,0.0,-45,45,2004,2159,-0.73
"{'cat': 'II', 'resp': 'reach'}",28,134,Right,53.47287343744802,32.58605266823112,2.6736436718724015,0.5118605183600248,Right,Correct,0.0,0.0,-45,45,2004,2266,-0.68
"{'cat': 'II', 'resp': 'reach'}",28,135,Left,48.89975571491031,66.68796861236179,2.444987785745516,1.0475321613771125,Left,Correct,0.0,0.0,-45,45,2004,2288,-2.52
"{'cat': 'II', 'resp': 'reach'}",28,136,Right,69.04843217957996,44.30405608673526,3.452421608978998,0.6959264856315882,Right,Correct,0.0,0.0,-45,45,2005,1341,-0.64
"{'cat': 'II', 'resp': 'reach'}",28,137,Left,39.740441625507344,69.94875400616212,1.9870220812753672,1.0987524585675925,Left,Correct,0.0,0.0,-45,45,2004,817,-2.44
"{'cat': 'II', 'resp': 'reach'}",28,138,Right,52.61118610957,43.35171897264249,2.6305593054784997,0.6809672092247145,Right,Correct,0.0,0.0,-45,45,2005,2125,-0.72
"{'cat': 'II', 'resp': 'reach'}",28,139,Right,44.47156017120727,18.312417441001582,2.223578008560364,0.28765078051060083,Left,Incorrect,0.0,0.0,-45,45,2017,1608,-2.43
"{'cat': 'II', 'resp': 'reach'}",28,140,Right,44.618815490674606,23.661567838168942,2.23094077453373,0.3716750384640404,Right,Correct,0.0,0.0,-45,45,2004,1146,-0.7
"{'cat': 'II', 'resp': 'reach'}",28,141,Left,35.55049424089103,54.63802487493602,1.7775247120445514,0.858252087768777,Right,Incorrect,0.0,0.0,-45,45,2004,2208,-0.71
"{'cat': 'II', 'resp': 'reach'}",28,142,Right,75.81104770685855,55.04712405762737,3.790552385342927,0.8646782027034405,Left,Incorrect,0.0,0.0,-45,45,2004,1813,-2.44
"{'cat': 'II', 'resp': 'reach'}",28,143,Left,32.70850159336782,60.62344121571642,1.6354250796683911,0.9522707877931369,Left,Correct,0.0,0.0,-45,45,2004,792,-2.54
"{'cat': 'II', 'resp': 'reach'}",28,144,Right,53.94395295790311,28.857671185167163,2.6971976478951554,0.45329523897515506,Right,Correct,0.0,0.0,-45,45,2008,1571,-0.66
"{'cat': 'II', 'resp': 'reach'}",28,145,Right,67.44398401258104,53.61371400356782,3.372199200629052,0.8421622502263644,Left,Incorrect,0.0,0.0,-45,45,2017,1542,-2.42
"{'cat': 'II', 'resp': 'reach'}",28,146,Left,44.188494261470034,63.857122259865605,2.2094247130735014,1.0030653308548951,Right,Incorrect,0.0,0.0,-45,45,2004,1600,-0.71
"{'cat': 'II', 'resp': 'reach'}",28,147,Left,13.092872800698554,36.42124321690514,0.6546436400349278,0.5721035506241813,Right,Incorrect,0.0,0.0,-45,45,2004,2388,-0.69
"{'cat': 'II', 'resp': 'reach'}",28,148,Left,64.87373376590722,80.90184237307136,3.243686688295361,1.2708031683056022,Left,Correct,0.0,0.0,-45,45,2004,1554,-2.46
"{'cat': 'II', 'resp': 'reach'}",28,149,Left,35.43265344399587,56.17877878243304,1.7716326721997933,0.8824541935526888,Left,Correct,0.0,0.0,-45,45,2004,2717,-2.47
"{'cat': 'II', 'resp': 'reach'}",28,150,Left,23.69413650812572,34.45426201536165,1.184706825406286,0.5412062821615901,Right,Incorrect,0.0,0.0,-45,45,2004,1334,-0.7
"{'cat': 'II', 'resp': 'reach'}",28,151,Right,86.83590086958938,69.13700050434475,4.341795043479469,1.0860014643784164,Left,Incorrect,0.0,0.0,-45,45,2017,2333,-2.43
"{'cat': 'II', 'resp': 'reach'}",28,152,Right,73.46925217055629,43.419058094833424,3.673462608527814,0.6820249696825856,Right,Correct,0.0,0.0,-45,45,2013,1454,-0.7
"{'cat': 'II', 'resp': 'reach'}",28,153,Left,53.61119486425715,78.71135694382005,2.6805597432128576,1.2363951036439451,Left,Correct,0.0,0.0,-45,45,2008,746,-2.42
"{'cat': 'II', 'resp': 'reach'}",28,154,Right,60.326200240647054,43.57563260548711,3.0163100120323527,0.6844844363446309,Right,Correct,0.0,0.0,-45,45,2008,1450,-0.77
"{'cat': 'II', 'resp': 'reach'}",28,155,Left,42.18459388498081,71.11534668647857,2.1092296942490405,1.1170772535386615,Left,Correct,0.0,0.0,-45,45,2013,2158,-2.45
"{'cat': 'II', 'resp': 'reach'}",28,156,Right,57.89608998493895,47.235380941132924,2.8948044992469475,0.7419716287708927,Left,Incorrect,0.0,0.0,-45,45,2016,1834,-2.45
"{'cat': 'II', 'resp': 'reach'}",28,157,Right,55.21929890570585,31.110352402737064,2.7609649452852927,0.48868027279514165,Right,Correct,0.0,0.0,-45,45,2004,1242,-0.79
"{'cat': 'II', 'resp': 'reach'}",28,158,Left,55.07568685782554,68.28401374189185,2.753784342891277,1.0726027796457598,Left,Correct,0.0,0.0,-45,45,2004,834,-2.43
"{'cat': 'II', 'resp': 'reach'}",28,159,Left,66.26672020113502,85.39207994475578,3.3133360100567506,1.3413356551459854,Left,Correct,0.0,0.0,-45,45,2004,1146,-2.47
"{'cat': 'II', 'resp': 'reach'}",28,160,Left,43.12758654755384,64.11045016370463,2.156379327377692,1.007044596263145,Left,Correct,0.0,0.0,-45,45,2004,829,-2.34
"{'cat': 'II', 'resp': 'reach'}",28,161,Left,65.90073420924169,81.68534658781248,3.295036710462085,1.283110423731039,Right,Incorrect,0.0,0.0,-45,45,2013,1142,-0.76
"{'cat': 'II', 'resp': 'reach'}",28,162,Right,69.64478604616392,45.66426970215361,3.4822393023081957,0.7172926711391437,Right,Correct,0.0,0.0,-45,45,2012,1604,-0.8
"{'cat': 'II', 'resp': 'reach'}",28,163,Right,58.77791813218732,47.96823326802616,2.938895906609366,0.7534832462025626,Left,Incorrect,0.0,0.0,-45,45,2008,1550,-2.43
"{'cat': 'II', 'resp': 'reach'}",28,164,Right,84.26041685502048,67.97239367896663,4.213020842751024,1.0677078631437742,Right,Correct,0.0,0.0,-45,45,2016,2004,-0.71
"{'cat': 'II', 'resp': 'reach'}",28,165,Right,65.05673756572743,53.71712300202135,3.2528368782863715,0.8437865949756479,Right,Correct,0.0,0.0,-45,45,2005,1195,-0.71
"{'cat': 'II', 'resp': 'reach'}",28,166,Right,41.695793012527574,23.05034553597138,2.0847896506263788,0.3620739809925699,Right,Correct,0.0,0.0,-45,45,2005,1824,-0.77
"{'cat': 'II', 'resp': 'reach'}",28,167,Right,76.56143079753551,57.30414114649315,3.8280715398767757,0.9001313442304775,Right,Correct,0.0,0.0,-45,45,2009,2041,-0.76
"{'cat': 'II', 'resp': 'reach'}",28,168,Right,70.9012862258893,41.902641606636436,3.545064311294465,0.6582051551870751,Right,Correct,0.0,0.0,-45,45,2004,1025,-0.72
"{'cat': 'II', 'resp': 'reach'}",28,169,Right,79.78852227578543,52.34772831628024,3.9894261137892717,0.822276193552702,Left,Incorrect,0.0,0.0,-45,45,2004,1350,-2.49
"{'cat': 'II', 'resp': 'reach'}",28,170,Left,29.861422147708453,39.761761381603804,1.4930711073854226,0.6245762872511842,Right,Incorrect,0.0,0.0,-45,45,2005,1195,-0.72
"{'cat': 'II', 'resp': 'reach'}",28,171,Right,76.23431085273728,54.83008575691796,3.811715542636864,0.8612689730481591,Right,Correct,0.0,0.0,-45,45,2013,1404,-0.68
"{'cat': 'II', 'resp': 'reach'}",28,172,Left,45.689613222675376,56.74992744275909,2.284480661133769,0.8914257757296287,Right,Incorrect,0.0,0.0,-45,45,2012,1213,-0.73
"{'cat': 'II', 'resp': 'reach'}",28,173,Left,14.458640921602278,37.76817389029618,0.722932046080114,0.5932610881662816,Right,Incorrect,0.0,0.0,-45,45,2004,1542,-0.76
"{'cat': 'II', 'resp': 'reach'}",28,174,Right,46.80616650925917,31.46496422706865,2.3403083254629586,0.4942505023061225,Right,Correct,0.0,0.0,-45,45,2004,1075,-0.68
"{'cat': 'II', 'resp': 'reach'}",28,175,Left,51.191275862973605,78.74741501159538,2.5595637931486803,1.2369615024480731,Left,Correct,0.0,0.0,-45,45,2004,1192,-2.44
"{'cat': 'II', 'resp': 'reach'}",28,176,Right,80.68987347033611,55.769489980903515,4.034493673516805,0.8760251000922802,Right,Correct,0.0,0.0,-45,45,2004,1883,-0.77
"{'cat': 'II', 'resp': 'reach'}",28,177,Left,34.61267173620057,46.69315172462942,1.7306335868100284,0.7334543121552469,Left,Correct,0.0,0.0,-45,45,2012,1813,-2.58
"{'cat': 'II', 'resp': 'reach'}",28,178,Right,41.031201248492906,25.637288277573994,2.0515600624246453,0.40270958255395084,Right,Correct,0.0,0.0,-45,45,2004,1521,-0.7
"{'cat': 'II', 'resp': 'reach'}",28,179,Left,67.21039007721976,89.79608252754782,3.3605195038609876,1.4105135659484354,Left,Correct,0.0,0.0,-45,45,2004,1388,-2.55
"{'cat': 'II', 'resp': 'reach'}",28,180,Right,71.92855305511077,51.15764168208139,3.5964276527555388,0.8035823564170295,Right,Correct,0.0,0.0,-45,45,2004,1805,-0.76
"{'cat': 'II', 'resp': 'reach'}",28,181,Right,43.12886084377136,30.42511743130357,2.156443042188568,0.4779166270339502,Right,Correct,0.0,0.0,-45,45,2004,1821,-0.64
"{'cat': 'II', 'resp': 'reach'}",28,182,Left,21.59218799750806,40.31308826962858,1.079609399875403,0.63323650975691,Right,Incorrect,0.0,0.0,-45,45,2013,2370,-0.59
"{'cat': 'II', 'resp': 'reach'}",28,183,Right,70.1339326613249,39.591134372633924,3.5066966330662455,0.6218960844617654,Right,Correct,0.0,0.0,-45,45,2013,1470,-0.67
"{'cat': 'II', 'resp': 'reach'}",28,184,Right,85.01259319827709,59.722325807470355,4.250629659913854,0.9381161000602249,Left,Incorrect,0.0,0.0,-45,45,2004,1371,-2.4
"{'cat': 'II', 'resp': 'reach'}",28,185,Left,42.04799591555418,65.26591519851041,2.1023997957777087,1.0251945985872737,Left,Correct,0.0,0.0,-45,45,2013,2146,-2.49
"{'cat': 'II', 'resp': 'reach'}",28,186,Left,67.36032314697084,81.80774033721134,3.3680161573485417,1.2850329802508227,Left,Correct,0.0,0.0,-45,45,2013,1141,-2.38
"{'cat': 'II', 'resp': 'reach'}",28,187,Left,62.657790836884125,87.35536254754751,3.132889541844206,1.3721748261552413,Left,Correct,0.0,0.0,-45,45,2005,1120,-2.57
"{'cat': 'II', 'resp': 'reach'}",28,188,Right,75.5888117391694,51.1902829296786,3.77944058695847,0.8040950839353065,Left,Incorrect,0.0,0.0,-45,45,2004,825,-2.45
"{'cat': 'II', 'resp': 'reach'}",28,189,Right,50.737533391721215,36.16002645891663,2.5368766695860607,0.5680003673847251,Right,Correct,0.0,0.0,-45,45,2004,2146,-0.73
"{'cat': 'II', 'resp': 'reach'}",28,190,Left,17.59008422223615,34.26167087817185,0.8795042111118075,0.5381810676528802,Left,Correct,0.0,0.0,-45,45,2004,1654,-2.46
"{'cat': 'II', 'resp': 'reach'}",28,191,Left,45.78520744356624,62.292880261893934,2.2892603721783122,0.978494275008573,Right,Incorrect,0.0,0.0,-45,45,2004,1508,-0.76
"{'cat': 'II', 'resp': 'reach'}",28,192,Left,42.70988846421656,66.62374063841443,2.135494423210828,1.0465232707215726,Left,Correct,0.0,0.0,-45,45,2012,1100,-2.44
"{'cat': 'II', 'resp': 'reach'}",28,193,Left,29.315668242967018,46.3702723629062,1.4657834121483508,0.7283825350013194,Right,Incorrect,0.0,0.0,-45,45,2004,1250,-0.74
"{'cat': 'II', 'resp': 'reach'}",28,194,Left,47.74450987444605,72.09786707597102,2.387225493722303,1.1325106477268199,Left,Correct,0.0,0.0,-45,45,2004,1891,-2.36
"{'cat': 'II', 'resp': 'reach'}",28,195,Left,30.06288049991922,40.1205924225983,1.503144024995961,0.6302127920625257,Right,Incorrect,0.0,0.0,-45,45,2009,2075,-0.74
"{'cat': 'II', 'resp': 'reach'}",28,196,Right,65.4235276775747,43.11627380456478,3.271176383878735,0.6772688451729337,Left,Incorrect,0.0,0.0,-45,45,2008,2125,-2.32
"{'cat': 'II', 'resp': 'reach'}",28,197,Left,51.512800662278174,70.70734642987429,2.575640033113909,1.110668400494608,Left,Correct,0.0,0.0,-45,45,2008,1217,-2.31
"{'cat': 'II', 'resp': 'reach'}",28,198,Left,20.425025817219478,48.900669028377465,1.0212512908609739,0.7681299128758828,Left,Correct,0.0,0.0,-45,45,2012,1100,-2.31
"{'cat': 'II', 'resp': 'reach'}",28,199,Right,36.37650852843968,11.802943428712034,1.8188254264219839,0.18540020183188824,Left,Incorrect,0.0,0.0,-45,45,2004,1175,-2.52
"{'cat': 'II', 'resp': 'reach'}",28,200,Right,80.10258334260512,52.33204791617367,4.005129167130256,0.8220298864038013,Right,Correct,0.0,0.0,-45,45,2012,2179,-0.82
"{'cat': 'II', 'resp': 'reach'}",28,201,Left,47.45512047216116,63.81352576452736,2.372756023608058,1.0023805187075108,Right,Incorrect,0.0,0.0,-45,45,2004,1429,-0.76
"{'cat': 'II', 'resp': 'reach'}",28,202,Right,47.830876022459805,37.41002806789265,2.39154380112299,0.5876353467433976,Right,Correct,0.0,0.0,-45,45,2004,1338,-0.77
"{'cat': 'II', 'resp': 'reach'}",28,203,Left,32.241570680724465,48.36193602622606,1.6120785340362231,0.7596675146668568,Left,Correct,0.0,0.0,-45,45,2009,2054,-2.49
"{'cat': 'II', 'resp': 'reach'}",28,204,Right,66.5878302078409,47.26548176675663,3.329391510392045,0.7424444514341247,Right,Correct,0.0,0.0,-45,45,2013,1137,-0.82
"{'cat': 'II', 'resp': 'reach'}",28,205,Right,49.96201594946939,28.741169574383274,2.4981007974734695,0.45146523595230487,Right,Correct,0.0,0.0,-45,45,2004,1641,-0.7
"{'cat': 'II', 'resp': 'reach'}",28,206,Right,86.28088127661991,57.97909489247503,4.314044063830995,0.9107334928799253,Right,Correct,0.0,0.0,-45,45,2013,2325,-0.79
"{'cat': 'II', 'resp': 'reach'}",28,207,Left,48.626893726768245,66.09771906932629,2.431344686338412,1.0382605432361873,Left,Correct,0.0,0.0,-45,45,2008,1346,-2.54
"{'cat': 'II', 'resp': 'reach'}",28,208,Right,46.754617264976645,24.15133244857184,2.337730863248832,0.3793682429741904,Right,Correct,0.0,0.0,-45,45,2008,1358,-0.78
"{'cat': 'II', 'resp': 'reach'}",28,209,Right,56.23965002333004,41.66207721819191,2.8119825011665025,0.6544263786098119,Right,Correct,0.0,0.0,-45,45,2004,1954,-0.8
"{'cat': 'II', 'resp': 'reach'}",28,210,Left,31.513734848072183,52.02523898475973,1.575686742403609,0.8172105429788724,Left,Correct,0.0,0.0,-45,45,2004,2458,-2.43
"{'cat': 'II', 'resp': 'reach'}",28,211,Left,22.778257236466203,51.21443544628505,1.1389128618233102,0.8044744707789891,Left,Correct,0.0,0.0,-45,45,2004,2179,-2.46
"{'cat': 'II', 'resp': 'reach'}",28,212,Left,17.43603642464007,35.85958703405727,0.8718018212320033,0.5632810759347907,Left,Correct,0.0,0.0,-45,45,2004,1379,-2.53
"{'cat': 'II', 'resp': 'reach'}",28,213,Left,61.46978870526948,78.87372188201064,3.073489435263474,1.2389455261290458,Right,Incorrect,0.0,0.0,-45,45,2004,1563,-0.76
"{'cat': 'II', 'resp': 'reach'}",28,214,Left,63.79874576853041,81.59658475501391,3.1899372884265205,1.281716156121843,Left,Correct,0.0,0.0,-45,45,2008,1017,-2.5
"{'cat': 'II', 'resp': 'reach'}",28,215,Left,30.71607843267522,56.759158712646524,1.5358039216337611,0.891570780177937,Left,Correct,0.0,0.0,-45,45,2004,1870,-2.45
"{'cat': 'II', 'resp': 'reach'}",28,216,Left,46.96054259611765,77.51956641490065,2.3480271298058826,1.2176745017925898,Left,Correct,0.0,0.0,-45,45,2004,1388,-2.37
"{'cat': 'II', 'resp': 'reach'}",28,217,Left,47.98940671231776,75.83920178611555,2.399470335615888,1.1912793959268726,Left,Correct,0.0,0.0,-45,45,2012,958,-2.53
"{'cat': 'II', 'resp': 'reach'}",28,218,Right,49.48682218546165,28.43356301778509,2.4743411092730825,0.4466333634602804,Right,Correct,0.0,0.0,-45,45,2005,1108,-0.75
"{'cat': 'II', 'resp': 'reach'}",28,219,Left,19.042084617461192,43.93503518375356,0.9521042308730597,0.6901299188424465,Left,Correct,0.0,0.0,-45,45,2004,2500,-2.6
"{'cat': 'II', 'resp': 'reach'}",28,220,Right,66.91843259577128,40.43866779355434,3.3459216297885637,0.6352091083059423,Right,Correct,0.0,0.0,-45,45,2005,1016,-0.69
"{'cat': 'II', 'resp': 'reach'}",28,221,Right,71.24354012936479,47.897402057281276,3.562177006468239,0.7523706321459573,Right,Correct,0.0,0.0,-45,45,2004,2509,-0.71
"{'cat': 'II', 'resp': 'reach'}",28,222,Right,60.678432676071985,50.28898048597636,3.0339216338035992,0.789937458256319,Right,Correct,0.0,0.0,-45,45,2004,1287,-0.71
"{'cat': 'II', 'resp': 'reach'}",28,223,Left,20.097252784007456,41.338566984222055,1.0048626392003728,0.6493446917378078,Right,Incorrect,0.0,0.0,-45,45,2004,5633,-0.71
"{'cat': 'II', 'resp': 'reach'}",28,224,Left,43.393044584835955,52.10238412847607,2.1696522292417977,0.8184223360626692,Left,Correct,0.0,0.0,-45,45,2004,1413,-2.43
"{'cat': 'II', 'resp': 'reach'}",28,225,Left,49.82351760871511,77.7311200178466,2.4911758804357556,1.2209975780168671,Left,Correct,0.0,0.0,-45,45,2004,1421,-2.61
"{'cat': 'II', 'resp': 'reach'}",28,226,Right,77.36634164189232,49.203383445330765,3.8683170820946158,0.7728849398180639,Left,Incorrect,0.0,0.0,-45,45,2008,967,-2.48
"{'cat': 'II', 'resp': 'reach'}",28,227,Left,19.189696445765126,43.82004738187713,0.9594848222882563,0.6883236946743092,Left,Correct,0.0,0.0,-45,45,2004,1079,-2.53
"{'cat': 'II', 'resp': 'reach'}",28,228,Right,37.1313284279502,19.160758313973247,1.85656642139751,0.30097648778193953,Right,Correct,0.0,0.0,-45,45,2004,1058,-0.71
"{'cat': 'II', 'resp': 'reach'}",28,229,Left,30.134585863761092,41.69251296279975,1.5067292931880547,0.6549044621681446,Right,Incorrect,0.0,0.0,-45,45,2008,1833,-0.74
"{'cat': 'II', 'resp': 'reach'}",28,230,Left,38.31349870664991,58.35709291602883,1.9156749353324956,0.9166710719492658,Left,Correct,0.0,0.0,-45,45,2009,1229,-2.37
"{'cat': 'II', 'resp': 'reach'}",28,231,Left,24.619867363394242,48.44844175946989,1.230993368169712,0.7610263435471177,Left,Correct,0.0,0.0,-45,45,2004,1283,-2.41
"{'cat': 'II', 'resp': 'reach'}",28,232,Left,34.52083220042612,52.66948847833443,1.726041610021306,0.8273303903593385,Left,Correct,0.0,0.0,-45,45,2005,1191,-2.31
"{'cat': 'II', 'resp': 'reach'}",28,233,Left,18.50696306715247,33.00430741692932,0.9253481533576234,0.5184304485892214,Left,Correct,0.0,0.0,-45,45,2008,1417,-2.54
"{'cat': 'II', 'resp': 'reach'}",28,234,Left,12.571009936850107,39.80947087440886,0.6285504968425053,0.6253257062116985,Left,Correct,0.0,0.0,-45,45,2004,1125,-2.38
"{'cat': 'II', 'resp': 'reach'}",28,235,Right,68.8786955260904,58.0288360272759,3.44393477630452,0.9115148247982835,Left,Incorrect,0.0,0.0,-45,45,2017,2216,-3.1
"{'cat': 'II', 'resp': 'reach'}",28,236,Left,43.0648104225338,67.76562614120228,2.15324052112669,1.0644599662555676,Left,Correct,0.0,0.0,-45,45,2013,1554,-2.56
"{'cat': 'II', 'resp': 'reach'}",28,237,Right,36.02696942298341,24.417248814474398,1.8013484711491707,0.38354524748213426,Right,Correct,0.0,0.0,-45,45,2004,1191,-0.81
"{'cat': 'II', 'resp': 'reach'}",28,238,Right,48.14384047589837,28.574444433375817,2.4071920237949187,0.4488463235615161,Right,Correct,0.0,0.0,-45,45,2004,1042,-0.82
"{'cat': 'II', 'resp': 'reach'}",28,239,Left,63.83315152174136,80.29363419652435,3.1916575760870676,1.2612494566091355,Left,Correct,0.0,0.0,-45,45,2008,1017,-2.46
"{'cat': 'II', 'resp': 'reach'}",28,240,Right,43.36378219370082,21.70237255798338,2.168189109685041,0.3409000709681466,Right,Correct,0.0,0.0,-45,45,2004,1137,-0.81
"{'cat': 'II', 'resp': 'reach'}",28,241,Left,39.14224233160788,52.54401836746766,1.9571121165803942,0.8253595104666178,Left,Correct,0.0,0.0,-45,45,2008,1329,-2.39
"{'cat': 'II', 'resp': 'reach'}",28,242,Right,33.678905855380805,15.049455223749746,1.6839452927690401,0.2363962898573037,Right,Correct,0.0,0.0,-45,45,2013,829,-0.87
"{'cat': 'II', 'resp': 'reach'}",28,243,Left,42.33660292990649,74.35455146783927,2.1168301464953245,1.1679585632616403,Left,Correct,0.0,0.0,-45,45,2004,1108,-2.48
"{'cat': 'II', 'resp': 'reach'}",28,244,Left,48.372694435868944,75.27751969826403,2.418634721793447,1.1824565143226362,Left,Correct,0.0,0.0,-45,45,2005,1066,-2.23
"{'cat': 'II', 'resp': 'reach'}",28,245,Right,75.23802245084016,62.83096417759407,3.761901122542008,0.9869464773914648,Left,Incorrect,0.0,0.0,-45,45,2013,1142,-2.46
"{'cat': 'II', 'resp': 'reach'}",28,246,Right,64.45916438319784,40.98910228481764,3.2229582191598922,0.6438553130761185,Right,Correct,0.0,0.0,-45,45,2004,1371,-0.83
"{'cat': 'II', 'resp': 'reach'}",28,247,Right,46.67604669160999,35.257988689699374,2.3338023345804997,0.5538311912395578,Right,Correct,0.0,0.0,-45,45,2016,2900,-0.71
"{'cat': 'II', 'resp': 'reach'}",28,248,Right,39.489707734808434,27.177857475598564,1.9744853867404217,0.42690878692825446,Left,Incorrect,0.0,0.0,-45,45,2008,2025,-2.54
"{'cat': 'II', 'resp': 'reach'}",28,249,Left,30.616922670388167,54.01770199163731,1.5308461335194083,0.8485080787036524,Left,Correct,0.0,0.0,-45,45,2009,1791,-2.51
"{'cat': 'II', 'resp': 'reach'}",28,250,Right,57.472949254787636,29.67051562756751,2.873647462739382,0.46606336961893624,Right,Correct,0.0,0.0,-45,45,2004,904,-0.76
"{'cat': 'II', 'resp': 'reach'}",28,251,Right,62.46567787991821,48.00162843684742,3.1232838939959104,0.7540078162877337,Right,Correct,0.0,0.0,-45,45,2004,1842,-0.79
"{'cat': 'II', 'resp': 'reach'}",28,252,Right,43.819563194801,27.262565175976007,2.19097815974005,0.42823937237429577,Right,Correct,0.0,0.0,-45,45,2013,1258,-0.8
"{'cat': 'II', 'resp': 'reach'}",28,253,Right,71.59110078292035,52.94720210865253,3.5795550391460176,0.8316927058633841,Right,Correct,0.0,0.0,-45,45,2009,1037,-0.76
"{'cat': 'II', 'resp': 'reach'}",28,254,Left,22.85579988616987,45.50903895007285,1.1427899943084936,0.714854312187403,Left,Correct,0.0,0.0,-45,45,2005,1041,-2.49
"{'cat': 'II', 'resp': 'reach'}",28,255,Right,75.19790226436272,53.48247299108661,3.759895113218136,0.840100721223061,Left,Incorrect,0.0,0.0,-45,45,2004,1633,-2.38
"{'cat': 'II', 'resp': 'reach'}",28,256,Right,77.3113970846658,46.5747320446041,3.86556985423329,0.7315941801712068,Right,Correct,0.0,0.0,-45,45,2008,1641,-0.76
"{'cat': 'II', 'resp': 'reach'}",28,257,Right,39.61652312181921,29.198148912861466,1.9808261560909608,0.45864345061533196,Left,Incorrect,0.0,0.0,-45,45,2005,975,-2.45
"{'cat': 'II', 'resp': 'reach'}",28,258,Left,38.303353450608526,60.42603058762895,1.9151676725304265,0.9491698688984361,Left,Correct,0.0,0.0,-45,45,2012,1088,-2.64
"{'cat': 'II', 'resp': 'reach'}",28,259,Right,75.4433216362306,43.87099751434502,3.7721660818115303,0.6891240174836119,Right,Correct,0.0,0.0,-45,45,2008,1217,-0.71
"{'cat': 'II', 'resp': 'reach'}",28,260,Right,52.54645490257439,33.510261260846036,2.627322745128719,0.5263779529847428,Left,Incorrect,0.0,0.0,-45,45,2013,971,-2.52
"{'cat': 'II', 'resp': 'reach'}",28,261,Left,51.17696188658196,78.43409227206887,2.5588480943290977,1.2320398403645774,Left,Correct,0.0,0.0,-45,45,2008,1209,-2.41
"{'cat': 'II', 'resp': 'reach'}",28,262,Right,49.45292756742852,39.18279973768724,2.472646378371426,0.6154819790149915,Right,Correct,0.0,0.0,-45,45,2004,5388,-0.68
"{'cat': 'II', 'resp': 'reach'}",28,263,Right,67.7187427856939,50.160052114016125,3.385937139284695,0.7879122561253712,Right,Correct,0.0,0.0,-45,45,2008,2366,-0.72
"{'cat': 'II', 'resp': 'reach'}",28,264,Left,14.488330247178187,39.3274699306444,0.7244165123589092,0.6177544530919297,Right,Incorrect,0.0,0.0,-45,45,2004,2658,-0.85
"{'cat': 'II', 'resp': 'reach'}",28,265,Left,46.34225272148841,73.28686105482944,2.3171126360744205,1.1511873214725403,Left,Correct,0.0,0.0,-45,45,2012,1080,-2.35
"{'cat': 'II', 'resp': 'reach'}",28,266,Right,68.95474351873747,42.76248954542296,3.4477371759368736,0.6717116150255554,Right,Correct,0.0,0.0,-45,45,2016,4188,-0.74
"{'cat': 'II', 'resp': 'reach'}",28,267,Right,69.83342400311334,37.425014723325205,3.491671200155667,0.5878707565764415,Right,Correct,0.0,0.0,-45,45,2005,1229,-0.74
"{'cat': 'II', 'resp': 'reach'}",28,268,Left,23.808221378564017,45.13527830265492,1.1904110689282008,0.7089832936667574,Left,Correct,0.0,0.0,-45,45,2004,975,-2.4
"{'cat': 'II', 'resp': 'reach'}",28,269,Right,39.24292248664029,12.46434684576532,1.9621461243320144,0.19578950241225715,Right,Correct,0.0,0.0,-45,45,2012,1746,-0.81
"{'cat': 'II', 'resp': 'reach'}",28,270,Right,31.22844584741577,11.019304331458613,1.5614222923707886,0.17309082767690281,Right,Correct,0.0,0.0,-45,45,2008,925,-0.84
"{'cat': 'II', 'resp': 'reach'}",28,271,Left,27.518347327687273,40.48119333235342,1.3759173663843638,0.6358770979073481,Right,Incorrect,0.0,0.0,-45,45,2004,1409,-0.6
"{'cat': 'II', 'resp': 'reach'}",28,272,Right,76.65623381196656,47.91959734180174,3.832811690598328,0.7527192748599266,Right,Correct,0.0,0.0,-45,45,2008,1237,-0.75
"{'cat': 'II', 'resp': 'reach'}",28,273,Right,66.9659962816711,36.003218719672034,3.3482998140835547,0.5655372371765408,Left,Incorrect,0.0,0.0,-45,45,2012,1392,-2.53
"{'cat': 'II', 'resp': 'reach'}",28,274,Right,51.256253192155825,40.274766351416304,2.5628126596077916,0.6326345504732742,Right,Correct,0.0,0.0,-45,45,2012,2009,-0.94
"{'cat': 'II', 'resp': 'reach'}",28,275,Left,26.85911649375458,52.05690516507329,1.342955824687729,0.8177079541760739,Left,Correct,0.0,0.0,-45,45,2004,1971,-2.47
"{'cat': 'II', 'resp': 'reach'}",28,276,Left,34.960203321568294,52.49157938820328,1.7480101660784146,0.8245358009065241,Left,Correct,0.0,0.0,-45,45,2008,1034,-2.46
"{'cat': 'II', 'resp': 'reach'}",28,277,Left,25.343489513629574,45.92963204825989,1.2671744756814787,0.721460973124478,Left,Correct,0.0,0.0,-45,45,2004,1329,-2.51
"{'cat': 'II', 'resp': 'reach'}",28,278,Right,73.30635028435469,63.09220571209862,3.665317514217735,0.991050049819525,Left,Incorrect,0.0,0.0,-45,45,2016,1100,-2.54
"{'cat': 'II', 'resp': 'reach'}",28,279,Right,70.50644452607486,55.390353180745535,3.525322226303743,0.870069633161871,Left,Incorrect,0.0,0.0,-45,45,2012,2471,-2.41
"{'cat': 'II', 'resp': 'reach'}",28,280,Left,24.863087545270762,37.08890354219761,1.243154377263538,0.5825911344893424,Right,Incorrect,0.0,0.0,-45,45,2004,1025,-0.71
"{'cat': 'II', 'resp': 'reach'}",28,281,Left,43.36396158003716,62.47987333331605,2.1681980790018582,0.9814315553058326,Left,Correct,0.0,0.0,-45,45,2004,1471,-2.38
"{'cat': 'II', 'resp': 'reach'}",28,282,Left,53.87652232572705,74.0831163932888,2.693826116286352,1.1636948710809683,Left,Correct,0.0,0.0,-45,45,2004,954,-2.43
"{'cat': 'II', 'resp': 'reach'}",28,283,Right,73.5641968292571,42.59987888895349,3.678209841462855,0.669157332806756,Left,Incorrect,0.0,0.0,-45,45,2004,780,-2.49
"{'cat': 'II', 'resp': 'reach'}",28,284,Right,47.01284824596249,18.54181402369909,2.350642412298124,0.29125413360540625,Right,Correct,0.0,0.0,-45,45,2004,687,-0.8
"{'cat': 'II', 'resp': 'reach'}",28,285,Right,40.4042915308934,25.62757898868633,2.02021457654467,0.4025570694007456,Left,Incorrect,0.0,0.0,-45,45,2004,1300,-2.4
"{'cat': 'II', 'resp': 'reach'}",28,286,Left,41.56720342567204,65.41740111609987,2.078360171283602,1.0275741338163806,Left,Correct,0.0,0.0,-45,45,2004,917,-2.5
"{'cat': 'II', 'resp': 'reach'}",28,287,Left,28.55090083023216,51.04067660093381,1.427545041511608,0.8017450732187305,Left,Correct,0.0,0.0,-45,45,2012,1946,-2.51
"{'cat': 'II', 'resp': 'reach'}",28,288,Left,36.57502038605647,64.59421520756547,1.8287510193028238,1.0146435598024288,Left,Correct,0.0,0.0,-45,45,2008,1367,-2.37
"{'cat': 'II', 'resp': 'reach'}",28,289,Right,69.88278984540058,39.300198272429014,3.494139492270029,0.6173260708864263,Right,Correct,0.0,0.0,-45,45,2004,1634,-0.7
"{'cat': 'II', 'resp': 'reach'}",28,290,Left,48.227346550060886,68.55398451135069,2.411367327503044,1.076843470575839,Left,Correct,0.0,0.0,-45,45,2013,2058,-2.36
"{'cat': 'II', 'resp': 'reach'}",28,291,Right,51.5475895956722,20.440642229827052,2.57737947978361,0.3210808573194098,Right,Correct,0.0,0.0,-45,45,2008,1038,-0.78
"{'cat': 'II', 'resp': 'reach'}",28,292,Right,79.24579843855355,62.51490986546176,3.9622899219276775,0.9819819078658137,Left,Incorrect,0.0,0.0,-45,45,2004,1783,-2.45
"{'cat': 'II', 'resp': 'reach'}",28,293,Left,46.089821748816554,58.107148984508214,2.3044910874408275,0.912744961853893,Left,Correct,0.0,0.0,-45,45,2005,1470,-2.5
"{'cat': 'II', 'resp': 'reach'}",28,294,Left,49.815195252981354,66.55321782502901,2.490759762649068,1.045415500959362,Left,Correct,0.0,0.0,-45,45,2008,1400,-2.5
"{'cat': 'II', 'resp': 'reach'}",28,295,Right,75.82428672037668,44.891054761177415,3.7912143360188337,0.7051470392480603,Right,Correct,0.0,0.0,-45,45,2013,1141,-0.77
"{'cat': 'II', 'resp': 'reach'}",28,296,Left,29.646707438468038,52.89668980805051,1.4823353719234018,0.8308992605009479,Left,Correct,0.0,0.0,-45,45,2008,1863,-2.38
"{'cat': 'II', 'resp': 'reach'}",28,297,Right,58.082545340376996,37.72508053553933,2.90412726701885,0.5925841793326682,Right,Correct,0.0,0.0,-45,45,2008,1904,-0.9
"{'cat': 'II', 'resp': 'reach'}",28,298,Right,67.41736164659254,36.53324234698619,3.3708680823296273,0.5738628288455369,Right,Correct,0.0,0.0,-45,45,2013,950,-0.83
"{'cat': 'II', 'resp': 'reach'}",28,299,Left,21.57993990265308,50.20061921139953,1.0789969951326541,0.788549482600957,Left,Correct,0.0,0.0,-45,45,2004,937,-2.45
"{'cat': 'II', 'resp': 'reach'}",28,300,Left,36.04453464320673,53.10398930777062,1.8022267321603365,0.8341555134280153,Left,Correct,0.0,0.0,-45,45,2013,1258,-2.36
"{'cat': 'II', 'resp': 'reach'}",28,301,Right,81.82886180986118,53.38280540502933,4.091443090493059,0.8385351464422682,Right,Correct,0.0,0.0,-45,45,2004,1450,-0.85
"{'cat': 'II', 'resp': 'reach'}",28,302,Right,44.30070311605099,35.66727773381041,2.2150351558025494,0.560260288510428,Left,Incorrect,0.0,0.0,-45,45,2012,2784,-2.46
"{'cat': 'II', 'resp': 'reach'}",28,303,Right,60.02272471025549,40.58589436115235,3.0011362355127744,0.6375217378218382,Left,Incorrect,0.0,0.0,-45,45,2012,6158,-2.36
"{'cat': 'II', 'resp': 'reach'}",28,304,Left,13.27595203031699,39.81394345520688,0.6637976015158494,0.6253959613465867,Right,Incorrect,0.0,0.0,-45,45,2004,1438,-0.82
"{'cat': 'II', 'resp': 'reach'}",28,305,Right,74.1217318414801,44.09689610785556,3.706086592074005,0.6926724242927568,Right,Correct,0.0,0.0,-45,45,2004,1613,-0.85
"{'cat': 'II', 'resp': 'reach'}",28,306,Right,50.189676732174206,20.988060405047644,2.50948383660871,0.32967968190798247,Right,Correct,0.0,0.0,-45,45,2004,1270,-0.75
"{'cat': 'II', 'resp': 'reach'}",28,307,Left,18.86130498617066,41.66826921782821,0.943065249308533,0.654523642312654,Left,Correct,0.0,0.0,-45,45,2013,1612,-2.34
"{'cat': 'II', 'resp': 'reach'}",28,308,Left,11.483445979741003,36.98015110825145,0.5741722989870501,0.580882855251616,Left,Correct,0.0,0.0,-45,45,2016,996,-2.42
"{'cat': 'II', 'resp': 'reach'}",28,309,Right,80.65726359601938,49.581433755380814,4.032863179800969,0.7788233402017667,Right,Correct,0.0,0.0,-45,45,2004,1675,-0.78
"{'cat': 'II', 'resp': 'reach'}",28,310,Left,32.35307933641283,44.11840148271881,1.6176539668206416,0.6930102299311723,Left,Correct,0.0,0.0,-45,45,2008,3462,-2.64
"{'cat': 'II', 'resp': 'reach'}",28,311,Left,52.945580860707295,72.47332308270624,2.6472790430353648,1.1384082968893476,Left,Correct,0.0,0.0,-45,45,2012,1746,-2.38
"{'cat': 'II', 'resp': 'reach'}",28,312,Right,77.9071959497409,66.11826731095063,3.8953597974870444,1.0385833142608434,Left,Incorrect,0.0,0.0,-45,45,2013,1675,-2.45
"{'cat': 'II', 'resp': 'reach'}",28,313,Left,22.375385028153566,41.17533270594286,1.1187692514076784,0.6467806136905281,Left,Correct,0.0,0.0,-45,45,2005,824,-2.43
"{'cat': 'II', 'resp': 'reach'}",28,314,Right,67.64414746898518,47.66047403321464,3.3822073734492593,0.748648975446771,Right,Correct,0.0,0.0,-45,45,2004,933,-0.78
"{'cat': 'II', 'resp': 'reach'}",28,315,Right,43.56870755212029,29.78172335849664,2.1784353776060144,0.467810216571483,Left,Incorrect,0.0,0.0,-45,45,2012,1259,-2.45
"{'cat': 'II', 'resp': 'reach'}",28,316,Left,26.677692192231312,50.814910443017716,1.3338846096115657,0.7981987467030385,Left,Correct,0.0,0.0,-45,45,2008,1387,-2.47
"{'cat': 'II', 'resp': 'reach'}",28,317,Left,69.46972600757248,85.81080687019518,3.473486300378624,1.3479130023100885,Right,Incorrect,0.0,0.0,-45,45,2005,1875,-0.66
"{'cat': 'II', 'resp': 'reach'}",28,318,Left,40.75987284141196,49.91758454299431,2.0379936420705977,0.7841035844260916,Left,Correct,0.0,0.0,-45,45,2004,1542,-3.09
"{'cat': 'II', 'resp': 'reach'}",28,319,Right,60.166128613985805,41.272051430858234,3.00830643069929,0.6482998678688217,Right,Correct,0.0,0.0,-45,45,2005,1883,-0.81
"{'cat': 'II', 'resp': 'reach'}",28,320,Left,51.80899103721228,65.50745160899427,2.590449551860614,1.0289886436510265,Left,Correct,0.0,0.0,-45,45,2004,1904,-2.48
"{'cat': 'II', 'resp': 'reach'}",28,321,Left,37.4786127746636,60.80674858872986,1.87393063873318,0.9551501732751762,Left,Correct,0.0,0.0,-45,45,2016,1663,-2.51
"{'cat': 'II', 'resp': 'reach'}",28,322,Right,65.22309462750482,47.020261415776304,3.2611547313752407,0.7385925391683721,Right,Correct,0.0,0.0,-45,45,2004,967,-0.72
"{'cat': 'II', 'resp': 'reach'}",28,323,Right,51.33904835690656,20.74555584577271,2.5669524178453282,0.32587042919858167,Right,Correct,0.0,0.0,-45,45,2008,1429,-0.85
"{'cat': 'II', 'resp': 'reach'}",28,324,Left,33.3928014660801,62.24225172971518,1.669640073304005,0.977699003884799,Left,Correct,0.0,0.0,-45,45,2004,1008,-2.39
"{'cat': 'II', 'resp': 'reach'}",28,325,Right,65.73134310266292,35.11993934420612,3.2865671551331457,0.5516627171913855,Right,Correct,0.0,0.0,-45,45,2012,1421,-0.81
"{'cat': 'II', 'resp': 'reach'}",28,326,Right,61.98373573576887,41.424151618867846,3.0991867867884433,0.6506890520351248,Right,Correct,0.0,0.0,-45,45,2004,2509,-0.93
"{'cat': 'II', 'resp': 'reach'}",28,327,Right,67.5317700881229,42.16960372787948,3.376588504406145,0.6623985863814947,Right,Correct,0.0,0.0,-45,45,2004,3958,-0.75
"{'cat': 'II', 'resp': 'reach'}",28,328,Left,46.62652195446421,67.44677436018482,2.3313260977232106,1.0594514541914253,Left,Correct,0.0,0.0,-45,45,2013,1121,-2.39
"{'cat': 'II', 'resp': 'reach'}",28,329,Right,64.9919209964912,49.83014584067578,3.2495960498245604,0.7827301005018752,Left,Incorrect,0.0,0.0,-45,45,2004,1854,-2.47
"{'cat': 'II', 'resp': 'reach'}",28,330,Right,66.55413057784048,44.88217523168206,3.3277065288920245,0.7050075599249107,Left,Incorrect,0.0,0.0,-45,45,2004,2375,-2.58
"{'cat': 'II', 'resp': 'reach'}",28,331,Left,31.98275335033224,63.14132350258148,1.599137667516612,0.9918215902682326,Left,Correct,0.0,0.0,-45,45,2004,1462,-2.49
"{'cat': 'II', 'resp': 'reach'}",28,332,Right,52.06862010562346,27.584511677300004,2.603431005281173,0.43329649619133775,Right,Correct,0.0,0.0,-45,45,2017,837,-0.89
"{'cat': 'II', 'resp': 'reach'}",28,333,Left,20.923447058031325,37.082323946022015,1.0461723529015663,0.5824877824342982,Left,Correct,0.0,0.0,-45,45,2004,1366,-2.45
"{'cat': 'II', 'resp': 'reach'}",28,334,Right,50.063725633671716,25.78985965017364,2.5031862816835857,0.40510616807048666,Right,Correct,0.0,0.0,-45,45,2004,917,-0.82
"{'cat': 'II', 'resp': 'reach'}",28,335,Left,21.33123899180711,37.57905574930176,1.0665619495903556,0.5902904273542384,Left,Correct,0.0,0.0,-45,45,2004,1109,-2.48
"{'cat': 'II', 'resp': 'reach'}",28,336,Left,49.751358930308314,74.8672425015317,2.4875679465154157,1.1760118951866876,Left,Correct,0.0,0.0,-45,45,2004,1180,-2.52
"{'cat': 'II', 'resp': 'reach'}",28,337,Right,83.86072881220807,56.61759851872014,4.1930364406104035,0.8893471578515377,Left,Incorrect,0.0,0.0,-45,45,2004,1663,-2.3
"{'cat': 'II', 'resp': 'reach'}",28,338,Right,39.83772071565332,19.164670943794746,1.991886035782666,0.3010379472274567,Right,Correct,0.0,0.0,-45,45,2013,1704,-0.87
"{'cat': 'II', 'resp': 'reach'}",28,339,Right,67.12428521533215,41.2402398632476,3.356214260766608,0.6478001729332981,Left,Incorrect,0.0,0.0,-45,45,2005,2570,-2.47
"{'cat': 'II', 'resp': 'reach'}",28,340,Left,33.85636250150276,66.83411630009887,1.692818125075138,1.0498278438877822,Left,Correct,0.0,0.0,-45,45,2004,1176,-2.5
"{'cat': 'II', 'resp': 'reach'}",28,341,Left,33.27415243170045,49.94552938644152,1.6637076215850226,0.7845425410004889,Left,Correct,0.0,0.0,-45,45,2004,904,-2.46
"{'cat': 'II', 'resp': 'reach'}",28,342,Right,42.45605639570297,23.470415046594777,2.1228028197851487,0.3686724174354274,Right,Correct,0.0,0.0,-45,45,2009,825,-0.84
"{'cat': 'II', 'resp': 'reach'}",28,343,Left,24.755029374214494,48.89716424937298,1.2377514687107247,0.768074859936018,Left,Correct,0.0,0.0,-45,45,2013,687,-2.48
"{'cat': 'II', 'resp': 'reach'}",28,344,Left,45.614273495545355,75.67820828238897,2.280713674777268,1.188750515883957,Left,Correct,0.0,0.0,-45,45,2008,1308,-2.5
"{'cat': 'II', 'resp': 'reach'}",28,345,Right,65.60216349494338,53.628834256825115,3.2801081747471694,0.842399758609132,Right,Correct,0.0,0.0,-45,45,2012,1450,-0.81
"{'cat': 'II', 'resp': 'reach'}",28,346,Left,41.45328372684452,57.296119179002794,2.0726641863422257,0.9000053354598022,Left,Correct,0.0,0.0,-45,45,2004,746,-2.49
"{'cat': 'II', 'resp': 'reach'}",28,347,Right,77.0317467687311,60.52642172113838,3.8515873384365547,0.95074680913603,Right,Correct,0.0,0.0,-45,45,2004,1992,-0.78
"{'cat': 'II', 'resp': 'reach'}",28,348,Left,25.485760270793374,46.24122602513688,1.2742880135396688,0.7263554798677759,Left,Correct,0.0,0.0,-45,45,2008,967,-2.51
"{'cat': 'II', 'resp': 'reach'}",28,349,Left,24.15236582466367,50.49629884943216,1.2076182912331834,0.793194007494254,Left,Correct,0.0,0.0,-45,45,2004,884,-2.63
"{'cat': 'II', 'resp': 'reach'}",28,350,Left,67.88663688210269,89.87120434932594,3.394331844105135,1.4116935767655472,Left,Correct,0.0,0.0,-45,45,2004,1079,-2.66
"{'cat': 'II', 'resp': 'reach'}",28,351,Right,64.07396930287501,48.19696287874264,3.203698465143751,0.7570761225259891,Left,Incorrect,0.0,0.0,-45,45,2009,1158,-2.53
"{'cat': 'II', 'resp': 'reach'}",28,352,Right,51.14150001604623,23.675606240444303,2.5570750008023113,0.37189555317132245,Right,Correct,0.0,0.0,-45,45,2004,896,-0.88
"{'cat': 'II', 'resp': 'reach'}",28,353,Left,21.957803756438167,40.17534108141653,1.0978901878219083,0.631072781984212,Left,Correct,0.0,0.0,-45,45,2017,896,-2.59
"{'cat': 'II', 'resp': 'reach'}",28,354,Left,18.748099238235916,45.01137830235156,0.9374049619117958,0.7070370770130933,Left,Correct,0.0,0.0,-45,45,2004,854,-2.57
"{'cat': 'II', 'resp': 'reach'}",28,355,Left,42.48509159656321,51.113828780474975,2.1242545798281607,0.8028941449679337,Left,Correct,0.0,0.0,-45,45,2017,1417,-2.57
"{'cat': 'II', 'resp': 'reach'}",28,356,Right,76.6182632022309,54.290927958198424,3.830913160111545,0.8527999021502445,Left,Incorrect,0.0,0.0,-45,45,2004,1350,-2.65
"{'cat': 'II', 'resp': 'reach'}",28,357,Right,87.68143642815997,68.64872391629999,4.384071821407998,1.07833163366881,Left,Incorrect,0.0,0.0,-45,45,2004,1167,-2.6
"{'cat': 'II', 'resp': 'reach'}",28,358,Left,47.93671463057143,72.68624247627443,2.3968357315285713,1.1417528269025505,Left,Correct,0.0,0.0,-45,45,2008,1146,-2.6
"{'cat': 'II', 'resp': 'reach'}",28,359,Left,44.63356472105882,70.83232821575767,2.231678236052941,1.1126316097964266,Left,Correct,0.0,0.0,-45,45,2013,1008,-2.51
"{'cat': 'II', 'resp': 'reach'}",28,360,Right,35.11047426795015,20.696547770344505,1.7555237133975077,0.32510061214992253,Right,Correct,0.0,0.0,-45,45,2017,796,-0.9
"{'cat': 'II', 'resp': 'reach'}",28,361,Left,36.13800505015761,64.29364222255018,1.8069002525078803,1.009922170394471,Left,Correct,0.0,0.0,-45,45,2004,967,-2.58
"{'cat': 'II', 'resp': 'reach'}",28,362,Right,42.88793575837479,24.135806632646826,2.1443967879187396,0.37912436402793537,Right,Correct,0.0,0.0,-45,45,2016,1188,-0.78
"{'cat': 'II', 'resp': 'reach'}",28,363,Right,70.74650984311583,50.19952447613028,3.5373254921557917,0.7885322865395594,Left,Incorrect,0.0,0.0,-45,45,2004,846,-2.53
"{'cat': 'II', 'resp': 'reach'}",28,364,Right,54.323254020004654,31.23146632443995,2.7161627010002327,0.4905827258284878,Right,Correct,0.0,0.0,-45,45,2004,867,-0.78
"{'cat': 'II', 'resp': 'reach'}",28,365,Right,77.18438812846593,47.7386269661563,3.8592194064232963,0.7498765988467012,Left,Incorrect,0.0,0.0,-45,45,2004,1054,-2.52
"{'cat': 'II', 'resp': 'reach'}",28,366,Right,33.0268026177728,17.713204449384612,1.6513401308886402,0.2782383648486037,Right,Correct,0.0,0.0,-45,45,2017,787,-0.78
"{'cat': 'II', 'resp': 'reach'}",28,367,Left,14.548534205372924,39.181848132107646,0.7274267102686462,0.6154670312295016,Left,Correct,0.0,0.0,-45,45,2004,967,-2.37
"{'cat': 'II', 'resp': 'reach'}",28,368,Left,51.95536217896334,63.77560936244359,2.5977681089481672,1.0017849292563261,Left,Correct,0.0,0.0,-45,45,2004,2095,-2.49
"{'cat': 'II', 'resp': 'reach'}",28,369,Right,60.35233581476127,28.235505432715208,3.0176167907380638,0.443522282189064,Right,Correct,0.0,0.0,-45,45,2009,874,-0.84
"{'cat': 'II', 'resp': 'reach'}",28,370,Left,41.736379956827854,66.83766774482945,2.0868189978413927,1.0498836298511582,Left,Correct,0.0,0.0,-45,45,2004,1621,-2.47
"{'cat': 'II', 'resp': 'reach'}",28,371,Right,61.82218932599729,52.98360581046599,3.091109466299865,0.832264533874287,Right,Correct,0.0,0.0,-45,45,2004,1684,-0.8
"{'cat': 'II', 'resp': 'reach'}",28,372,Left,58.03049201568354,79.07950773004589,2.9015246007841773,1.2421780026710472,Left,Correct,0.0,0.0,-45,45,2004,1004,-2.32
"{'cat': 'II', 'resp': 'reach'}",28,373,Right,67.92151368635504,51.1840186103932,3.3960756843177524,0.8039966842380728,Right,Correct,0.0,0.0,-45,45,2004,1196,-0.81
"{'cat': 'II', 'resp': 'reach'}",28,374,Left,53.89770696319345,67.67409385342215,2.6948853481596724,1.063022180441286,Left,Correct,0.0,0.0,-45,45,2012,946,-2.6
"{'cat': 'II', 'resp': 'reach'}",28,375,Left,54.8461883362687,65.35152623640028,2.742309416813435,1.0265393736257786,Left,Correct,0.0,0.0,-45,45,2008,1067,-2.47
"{'cat': 'II', 'resp': 'reach'}",28,376,Right,66.60545230490237,52.45826377047923,3.3302726152451188,0.8240124804070655,Left,Incorrect,0.0,0.0,-45,45,2004,1508,-2.46
"{'cat': 'II', 'resp': 'reach'}",28,377,Right,82.07356127589375,64.52149312795177,4.103678063794688,1.013501244047088,Right,Correct,0.0,0.0,-45,45,2003,2117,-0.8
"{'cat': 'II', 'resp': 'reach'}",28,378,Right,39.51202880424852,16.104980344712082,1.9756014402124262,0.2529764396857775,Right,Correct,0.0,0.0,-45,45,2004,1067,-0.86
"{'cat': 'II', 'resp': 'reach'}",28,379,Right,36.33434341218681,11.080517518043127,1.8167171706093403,0.17405236216328648,Right,Correct,0.0,0.0,-45,45,2004,788,-0.84
"{'cat': 'II', 'resp': 'reach'}",28,380,Right,65.72869926800954,55.49477699111252,3.286434963400477,0.871709918539415,Left,Incorrect,0.0,0.0,-45,45,2009,1037,-2.49
"{'cat': 'II', 'resp': 'reach'}",28,381,Right,76.0969272178179,50.39343618219937,3.8048463608908953,0.7915782444957181,Right,Correct,0.0,0.0,-45,45,2004,904,-0.83
"{'cat': 'II', 'resp': 'reach'}",28,382,Right,73.73598749659399,42.75857827408973,3.6867993748297,0.6716501769191221,Right,Correct,0.0,0.0,-45,45,2004,704,-0.83
"{'cat': 'II', 'resp': 'reach'}",28,383,Left,58.17874396379777,81.90627704925669,2.908937198189889,1.2865807913041754,Left,Correct,0.0,0.0,-45,45,2004,1025,-2.49
"{'cat': 'II', 'resp': 'reach'}",28,384,Left,66.66204623283575,79.96055104700146,3.3331023116417873,1.256017398731257,Left,Correct,0.0,0.0,-45,45,2005,1037,-2.58
"{'cat': 'II', 'resp': 'reach'}",28,385,Left,52.78198088662214,75.48836046166731,2.6390990443311066,1.1857683932895613,Left,Correct,0.0,0.0,-45,45,2012,879,-2.42
"{'cat': 'II', 'resp': 'reach'}",28,386,Right,63.13978372260334,45.233415961495666,3.156989186130167,0.7105248364070305,Right,Correct,0.0,0.0,-45,45,2004,683,-0.83
"{'cat': 'II', 'resp': 'reach'}",28,387,Left,13.114757207612527,38.65140980450666,0.6557378603806263,0.6071349254636331,Left,Correct,0.0,0.0,-45,45,2004,1025,-2.57
"{'cat': 'II', 'resp': 'reach'}",28,388,Right,68.61919806434692,57.401531246880495,3.430959903217346,0.9016611443500235,Right,Correct,0.0,0.0,-45,45,2004,1158,-0.84
"{'cat': 'II', 'resp': 'reach'}",28,389,Left,15.6750260248763,41.79908068371458,0.783751301243815,0.6565784240138238,Left,Correct,0.0,0.0,-45,45,2004,896,-2.54
"{'cat': 'II', 'resp': 'reach'}",28,390,Left,34.728808488300196,59.86004513598867,1.7364404244150098,0.9402793902138771,Left,Correct,0.0,0.0,-45,45,2013,950,-2.43
"{'cat': 'II', 'resp': 'reach'}",28,391,Right,30.80874655509475,12.580847008231956,1.5404373277547376,0.1976194826849932,Right,Correct,0.0,0.0,-45,45,2017,846,-0.85
"{'cat': 'II', 'resp': 'reach'}",28,392,Right,49.06814629270052,36.15147583497634,2.453407314635026,0.5678660544979529,Right,Correct,0.0,0.0,-45,45,2008,846,-0.91
"{'cat': 'II', 'resp': 'reach'}",28,393,Left,51.02296311990731,66.14914203032092,2.5511481559953655,1.03906829321862,Left,Correct,0.0,0.0,-45,45,2012,1229,-2.51
"{'cat': 'II', 'resp': 'reach'}",28,394,Right,44.86758745232325,16.686674285142843,2.2433793726161624,0.2621136667352523,Right,Correct,0.0,0.0,-45,45,2004,833,-0.88
"{'cat': 'II', 'resp': 'reach'}",28,395,Right,83.24476826184912,68.16906464897525,4.162238413092456,1.0707971635165414,Left,Incorrect,0.0,0.0,-45,45,2012,1208,-2.45
"{'cat': 'II', 'resp': 'reach'}",28,396,Left,66.44450922460116,77.89565281518543,3.322225461230058,1.223582053153838,Right,Incorrect,0.0,0.0,-45,45,2004,1088,-0.87
"{'cat': 'II', 'resp': 'reach'}",28,397,Right,63.56713754342197,40.18059125473337,3.178356877171099,0.6311552515138233,Right,Correct,0.0,0.0,-45,45,2004,1200,-0.83
"{'cat': 'II', 'resp': 'reach'}",28,398,Left,42.277538936034055,56.311167009100814,2.1138769468017027,0.8845337429542951,Left,Correct,0.0,0.0,-45,45,2013,829,-2.41
"{'cat': 'II', 'resp': 'reach'}",28,399,Right,58.64609000059551,41.059412860079405,2.932304500029775,0.6449597490096787,Left,Incorrect,0.0,0.0,-45,45,2005,1179,-2.5
