condition,subject,trial,cat,x,y,xt,yt,resp,fb,rotation,su,target_angle_left,target_angle_right,rt,mt,ep
"{'cat': 'RB', 'resp': 'button'}",73,0,Right,58.73598865231184,55.01544433574771,2.936799432615592,0.8641805787958159,Right,Correct,0.0,0.0,-45,45,3069,-1,-1
"{'cat': 'RB', 'resp': 'button'}",73,1,Left,36.011212205860915,15.291078857547298,1.8005606102930458,0.24019170502166398,Right,Incorrect,0.0,0.0,-45,45,3495,-1,-1
"{'cat': 'RB', 'resp': 'button'}",73,2,Right,59.31132962175397,74.167791446595,2.965566481087699,1.1650249437080138,Right,Correct,0.0,0.0,-45,45,2343,-1,-1
"{'cat': 'RB', 'resp': 'button'}",73,3,Right,60.04897943836242,22.268956755787528,3.0024489719181213,0.34979995473545444,Right,Correct,0.0,0.0,-45,45,1074,-1,-1
"{'cat': 'RB', 'resp': 'button'}",73,4,Left,43.78924297614379,75.28237486569319,2.1894621488071895,1.182532779114273,Left,Correct,0.0,0.0,-45,45,981,-1,-1
"{'cat': 'RB', 'resp': 'button'}",73,5,Right,67.34138029406391,39.47551492276858,3.367069014703196,0.6200799383902201,Right,Correct,0.0,0.0,-45,45,1324,-1,-1
"{'cat': 'RB', 'resp': 'button'}",73,6,Left,40.601711008468726,18.45457841935719,2.0300855504234363,0.28988383993674643,Left,Correct,0.0,0.0,-45,45,566,-1,-1
"{'cat': 'RB', 'resp': 'button'}",73,7,Right,66.16681853992873,73.73609541151245,3.3083409269964363,1.1582438782460178,Right,Correct,0.0,0.0,-45,45,992,-1,-1
"{'cat': 'RB', 'resp': 'button'}",73,8,Left,48.80273017040321,52.76795306992484,2.4401365085201605,0.8288770685472343,Left,Correct,0.0,0.0,-45,45,938,-1,-1
"{'cat': 'RB', 'resp': 'button'}",73,9,Right,66.10837608626281,76.63858548981209,3.3054188043131405,1.203836085781535,Right,Correct,0.0,0.0,-45,45,968,-1,-1
"{'cat': 'RB', 'resp': 'button'}",73,10,Right,61.575690916159864,41.029815308932754,3.078784545807993,0.6444948317634459,Right,Correct,0.0,0.0,-45,45,918,-1,-1
"{'cat': 'RB', 'resp': 'button'}",73,11,Left,37.549961695064724,60.85708135495108,1.877498084753236,0.9559407985181535,Left,Correct,0.0,0.0,-45,45,684,-1,-1
"{'cat': 'RB', 'resp': 'button'}",73,12,Right,59.39482613379974,39.46743431504663,2.9697413066899867,0.619953008500941,Right,Correct,0.0,0.0,-45,45,599,-1,-1
"{'cat': 'RB', 'resp': 'button'}",73,13,Left,37.11162015951803,48.681336305283075,1.8555810079759016,0.7646846425180568,Left,Correct,0.0,0.0,-45,45,827,-1,-1
"{'cat': 'RB', 'resp': 'button'}",73,14,Left,36.61991989740377,50.35220263934913,1.8309959948701886,0.7909305495192192,Left,Correct,0.0,0.0,-45,45,816,-1,-1
"{'cat': 'RB', 'resp': 'button'}",73,15,Right,60.984479605052314,14.649003769131255,3.049223980252616,0.2301060131175597,Right,Correct,0.0,0.0,-45,45,543,-1,-1
"{'cat': 'RB', 'resp': 'button'}",73,16,Right,60.43096089475701,68.59519388170054,3.02154804473785,1.0774907858515899,Right,Correct,0.0,0.0,-45,45,647,-1,-1
"{'cat': 'RB', 'resp': 'button'}",73,17,Right,53.78834390118575,49.919824168918716,2.6894171950592876,0.7841387643878461,Right,Correct,0.0,0.0,-45,45,1324,-1,-1
"{'cat': 'RB', 'resp': 'button'}",73,18,Right,58.108862618017994,71.1146051931041,2.9054431309009,1.117065606187972,Right,Correct,0.0,0.0,-45,45,1353,-1,-1
"{'cat': 'RB', 'resp': 'button'}",73,19,Right,51.99901398545565,37.43977923905255,2.599950699272782,0.5881026770471557,Right,Correct,0.0,0.0,-45,45,2446,-1,-1
"{'cat': 'RB', 'resp': 'button'}",73,20,Right,58.07364643736245,16.622533094161568,2.9036823218681223,0.26110613926335596,Right,Correct,0.0,0.0,-45,45,964,-1,-1
"{'cat': 'RB', 'resp': 'button'}",73,21,Left,33.29958694129043,69.85788313875531,1.6649793470645216,1.09732506232024,Left,Correct,0.0,0.0,-45,45,668,-1,-1
"{'cat': 'RB', 'resp': 'button'}",73,22,Left,35.22756127813186,19.345533350346646,1.761378063906593,0.3038789272661268,Left,Correct,0.0,0.0,-45,45,692,-1,-1
"{'cat': 'RB', 'resp': 'button'}",73,23,Left,40.72723081223658,65.38940453683567,2.036361540611829,1.0271343645776703,Left,Correct,0.0,0.0,-45,45,983,-1,-1
"{'cat': 'RB', 'resp': 'button'}",73,24,Right,52.36449083784452,52.80695013630727,2.618224541892226,0.8294896330335272,Right,Correct,0.0,0.0,-45,45,1187,-1,-1
"{'cat': 'RB', 'resp': 'button'}",73,25,Right,61.73719410144831,26.91257477402459,3.0868597050724156,0.4227417359963082,Right,Correct,0.0,0.0,-45,45,1294,-1,-1
"{'cat': 'RB', 'resp': 'button'}",73,26,Left,44.58202318309131,84.78450122858342,2.2291011591545655,1.3317918309899626,Left,Correct,0.0,0.0,-45,45,834,-1,-1
"{'cat': 'RB', 'resp': 'button'}",73,27,Right,63.00602461327516,25.574040427958547,3.1503012306637577,0.40171608765541467,Right,Correct,0.0,0.0,-45,45,677,-1,-1
"{'cat': 'RB', 'resp': 'button'}",73,28,Right,64.1670643908526,18.597771196651966,3.20835321954263,0.29213310682272836,Right,Correct,0.0,0.0,-45,45,1426,-1,-1
"{'cat': 'RB', 'resp': 'button'}",73,29,Left,39.18315398079608,68.0685418108212,1.9591576990398039,1.0692181544672277,Left,Correct,0.0,0.0,-45,45,794,-1,-1
"{'cat': 'RB', 'resp': 'button'}",73,30,Right,63.92663947970232,45.28133346752997,3.196331973985116,0.7112775228317089,Right,Correct,0.0,0.0,-45,45,593,-1,-1
"{'cat': 'RB', 'resp': 'button'}",73,31,Right,56.953801280258034,77.97491181707764,2.847690064012902,1.2248270506442152,Right,Correct,0.0,0.0,-45,45,802,-1,-1
"{'cat': 'RB', 'resp': 'button'}",73,32,Right,58.89834180379711,45.417046679513014,2.9449170901898554,0.713409300980514,Right,Correct,0.0,0.0,-45,45,658,-1,-1
"{'cat': 'RB', 'resp': 'button'}",73,33,Right,54.357784153666096,22.179030103674787,2.7178892076833048,0.3483873901872579,Left,Incorrect,0.0,0.0,-45,45,881,-1,-1
"{'cat': 'RB', 'resp': 'button'}",73,34,Left,37.125800807052755,42.60122278603976,1.856290040352638,0.6691784426928231,Left,Correct,0.0,0.0,-45,45,933,-1,-1
"{'cat': 'RB', 'resp': 'button'}",73,35,Right,62.374296789319956,32.21856877607095,3.118714839465998,0.50608809488041,Right,Correct,0.0,0.0,-45,45,1004,-1,-1
"{'cat': 'RB', 'resp': 'button'}",73,36,Right,67.35361009002509,43.511419575404474,3.367680504501254,0.683475780426769,Right,Correct,0.0,0.0,-45,45,665,-1,-1
"{'cat': 'RB', 'resp': 'button'}",73,37,Right,62.5851438163324,40.46694828280197,3.1292571908166202,0.6356533371922439,Right,Correct,0.0,0.0,-45,45,801,-1,-1
"{'cat': 'RB', 'resp': 'button'}",73,38,Left,34.07505058168478,22.763659728317144,1.7037525290842388,0.35757073085649477,Left,Correct,0.0,0.0,-45,45,709,-1,-1
"{'cat': 'RB', 'resp': 'button'}",73,39,Right,65.0405506678577,31.907579800968172,3.252027533392885,0.5012030914827584,Right,Correct,0.0,0.0,-45,45,1023,-1,-1
"{'cat': 'RB', 'resp': 'button'}",73,40,Left,47.03322251226656,66.77867199640443,2.3516611256133277,1.048956926801933,Left,Correct,0.0,0.0,-45,45,733,-1,-1
"{'cat': 'RB', 'resp': 'button'}",73,41,Left,38.04385660706378,77.98296645450112,1.9021928303531892,1.224953572593,Left,Correct,0.0,0.0,-45,45,607,-1,-1
"{'cat': 'RB', 'resp': 'button'}",73,42,Right,57.38721265803084,75.69050335274402,2.869360632901542,1.188943646397471,Right,Correct,0.0,0.0,-45,45,1636,-1,-1
"{'cat': 'RB', 'resp': 'button'}",73,43,Left,39.29894926304815,34.68366279687103,1.9649474631524075,0.5448097012111783,Left,Correct,0.0,0.0,-45,45,885,-1,-1
"{'cat': 'RB', 'resp': 'button'}",73,44,Right,58.32919778479861,22.794225804102133,2.9164598892399307,0.3580508616521708,Right,Correct,0.0,0.0,-45,45,711,-1,-1
"{'cat': 'RB', 'resp': 'button'}",73,45,Right,63.75130237890062,31.262458676234026,3.187565118945031,0.49106955255205653,Right,Correct,0.0,0.0,-45,45,972,-1,-1
"{'cat': 'RB', 'resp': 'button'}",73,46,Right,67.0996574736362,68.43516472566711,3.3549828736818097,1.0749770537468157,Right,Correct,0.0,0.0,-45,45,736,-1,-1
"{'cat': 'RB', 'resp': 'button'}",73,47,Right,64.68070926990906,19.584997174988224,3.234035463495453,0.3076404162275993,Right,Correct,0.0,0.0,-45,45,1015,-1,-1
"{'cat': 'RB', 'resp': 'button'}",73,48,Left,39.79008581366906,59.45571233005824,1.989504290683453,0.9339281453502953,Left,Correct,0.0,0.0,-45,45,692,-1,-1
"{'cat': 'RB', 'resp': 'button'}",73,49,Left,41.79263176402147,25.34102942013595,2.089631588201074,0.3980559593035095,Left,Correct,0.0,0.0,-45,45,887,-1,-1
"{'cat': 'RB', 'resp': 'button'}",73,50,Left,45.514923899844064,73.50662546542532,2.275746194992203,1.154639372761783,Left,Correct,0.0,0.0,-45,45,906,-1,-1
"{'cat': 'RB', 'resp': 'button'}",73,51,Right,61.54627182066614,24.442306880775085,3.077313591033307,0.38393885866715133,Right,Correct,0.0,0.0,-45,45,1011,-1,-1
"{'cat': 'RB', 'resp': 'button'}",73,52,Right,56.57208765463126,80.10667464745642,2.8286043827315632,1.258312702879784,Right,Correct,0.0,0.0,-45,45,761,-1,-1
"{'cat': 'RB', 'resp': 'button'}",73,53,Right,55.26555910719833,65.98870294309472,2.7632779553599165,1.0365481219297277,Right,Correct,0.0,0.0,-45,45,852,-1,-1
"{'cat': 'RB', 'resp': 'button'}",73,54,Right,55.44721101825988,19.681593991419344,2.772360550912994,0.3091577554719001,Right,Correct,0.0,0.0,-45,45,789,-1,-1
"{'cat': 'RB', 'resp': 'button'}",73,55,Right,60.59724367049167,52.51317172564517,3.0298621835245836,0.8248749725499307,Right,Correct,0.0,0.0,-45,45,581,-1,-1
"{'cat': 'RB', 'resp': 'button'}",73,56,Right,54.44215360334594,42.085698809286086,2.7221076801672974,0.6610806110022294,Right,Correct,0.0,0.0,-45,45,1279,-1,-1
"{'cat': 'RB', 'resp': 'button'}",73,57,Right,67.27204257468036,38.79788255659489,3.363602128734018,0.6094357140731904,Right,Correct,0.0,0.0,-45,45,837,-1,-1
"{'cat': 'RB', 'resp': 'button'}",73,58,Right,61.21471904887379,27.220719428349415,3.0607359524436895,0.4275820609076574,Right,Correct,0.0,0.0,-45,45,712,-1,-1
"{'cat': 'RB', 'resp': 'button'}",73,59,Left,44.685484631183364,73.55226108811497,2.234274231559168,1.155356215446702,Left,Correct,0.0,0.0,-45,45,756,-1,-1
"{'cat': 'RB', 'resp': 'button'}",73,60,Left,39.07187736731312,17.363236433193315,1.953593868365656,0.2727410801053138,Left,Correct,0.0,0.0,-45,45,626,-1,-1
"{'cat': 'RB', 'resp': 'button'}",73,61,Right,54.39802613678799,76.05995553136813,2.7199013068393993,1.1947469876485624,Right,Correct,0.0,0.0,-45,45,894,-1,-1
"{'cat': 'RB', 'resp': 'button'}",73,62,Left,41.523427200538094,31.249604312326614,2.0761713600269047,0.490867636675966,Left,Correct,0.0,0.0,-45,45,1247,-1,-1
"{'cat': 'RB', 'resp': 'button'}",73,63,Left,44.0835546650348,62.49228110149117,2.20417773325174,0.9816264560725647,Left,Correct,0.0,0.0,-45,45,574,-1,-1
"{'cat': 'RB', 'resp': 'button'}",73,64,Right,66.30320600619031,44.12963064989263,3.315160300309515,0.6931866172766683,Right,Correct,0.0,0.0,-45,45,696,-1,-1
"{'cat': 'RB', 'resp': 'button'}",73,65,Left,42.540723463958514,39.91940258395268,2.1270361731979257,0.6270525094671958,Left,Correct,0.0,0.0,-45,45,933,-1,-1
"{'cat': 'RB', 'resp': 'button'}",73,66,Left,44.02391597094704,43.11907297078969,2.2011957985473516,0.6773128143731755,Left,Correct,0.0,0.0,-45,45,1386,-1,-1
"{'cat': 'RB', 'resp': 'button'}",73,67,Right,58.09143199128185,35.232958347564065,2.904571599564093,0.5534380155447122,Right,Correct,0.0,0.0,-45,45,892,-1,-1
"{'cat': 'RB', 'resp': 'button'}",73,68,Left,44.55074754939223,50.178703058996724,2.227537377469611,0.7882052244840391,Left,Correct,0.0,0.0,-45,45,741,-1,-1
"{'cat': 'RB', 'resp': 'button'}",73,69,Left,32.876643837908546,72.78614585923867,1.6438321918954273,1.143322105572497,Left,Correct,0.0,0.0,-45,45,1268,-1,-1
"{'cat': 'RB', 'resp': 'button'}",73,70,Left,48.8532121943162,61.60438673797807,2.44266060971581,0.9676794440246819,Right,Incorrect,0.0,0.0,-45,45,751,-1,-1
"{'cat': 'RB', 'resp': 'button'}",73,71,Right,60.045624897221785,65.93578909444891,3.002281244861089,1.0357169531388333,Right,Correct,0.0,0.0,-45,45,1512,-1,-1
"{'cat': 'RB', 'resp': 'button'}",73,72,Left,45.354118283932614,52.568161294336036,2.2677059141966307,0.8257387466750471,Left,Correct,0.0,0.0,-45,45,1243,-1,-1
"{'cat': 'RB', 'resp': 'button'}",73,73,Left,32.45488130417188,73.12718530999426,1.6227440652085938,1.1486791407378871,Left,Correct,0.0,0.0,-45,45,876,-1,-1
"{'cat': 'RB', 'resp': 'button'}",73,74,Right,60.22376758947075,69.47968435508618,3.0111883794735372,1.0913843297183823,Right,Correct,0.0,0.0,-45,45,727,-1,-1
"{'cat': 'RB', 'resp': 'button'}",73,75,Right,63.12460258509674,42.07726978208703,3.156230129254837,0.660948208152602,Right,Correct,0.0,0.0,-45,45,626,-1,-1
"{'cat': 'RB', 'resp': 'button'}",73,76,Right,58.07234757042465,34.93744340084377,2.9036173785212323,0.5487960776164998,Right,Correct,0.0,0.0,-45,45,733,-1,-1
"{'cat': 'RB', 'resp': 'button'}",73,77,Left,45.38130794364586,34.38843923934452,2.2690653971822927,0.5401723404137185,Right,Incorrect,0.0,0.0,-45,45,1554,-1,-1
"{'cat': 'RB', 'resp': 'button'}",73,78,Right,59.472709894555216,58.878602517013746,2.973635494727761,0.9248629256054195,Right,Correct,0.0,0.0,-45,45,620,-1,-1
"{'cat': 'RB', 'resp': 'button'}",73,79,Left,37.39969039687664,89.46644955805448,1.8699845198438323,1.4053357033717289,Left,Correct,0.0,0.0,-45,45,999,-1,-1
"{'cat': 'RB', 'resp': 'button'}",73,80,Right,61.98075018902971,83.66851806212966,3.0990375094514855,1.3142620084036574,Right,Correct,0.0,0.0,-45,45,3217,-1,-1
"{'cat': 'RB', 'resp': 'button'}",73,81,Left,37.57347762517207,32.70871030920765,1.8786738812586035,0.5137872200790174,Left,Correct,0.0,0.0,-45,45,763,-1,-1
"{'cat': 'RB', 'resp': 'button'}",73,82,Left,38.76941941342877,58.21127834325041,1.9384709706714387,0.9143806219961306,Left,Correct,0.0,0.0,-45,45,1791,-1,-1
"{'cat': 'RB', 'resp': 'button'}",73,83,Right,61.10223578567807,52.30252181548531,3.0551117892839033,0.8215660914987427,Right,Correct,0.0,0.0,-45,45,755,-1,-1
"{'cat': 'RB', 'resp': 'button'}",73,84,Right,54.63894365743579,62.43031670281499,2.7319471828717896,0.9806531215742387,Right,Correct,0.0,0.0,-45,45,2148,-1,-1
"{'cat': 'RB', 'resp': 'button'}",73,85,Left,38.75863406190474,60.497428025475266,1.937931703095237,0.9502913772295517,Left,Correct,0.0,0.0,-45,45,625,-1,-1
"{'cat': 'RB', 'resp': 'button'}",73,86,Left,46.3105544053065,74.0980909542728,2.315527720265325,1.1639300909348589,Left,Correct,0.0,0.0,-45,45,1011,-1,-1
"{'cat': 'RB', 'resp': 'button'}",73,87,Right,69.01963145994253,42.90456823376231,3.4509815729971263,0.6739433818431484,Right,Correct,0.0,0.0,-45,45,518,-1,-1
"{'cat': 'RB', 'resp': 'button'}",73,88,Right,65.03955415754449,21.115553250621623,3.2519777078772245,0.3316823348431848,Right,Correct,0.0,0.0,-45,45,519,-1,-1
"{'cat': 'RB', 'resp': 'button'}",73,89,Left,36.327012021617946,49.17442464327198,1.8163506010808974,0.7724300560190407,Left,Correct,0.0,0.0,-45,45,547,-1,-1
"{'cat': 'RB', 'resp': 'button'}",73,90,Left,46.784240738848226,26.310886367661535,2.339212036942411,0.4132904366104066,Left,Correct,0.0,0.0,-45,45,1437,-1,-1
"{'cat': 'RB', 'resp': 'button'}",73,91,Left,37.712849250321064,22.442706935590028,1.885642462516053,0.35252921617759164,Left,Correct,0.0,0.0,-45,45,691,-1,-1
"{'cat': 'RB', 'resp': 'button'}",73,92,Right,56.899714027544526,39.06421972848493,2.8449857013772264,0.6136193285861286,Right,Correct,0.0,0.0,-45,45,654,-1,-1
"{'cat': 'RB', 'resp': 'button'}",73,93,Left,47.93433796213027,52.35019781476265,2.3967168981065132,0.822314984344154,Right,Incorrect,0.0,0.0,-45,45,1838,-1,-1
"{'cat': 'RB', 'resp': 'button'}",73,94,Left,33.95834750643897,77.98985475798533,1.6979173753219485,1.2250617738111085,Left,Correct,0.0,0.0,-45,45,782,-1,-1
"{'cat': 'RB', 'resp': 'button'}",73,95,Left,38.16012846374794,53.367509699044064,1.9080064231873968,0.8382948820544944,Left,Correct,0.0,0.0,-45,45,658,-1,-1
"{'cat': 'RB', 'resp': 'button'}",73,96,Right,60.143387262744575,38.45786622430527,3.007169363137229,0.6040947500150823,Right,Correct,0.0,0.0,-45,45,600,-1,-1
"{'cat': 'RB', 'resp': 'button'}",73,97,Left,40.264317745229434,67.69810398894487,2.013215887261472,1.0633993307681353,Left,Correct,0.0,0.0,-45,45,1344,-1,-1
"{'cat': 'RB', 'resp': 'button'}",73,98,Right,55.50549975086086,35.547727094345596,2.775274987543043,0.5583823914570548,Right,Correct,0.0,0.0,-45,45,715,-1,-1
"{'cat': 'RB', 'resp': 'button'}",73,99,Left,46.78708087064543,35.46085904001984,2.3393540435322717,0.5570178712505477,Right,Incorrect,0.0,0.0,-45,45,1074,-1,-1
"{'cat': 'RB', 'resp': 'button'}",73,100,Right,57.943596272620574,54.68767064307691,2.8971798136310287,0.8590319216711431,Right,Correct,0.0,0.0,-45,45,2752,-1,-1
"{'cat': 'RB', 'resp': 'button'}",73,101,Left,41.99948961069035,81.65042926585215,2.0999744805345175,1.2825619437202709,Left,Correct,0.0,0.0,-45,45,7162,-1,-1
"{'cat': 'RB', 'resp': 'button'}",73,102,Left,41.71556734551576,36.43734474814278,2.085778367275788,0.5723564728854198,Left,Correct,0.0,0.0,-45,45,1484,-1,-1
"{'cat': 'RB', 'resp': 'button'}",73,103,Right,65.8925627452589,42.53004244837883,3.294628137262945,0.668060344563445,Right,Correct,0.0,0.0,-45,45,1058,-1,-1
"{'cat': 'RB', 'resp': 'button'}",73,104,Left,48.92715661439683,50.24207287413361,2.4463578307198417,0.7892006352125059,Right,Incorrect,0.0,0.0,-45,45,5318,-1,-1
"{'cat': 'RB', 'resp': 'button'}",73,105,Left,45.90470917110454,36.978139158515575,2.295235458555227,0.5808512516190679,Left,Correct,0.0,0.0,-45,45,1599,-1,-1
"{'cat': 'RB', 'resp': 'button'}",73,106,Right,59.09719168920453,22.60765316457248,2.954859584460227,0.35512018548363466,Right,Correct,0.0,0.0,-45,45,921,-1,-1
"{'cat': 'RB', 'resp': 'button'}",73,107,Left,36.663080077115914,39.92119210091922,1.8331540038557959,0.6270806191339736,Left,Correct,0.0,0.0,-45,45,1130,-1,-1
"{'cat': 'RB', 'resp': 'button'}",73,108,Right,64.23230275781175,63.05644466968611,3.2116151378905875,0.9904883166788857,Right,Correct,0.0,0.0,-45,45,677,-1,-1
"{'cat': 'RB', 'resp': 'button'}",73,109,Left,31.721988714683476,31.586543050521243,1.5860994357341738,0.49616025799907637,Left,Correct,0.0,0.0,-45,45,599,-1,-1
"{'cat': 'RB', 'resp': 'button'}",73,110,Left,47.35618091681522,32.214005816289585,2.367809045840761,0.5060164200757711,Right,Incorrect,0.0,0.0,-45,45,1088,-1,-1
"{'cat': 'RB', 'resp': 'button'}",73,111,Right,51.79270100985342,36.60928779674791,2.589635050492671,0.5750573479770884,Right,Correct,0.0,0.0,-45,45,1360,-1,-1
"{'cat': 'RB', 'resp': 'button'}",73,112,Right,55.7626401760747,37.54982987958532,2.7881320088037347,0.5898313484662586,Right,Correct,0.0,0.0,-45,45,851,-1,-1
"{'cat': 'RB', 'resp': 'button'}",73,113,Right,61.4301433216907,18.070018675810488,3.071507166084535,0.2838431896107829,Right,Correct,0.0,0.0,-45,45,784,-1,-1
"{'cat': 'RB', 'resp': 'button'}",73,114,Right,66.09115414398093,36.32378210795306,3.3045577071990464,0.5705726351047086,Right,Correct,0.0,0.0,-45,45,1366,-1,-1
"{'cat': 'RB', 'resp': 'button'}",73,115,Left,47.94078798729963,53.43987542899945,2.3970393993649814,0.839431600282492,Left,Correct,0.0,0.0,-45,45,1228,-1,-1
"{'cat': 'RB', 'resp': 'button'}",73,116,Right,54.6119789345051,76.30106377381064,2.730598946725255,1.198534307064449,Right,Correct,0.0,0.0,-45,45,1115,-1,-1
"{'cat': 'RB', 'resp': 'button'}",73,117,Right,65.38283663447172,75.63396048324233,3.2691418317235854,1.1880554730802741,Right,Correct,0.0,0.0,-45,45,682,-1,-1
"{'cat': 'RB', 'resp': 'button'}",73,118,Left,35.759377350458216,71.45770473360353,1.7879688675229106,1.122455001167387,Left,Correct,0.0,0.0,-45,45,747,-1,-1
"{'cat': 'RB', 'resp': 'button'}",73,119,Right,61.703944371447875,44.835624998978936,3.0851972185723935,0.7042763505794956,Right,Correct,0.0,0.0,-45,45,699,-1,-1
"{'cat': 'RB', 'resp': 'button'}",73,120,Left,45.92513958608764,45.971102105668635,2.296256979304382,0.7221123832629743,Left,Correct,0.0,0.0,-45,45,1554,-1,-1
"{'cat': 'RB', 'resp': 'button'}",73,121,Left,42.81909808528263,56.69305994833626,2.140954904264132,0.8905325032160947,Left,Correct,0.0,0.0,-45,45,881,-1,-1
"{'cat': 'RB', 'resp': 'button'}",73,122,Right,54.447524974999844,22.53055784645661,2.722376248749992,0.3539091750585398,Right,Correct,0.0,0.0,-45,45,1410,-1,-1
"{'cat': 'RB', 'resp': 'button'}",73,123,Left,40.991424118363476,80.29071442602611,2.049571205918174,1.2612035929613983,Left,Correct,0.0,0.0,-45,45,728,-1,-1
"{'cat': 'RB', 'resp': 'button'}",73,124,Left,33.17861022402858,66.21922572254108,1.658930511201429,1.0401691652816965,Left,Correct,0.0,0.0,-45,45,866,-1,-1
"{'cat': 'RB', 'resp': 'button'}",73,125,Right,65.72495323493108,72.7016687323146,3.286247661746554,1.1419951419657914,Right,Correct,0.0,0.0,-45,45,631,-1,-1
"{'cat': 'RB', 'resp': 'button'}",73,126,Left,40.149798039214005,78.3476705801365,2.0074899019607004,1.2306823316021498,Left,Correct,0.0,0.0,-45,45,626,-1,-1
"{'cat': 'RB', 'resp': 'button'}",73,127,Left,43.78857539230393,13.376051792612081,2.1894287696151964,0.2101105302285335,Left,Correct,0.0,0.0,-45,45,882,-1,-1
"{'cat': 'RB', 'resp': 'button'}",73,128,Right,63.60512201304284,73.53440488044149,3.180256100652142,1.1550757307924622,Right,Correct,0.0,0.0,-45,45,764,-1,-1
"{'cat': 'RB', 'resp': 'button'}",73,129,Right,62.072212671666406,24.961000063795833,3.1036106335833207,0.3920864721333767,Left,Incorrect,0.0,0.0,-45,45,823,-1,-1
"{'cat': 'RB', 'resp': 'button'}",73,130,Right,62.66740119563381,11.749719473025081,3.1333700597816905,0.18456416189098265,Right,Correct,0.0,0.0,-45,45,884,-1,-1
"{'cat': 'RB', 'resp': 'button'}",73,131,Left,35.837524876742314,44.08769365822532,1.7918762438371159,0.6925278725519899,Left,Correct,0.0,0.0,-45,45,579,-1,-1
"{'cat': 'RB', 'resp': 'button'}",73,132,Right,58.014068341210056,17.389065720812674,2.9007034170605026,0.273146805606476,Right,Correct,0.0,0.0,-45,45,703,-1,-1
"{'cat': 'RB', 'resp': 'button'}",73,133,Left,35.44775656975841,52.45083200400557,1.7723878284879206,0.8238957424922815,Left,Correct,0.0,0.0,-45,45,611,-1,-1
"{'cat': 'RB', 'resp': 'button'}",73,134,Right,59.32848775799129,20.09042500353786,2.9664243878995644,0.31557965799305615,Right,Correct,0.0,0.0,-45,45,561,-1,-1
"{'cat': 'RB', 'resp': 'button'}",73,135,Right,62.70451490348762,16.50962285911502,3.135225745174381,0.2593325494386693,Right,Correct,0.0,0.0,-45,45,1644,-1,-1
"{'cat': 'RB', 'resp': 'button'}",73,136,Right,59.56938858029114,87.44558820581625,2.978469429014557,1.373592087481153,Right,Correct,0.0,0.0,-45,45,562,-1,-1
"{'cat': 'RB', 'resp': 'button'}",73,137,Left,44.12867543067631,63.89915392416084,2.2064337715338156,1.0037255626937356,Left,Correct,0.0,0.0,-45,45,732,-1,-1
"{'cat': 'RB', 'resp': 'button'}",73,138,Left,44.65292859436161,64.46617842112461,2.2326464297180806,1.0126323626640696,Right,Incorrect,0.0,0.0,-45,45,1769,-1,-1
"{'cat': 'RB', 'resp': 'button'}",73,139,Right,61.97575538807481,82.38308363024248,3.0987877694037405,1.2940704515642165,Right,Correct,0.0,0.0,-45,45,578,-1,-1
"{'cat': 'RB', 'resp': 'button'}",73,140,Left,45.62643032027891,30.57864570518878,2.281321516013945,0.4803282435207307,Left,Correct,0.0,0.0,-45,45,570,-1,-1
"{'cat': 'RB', 'resp': 'button'}",73,141,Left,41.10363104367938,69.8806056770399,2.055181552183969,1.0976819871169685,Left,Correct,0.0,0.0,-45,45,1131,-1,-1
"{'cat': 'RB', 'resp': 'button'}",73,142,Right,53.95794540230409,62.89362520179765,2.697897270115204,0.9879307544579867,Right,Correct,0.0,0.0,-45,45,619,-1,-1
"{'cat': 'RB', 'resp': 'button'}",73,143,Right,60.65992150797811,87.33485608813513,3.032996075398905,1.3718527114440358,Right,Correct,0.0,0.0,-45,45,762,-1,-1
"{'cat': 'RB', 'resp': 'button'}",73,144,Right,56.04509419804844,40.38197068568648,2.8022547099024218,0.6343185122181552,Right,Correct,0.0,0.0,-45,45,668,-1,-1
"{'cat': 'RB', 'resp': 'button'}",73,145,Left,36.969217643198064,11.346029405495408,1.8484608821599033,0.1782230131385907,Left,Correct,0.0,0.0,-45,45,941,-1,-1
"{'cat': 'RB', 'resp': 'button'}",73,146,Right,60.8504973903295,89.77828581885818,3.042524869516475,1.4102340159020477,Right,Correct,0.0,0.0,-45,45,781,-1,-1
"{'cat': 'RB', 'resp': 'button'}",73,147,Right,60.944105471218386,45.13460719905986,3.047205273560919,0.7089727519961372,Right,Correct,0.0,0.0,-45,45,608,-1,-1
"{'cat': 'RB', 'resp': 'button'}",73,148,Left,46.29835782144518,25.876870030432375,2.314917891072259,0.40647292392752116,Left,Correct,0.0,0.0,-45,45,1365,-1,-1
"{'cat': 'RB', 'resp': 'button'}",73,149,Left,32.316529197501495,39.68817117513975,1.6158264598750747,0.623420334991166,Left,Correct,0.0,0.0,-45,45,1947,-1,-1
"{'cat': 'RB', 'resp': 'button'}",73,150,Left,45.6895382514808,51.38891883974145,2.28447691257404,0.8072152495142694,Left,Correct,0.0,0.0,-45,45,969,-1,-1
"{'cat': 'RB', 'resp': 'button'}",73,151,Left,38.03520347354451,90.2448375602765,1.9017601736772258,1.4175625935188443,Left,Correct,0.0,0.0,-45,45,682,-1,-1
"{'cat': 'RB', 'resp': 'button'}",73,152,Left,45.51625945759682,78.11432024347056,2.275812972879841,1.227016873085238,Left,Correct,0.0,0.0,-45,45,597,-1,-1
"{'cat': 'RB', 'resp': 'button'}",73,153,Right,57.04778917041576,79.66775013833801,2.852389458520788,1.2514180928131493,Right,Correct,0.0,0.0,-45,45,836,-1,-1
"{'cat': 'RB', 'resp': 'button'}",73,154,Right,50.906642456733984,60.74817803470866,2.545332122836699,0.9542301491640278,Right,Correct,0.0,0.0,-45,45,874,-1,-1
"{'cat': 'RB', 'resp': 'button'}",73,155,Left,41.873873449698344,81.04838452967401,2.093693672484917,1.2731050471187226,Left,Correct,0.0,0.0,-45,45,878,-1,-1
"{'cat': 'RB', 'resp': 'button'}",73,156,Left,36.75867579971477,33.22976034557533,1.8379337899857386,0.5219718549110444,Left,Correct,0.0,0.0,-45,45,940,-1,-1
"{'cat': 'RB', 'resp': 'button'}",73,157,Right,61.76814924182475,72.15304168351253,3.088407462091238,1.1333773284354054,Right,Correct,0.0,0.0,-45,45,519,-1,-1
"{'cat': 'RB', 'resp': 'button'}",73,158,Left,40.58926898094808,61.22733693496391,2.029463449047404,0.9617567595687482,Left,Correct,0.0,0.0,-45,45,864,-1,-1
"{'cat': 'RB', 'resp': 'button'}",73,159,Right,57.717225322692045,23.161710920019097,2.8858612661346026,0.3638233043545123,Right,Correct,0.0,0.0,-45,45,689,-1,-1
"{'cat': 'RB', 'resp': 'button'}",73,160,Right,57.63015135896257,14.234059303416174,2.8815075679481286,0.22358808069186847,Right,Correct,0.0,0.0,-45,45,740,-1,-1
"{'cat': 'RB', 'resp': 'button'}",73,161,Right,63.7949768754793,14.506507855526579,3.189748843773965,0.2278676925408246,Right,Correct,0.0,0.0,-45,45,1074,-1,-1
"{'cat': 'RB', 'resp': 'button'}",73,162,Right,61.91562790450611,74.17586096390454,3.0957813952253055,1.1651516993895021,Right,Correct,0.0,0.0,-45,45,649,-1,-1
"{'cat': 'RB', 'resp': 'button'}",73,163,Left,33.02121188612769,30.41208288366952,1.6510605943063843,0.47771188083850025,Left,Correct,0.0,0.0,-45,45,632,-1,-1
"{'cat': 'RB', 'resp': 'button'}",73,164,Left,46.872739517523016,76.57188525748587,2.343636975876151,1.2027883609821908,Right,Incorrect,0.0,0.0,-45,45,580,-1,-1
"{'cat': 'RB', 'resp': 'button'}",73,165,Right,67.91965119824236,49.27487118743594,3.3959825599121185,0.7740078666451606,Right,Correct,0.0,0.0,-45,45,566,-1,-1
"{'cat': 'RB', 'resp': 'button'}",73,166,Right,68.26763905190484,52.42779889748703,3.413381952595242,0.8235339393011415,Right,Correct,0.0,0.0,-45,45,603,-1,-1
"{'cat': 'RB', 'resp': 'button'}",73,167,Left,43.90224625378764,19.173730269915865,2.195112312689382,0.3011802507893996,Left,Correct,0.0,0.0,-45,45,1074,-1,-1
"{'cat': 'RB', 'resp': 'button'}",73,168,Right,57.47185598524581,14.085261344376462,2.873592799262291,0.22125076781692693,Left,Incorrect,0.0,0.0,-45,45,1041,-1,-1
"{'cat': 'RB', 'resp': 'button'}",73,169,Right,63.798547325171285,56.25983810005623,3.1899273662585643,0.883727470336439,Right,Correct,0.0,0.0,-45,45,587,-1,-1
"{'cat': 'RB', 'resp': 'button'}",73,170,Left,45.24817135262073,38.055627433177335,2.262408567631036,0.5977763978591005,Left,Correct,0.0,0.0,-45,45,699,-1,-1
"{'cat': 'RB', 'resp': 'button'}",73,171,Left,41.97163808009859,48.41968891849852,2.0985819040049294,0.7605746949772905,Left,Correct,0.0,0.0,-45,45,1345,-1,-1
"{'cat': 'RB', 'resp': 'button'}",73,172,Right,57.68466193672543,23.094625065830574,2.8842330968362715,0.3627695222211201,Right,Correct,0.0,0.0,-45,45,750,-1,-1
"{'cat': 'RB', 'resp': 'button'}",73,173,Right,62.22320394373504,32.75653642700923,3.111160197186752,0.5145384709806933,Right,Correct,0.0,0.0,-45,45,776,-1,-1
"{'cat': 'RB', 'resp': 'button'}",73,174,Left,45.29046015524301,35.89119373236872,2.2645230077621505,0.563777552790888,Left,Correct,0.0,0.0,-45,45,575,-1,-1
"{'cat': 'RB', 'resp': 'button'}",73,175,Left,40.98576297552297,27.588262696502888,2.049288148776148,0.433355417063194,Left,Correct,0.0,0.0,-45,45,981,-1,-1
"{'cat': 'RB', 'resp': 'button'}",73,176,Left,45.6471449916541,60.67201880996973,2.282357249582705,0.9530338428593133,Left,Correct,0.0,0.0,-45,45,878,-1,-1
"{'cat': 'RB', 'resp': 'button'}",73,177,Left,35.37621525623033,33.329221797489865,1.7688107628115164,0.5235341917442948,Left,Correct,0.0,0.0,-45,45,696,-1,-1
"{'cat': 'RB', 'resp': 'button'}",73,178,Right,63.1165094689177,36.0386000851601,3.155825473445885,0.5660930063659974,Right,Correct,0.0,0.0,-45,45,887,-1,-1
"{'cat': 'RB', 'resp': 'button'}",73,179,Left,43.15238367906048,59.95253619233126,2.157619183953024,0.9417322363295203,Left,Correct,0.0,0.0,-45,45,592,-1,-1
"{'cat': 'RB', 'resp': 'button'}",73,180,Right,64.4421596657787,13.688151767657565,3.2221079832889354,0.21501298517247575,Right,Correct,0.0,0.0,-45,45,1402,-1,-1
"{'cat': 'RB', 'resp': 'button'}",73,181,Left,43.04592565588058,33.72600344030445,2.152296282794029,0.5297668232150227,Left,Correct,0.0,0.0,-45,45,600,-1,-1
"{'cat': 'RB', 'resp': 'button'}",73,182,Left,34.765333713634725,50.11340946171211,1.7382666856817364,0.7871795950562598,Left,Correct,0.0,0.0,-45,45,1317,-1,-1
"{'cat': 'RB', 'resp': 'button'}",73,183,Left,47.226407722981605,24.728477855244055,2.3613203861490804,0.388434021822463,Right,Incorrect,0.0,0.0,-45,45,1370,-1,-1
"{'cat': 'RB', 'resp': 'button'}",73,184,Left,47.23719281763281,25.395200051793907,2.3618596408816406,0.39890686959579436,Left,Correct,0.0,0.0,-45,45,805,-1,-1
"{'cat': 'RB', 'resp': 'button'}",73,185,Right,67.36912309206379,48.07899079444397,3.368456154603189,0.7552230213591824,Right,Correct,0.0,0.0,-45,45,644,-1,-1
"{'cat': 'RB', 'resp': 'button'}",73,186,Right,59.65973216378598,49.45652097716199,2.9829866081892993,0.7768612148698081,Right,Correct,0.0,0.0,-45,45,1072,-1,-1
"{'cat': 'RB', 'resp': 'button'}",73,187,Left,33.49815003372346,56.8586873801344,1.674907501686173,0.8931341728309445,Left,Correct,0.0,0.0,-45,45,661,-1,-1
"{'cat': 'RB', 'resp': 'button'}",73,188,Right,60.78700192570699,48.20516799286066,3.0393500962853492,0.7572050081571643,Right,Correct,0.0,0.0,-45,45,896,-1,-1
"{'cat': 'RB', 'resp': 'button'}",73,189,Right,62.7872977639634,38.5736923481665,3.1393648881981697,0.6059141425141635,Right,Correct,0.0,0.0,-45,45,3246,-1,-1
"{'cat': 'RB', 'resp': 'button'}",73,190,Right,68.39153737460596,67.3951381323744,3.4195768687302976,1.0586403542216838,Right,Correct,0.0,0.0,-45,45,1281,-1,-1
"{'cat': 'RB', 'resp': 'button'}",73,191,Left,37.58705991633432,76.76492208248817,1.8793529958167159,1.2058205763386887,Left,Correct,0.0,0.0,-45,45,1437,-1,-1
"{'cat': 'RB', 'resp': 'button'}",73,192,Left,44.86104335216731,46.41157896307537,2.2430521676083655,0.7290313775595009,Left,Correct,0.0,0.0,-45,45,1743,-1,-1
"{'cat': 'RB', 'resp': 'button'}",73,193,Right,59.72713525384724,36.32876757783503,2.9863567626923615,0.570650946682488,Right,Correct,0.0,0.0,-45,45,716,-1,-1
"{'cat': 'RB', 'resp': 'button'}",73,194,Left,33.73616403541001,55.488899044878934,1.6868082017705006,0.8716175879758867,Left,Correct,0.0,0.0,-45,45,679,-1,-1
"{'cat': 'RB', 'resp': 'button'}",73,195,Left,44.64656979810621,22.400607446181827,2.232328489905311,0.3518679189443682,Left,Correct,0.0,0.0,-45,45,830,-1,-1
"{'cat': 'RB', 'resp': 'button'}",73,196,Left,32.4568275250445,30.521042751054,1.6228413762522251,0.47942341843305636,Left,Correct,0.0,0.0,-45,45,701,-1,-1
"{'cat': 'RB', 'resp': 'button'}",73,197,Left,37.30495385330013,59.15411189376911,1.8652476926650063,0.9291906167754683,Left,Correct,0.0,0.0,-45,45,681,-1,-1
"{'cat': 'RB', 'resp': 'button'}",73,198,Right,65.81180425011888,81.58108507763828,3.2905902125059443,1.2814726877589615,Right,Correct,0.0,0.0,-45,45,598,-1,-1
"{'cat': 'RB', 'resp': 'button'}",73,199,Left,37.29203900241406,65.78173897648983,1.864601950120703,1.033297139544509,Left,Correct,0.0,0.0,-45,45,603,-1,-1
"{'cat': 'RB', 'resp': 'button'}",73,200,Right,63.47096104593667,86.41908565515489,3.1735480522968333,1.3574678231209083,Right,Correct,0.0,0.0,-45,45,508,-1,-1
"{'cat': 'RB', 'resp': 'button'}",73,201,Right,54.92057953301051,32.90399923839023,2.7460289766505253,0.5168548114052545,Right,Correct,0.0,0.0,-45,45,1061,-1,-1
"{'cat': 'RB', 'resp': 'button'}",73,202,Right,54.98380208156599,42.45466878799023,2.7491901040782993,0.66687637787469,Right,Correct,0.0,0.0,-45,45,579,-1,-1
"{'cat': 'RB', 'resp': 'button'}",73,203,Right,66.06261161352884,63.68466349083745,3.303130580676442,1.0003563548457655,Right,Correct,0.0,0.0,-45,45,671,-1,-1
"{'cat': 'RB', 'resp': 'button'}",73,204,Right,55.55559402034476,72.19809483592987,2.7777797010172383,1.1340850216986822,Right,Correct,0.0,0.0,-45,45,558,-1,-1
"{'cat': 'RB', 'resp': 'button'}",73,205,Right,64.02809117419453,45.06476737678149,3.201404558709726,0.7078757106331485,Right,Correct,0.0,0.0,-45,45,641,-1,-1
"{'cat': 'RB', 'resp': 'button'}",73,206,Right,65.20229728964665,76.0956797898729,3.2601148644823326,1.19530814298893,Right,Correct,0.0,0.0,-45,45,545,-1,-1
"{'cat': 'RB', 'resp': 'button'}",73,207,Left,35.39096836475505,68.1548354411145,1.7695484182377523,1.070573651642133,Left,Correct,0.0,0.0,-45,45,764,-1,-1
"{'cat': 'RB', 'resp': 'button'}",73,208,Right,65.07654816227951,32.73300665916574,3.2538274081139753,0.5141688662517043,Right,Correct,0.0,0.0,-45,45,516,-1,-1
"{'cat': 'RB', 'resp': 'button'}",73,209,Left,45.21878941532161,29.08450252650356,2.260939470766081,0.45685829735288674,Right,Incorrect,0.0,0.0,-45,45,731,-1,-1
"{'cat': 'RB', 'resp': 'button'}",73,210,Right,58.324778642694184,57.079162576173474,2.9162389321347093,0.8965973891118201,Right,Correct,0.0,0.0,-45,45,563,-1,-1
"{'cat': 'RB', 'resp': 'button'}",73,211,Right,68.46493387269071,68.01440057843905,3.4232466936345354,1.0683677059776875,Right,Correct,0.0,0.0,-45,45,600,-1,-1
"{'cat': 'RB', 'resp': 'button'}",73,212,Right,59.779134495364936,84.15885753591485,2.988956724768247,1.3219642428467004,Right,Correct,0.0,0.0,-45,45,568,-1,-1
"{'cat': 'RB', 'resp': 'button'}",73,213,Left,39.96446127308311,10.169197061145582,1.9982230636541556,0.1597373739010094,Left,Correct,0.0,0.0,-45,45,490,-1,-1
"{'cat': 'RB', 'resp': 'button'}",73,214,Right,63.50475306794898,87.5011286598085,3.175237653397449,1.3744645148923484,Right,Correct,0.0,0.0,-45,45,1296,-1,-1
"{'cat': 'RB', 'resp': 'button'}",73,215,Right,58.14626234048087,11.312645649949026,2.9073131170240436,0.17769862233272196,Right,Correct,0.0,0.0,-45,45,564,-1,-1
"{'cat': 'RB', 'resp': 'button'}",73,216,Left,39.38982418166527,83.73774990335278,1.9694912090832633,1.3153494996225623,Left,Correct,0.0,0.0,-45,45,493,-1,-1
"{'cat': 'RB', 'resp': 'button'}",73,217,Left,41.734698139814526,75.1343696560928,2.0867349069907264,1.1802079187184051,Left,Correct,0.0,0.0,-45,45,610,-1,-1
"{'cat': 'RB', 'resp': 'button'}",73,218,Left,41.882284104840984,33.8261602720668,2.094114205242049,0.5313400830493799,Left,Correct,0.0,0.0,-45,45,731,-1,-1
"{'cat': 'RB', 'resp': 'button'}",73,219,Right,62.13150428132022,41.69973810114037,3.1065752140660106,0.6550179543758048,Right,Correct,0.0,0.0,-45,45,519,-1,-1
"{'cat': 'RB', 'resp': 'button'}",73,220,Right,51.466827100002874,34.519987638344666,2.573341355000144,0.5422386978331705,Right,Correct,0.0,0.0,-45,45,546,-1,-1
"{'cat': 'RB', 'resp': 'button'}",73,221,Left,40.39856651317754,12.442371550248765,2.019928325658877,0.19544431527748082,Left,Correct,0.0,0.0,-45,45,614,-1,-1
"{'cat': 'RB', 'resp': 'button'}",73,222,Left,47.501693003982695,68.88991140629768,2.3750846501991347,1.0821201979023827,Right,Incorrect,0.0,0.0,-45,45,1097,-1,-1
"{'cat': 'RB', 'resp': 'button'}",73,223,Left,41.18798183475996,22.48292783080032,2.059399091737998,0.35316100452215893,Left,Correct,0.0,0.0,-45,45,602,-1,-1
"{'cat': 'RB', 'resp': 'button'}",73,224,Left,35.85812209570637,28.244992288822832,1.7929061047853185,0.4436713013763309,Left,Correct,0.0,0.0,-45,45,625,-1,-1
"{'cat': 'RB', 'resp': 'button'}",73,225,Right,65.00861111228294,16.674663907360937,3.250430555614147,0.26192500816222,Right,Correct,0.0,0.0,-45,45,622,-1,-1
"{'cat': 'RB', 'resp': 'button'}",73,226,Right,57.50391398000465,18.492800538385364,2.875195699000232,0.29048423157846415,Right,Correct,0.0,0.0,-45,45,688,-1,-1
"{'cat': 'RB', 'resp': 'button'}",73,227,Right,61.768218083277844,75.28311356330317,3.088410904163892,1.1825443825491968,Right,Correct,0.0,0.0,-45,45,523,-1,-1
"{'cat': 'RB', 'resp': 'button'}",73,228,Left,36.72876843016611,13.889772570025933,1.8364384215083056,0.21818003733013244,Left,Correct,0.0,0.0,-45,45,489,-1,-1
"{'cat': 'RB', 'resp': 'button'}",73,229,Right,54.47411862987817,75.0113282647062,2.7237059314939085,1.178275189062067,Right,Correct,0.0,0.0,-45,45,792,-1,-1
"{'cat': 'RB', 'resp': 'button'}",73,230,Right,62.36672715046601,78.67415317307619,3.1183363575233005,1.2358107081796714,Right,Correct,0.0,0.0,-45,45,600,-1,-1
"{'cat': 'RB', 'resp': 'button'}",73,231,Right,66.64579201961692,52.45719204980362,3.332289600980846,0.8239956458580598,Right,Correct,0.0,0.0,-45,45,412,-1,-1
"{'cat': 'RB', 'resp': 'button'}",73,232,Right,55.56085970100058,54.3300277474531,2.7780429850500292,0.8534140802036415,Right,Correct,0.0,0.0,-45,45,458,-1,-1
"{'cat': 'RB', 'resp': 'button'}",73,233,Left,36.710000830372415,60.44930239713859,1.835500041518621,0.9495354216273924,Left,Correct,0.0,0.0,-45,45,524,-1,-1
"{'cat': 'RB', 'resp': 'button'}",73,234,Right,58.145353063209406,78.18334865209229,2.90726765316047,1.2281011687923131,Right,Correct,0.0,0.0,-45,45,486,-1,-1
"{'cat': 'RB', 'resp': 'button'}",73,235,Left,46.7946706806868,49.84432611962851,2.33973353403434,0.7829528438027941,Left,Correct,0.0,0.0,-45,45,866,-1,-1
"{'cat': 'RB', 'resp': 'button'}",73,236,Left,38.010753017635196,64.21186078859085,1.9005376508817597,1.0086375506338376,Left,Correct,0.0,0.0,-45,45,717,-1,-1
"{'cat': 'RB', 'resp': 'button'}",73,237,Left,45.03989806162173,33.96031652716128,2.251994903081086,0.5334474045765696,Left,Correct,0.0,0.0,-45,45,718,-1,-1
"{'cat': 'RB', 'resp': 'button'}",73,238,Left,35.64303643888877,83.19823899360449,1.7821518219444386,1.3068748820695788,Left,Correct,0.0,0.0,-45,45,739,-1,-1
"{'cat': 'RB', 'resp': 'button'}",73,239,Left,32.007256382775104,67.88350428597772,1.600362819138755,1.0663115918237942,Left,Correct,0.0,0.0,-45,45,415,-1,-1
"{'cat': 'RB', 'resp': 'button'}",73,240,Right,52.525865100256176,34.204155694051906,2.626293255012809,0.5372776212533749,Right,Correct,0.0,0.0,-45,45,1139,-1,-1
"{'cat': 'RB', 'resp': 'button'}",73,241,Right,60.3433382879316,24.810590696745646,3.0171669143965802,0.38972384732059695,Right,Correct,0.0,0.0,-45,45,539,-1,-1
"{'cat': 'RB', 'resp': 'button'}",73,242,Right,66.97637341075738,39.19676002783562,3.348818670537869,0.6157012667398523,Right,Correct,0.0,0.0,-45,45,520,-1,-1
"{'cat': 'RB', 'resp': 'button'}",73,243,Right,60.47000173417407,68.46070501041301,3.0235000867087036,1.0753782396014573,Right,Correct,0.0,0.0,-45,45,580,-1,-1
"{'cat': 'RB', 'resp': 'button'}",73,244,Right,65.24619869877182,71.54601254613743,3.262309934938591,1.1238421370429428,Right,Correct,0.0,0.0,-45,45,548,-1,-1
"{'cat': 'RB', 'resp': 'button'}",73,245,Left,37.2610876997629,27.358971168646047,1.8630543849881451,0.42975371416596686,Left,Correct,0.0,0.0,-45,45,673,-1,-1
"{'cat': 'RB', 'resp': 'button'}",73,246,Left,36.007219539215995,40.841167572314134,1.8003609769608,0.6415315600460588,Left,Correct,0.0,0.0,-45,45,705,-1,-1
"{'cat': 'RB', 'resp': 'button'}",73,247,Right,59.68884523560247,87.02687853937346,2.9844422617801234,1.3670150114207344,Right,Correct,0.0,0.0,-45,45,555,-1,-1
"{'cat': 'RB', 'resp': 'button'}",73,248,Left,39.770669319213795,68.55522807586283,1.9885334659606897,1.0768630044415168,Left,Correct,0.0,0.0,-45,45,598,-1,-1
"{'cat': 'RB', 'resp': 'button'}",73,249,Left,38.20664303263061,18.00393500432383,1.9103321516315304,0.28280514972645926,Left,Correct,0.0,0.0,-45,45,624,-1,-1
"{'cat': 'RB', 'resp': 'button'}",73,250,Right,53.1136255599873,59.92314608491887,2.6556812779993653,0.9412705776018454,Right,Correct,0.0,0.0,-45,45,535,-1,-1
"{'cat': 'RB', 'resp': 'button'}",73,251,Right,58.50466446139046,23.474987324831744,2.9252332230695233,0.3687442386140246,Right,Correct,0.0,0.0,-45,45,607,-1,-1
"{'cat': 'RB', 'resp': 'button'}",73,252,Right,54.74563740158182,54.36444483803016,2.737281870079091,0.8539547025982155,Right,Correct,0.0,0.0,-45,45,589,-1,-1
"{'cat': 'RB', 'resp': 'button'}",73,253,Left,37.662886460196994,15.246084988364757,1.8831443230098497,0.23948494297726175,Left,Correct,0.0,0.0,-45,45,581,-1,-1
"{'cat': 'RB', 'resp': 'button'}",73,254,Left,43.01563036510345,81.44928036509151,2.1507815182551724,1.2794023041757345,Left,Correct,0.0,0.0,-45,45,1030,-1,-1
"{'cat': 'RB', 'resp': 'button'}",73,255,Left,37.25169169351143,84.26933671953886,1.8625845846755715,1.3236996458049393,Left,Correct,0.0,0.0,-45,45,565,-1,-1
"{'cat': 'RB', 'resp': 'button'}",73,256,Left,41.806990783181774,46.622572932795585,2.0903495391590887,0.7323456630856249,Left,Correct,0.0,0.0,-45,45,608,-1,-1
"{'cat': 'RB', 'resp': 'button'}",73,257,Left,40.456445089336725,16.88691556180192,2.0228222544668366,0.26525904935374034,Left,Correct,0.0,0.0,-45,45,602,-1,-1
"{'cat': 'RB', 'resp': 'button'}",73,258,Right,55.65891954647691,80.92311195137373,2.7829459773238456,1.2711372700603005,Right,Correct,0.0,0.0,-45,45,536,-1,-1
"{'cat': 'RB', 'resp': 'button'}",73,259,Right,64.76874088354091,24.520550819754263,3.2384370441770454,0.3851679115865758,Right,Correct,0.0,0.0,-45,45,569,-1,-1
"{'cat': 'RB', 'resp': 'button'}",73,260,Left,42.60455201212933,31.663221266489114,2.1302276006064664,0.49736471659895154,Left,Correct,0.0,0.0,-45,45,787,-1,-1
"{'cat': 'RB', 'resp': 'button'}",73,261,Right,62.6509282941996,25.90135802384757,3.13254641470998,0.4068575804285928,Right,Correct,0.0,0.0,-45,45,647,-1,-1
"{'cat': 'RB', 'resp': 'button'}",73,262,Right,51.74674774684371,56.48916392023858,2.5873373873421857,0.8873297118962556,Right,Correct,0.0,0.0,-45,45,1398,-1,-1
"{'cat': 'RB', 'resp': 'button'}",73,263,Left,45.77596224266933,44.18602945374683,2.2887981121334664,0.6940725276159664,Left,Correct,0.0,0.0,-45,45,773,-1,-1
"{'cat': 'RB', 'resp': 'button'}",73,264,Left,35.29853071459524,70.70989092937663,1.7649265357297619,1.1107083693993258,Left,Correct,0.0,0.0,-45,45,1055,-1,-1
"{'cat': 'RB', 'resp': 'button'}",73,265,Left,41.620320892391845,79.30479360497591,2.0810160446195924,1.2457167849192354,Left,Correct,0.0,0.0,-45,45,580,-1,-1
"{'cat': 'RB', 'resp': 'button'}",73,266,Right,68.10554108763385,57.84710014992575,3.405277054381693,0.9086601243123987,Right,Correct,0.0,0.0,-45,45,559,-1,-1
"{'cat': 'RB', 'resp': 'button'}",73,267,Left,45.46603742657221,30.45718915830355,2.27330187132861,0.4784204085436057,Left,Correct,0.0,0.0,-45,45,668,-1,-1
"{'cat': 'RB', 'resp': 'button'}",73,268,Left,33.40047007055515,37.50806170600929,1.6700235035277575,0.5891752555299572,Left,Correct,0.0,0.0,-45,45,612,-1,-1
"{'cat': 'RB', 'resp': 'button'}",73,269,Left,33.58457191488395,24.03772485296546,1.6792285957441977,0.3775836990354455,Left,Correct,0.0,0.0,-45,45,497,-1,-1
"{'cat': 'RB', 'resp': 'button'}",73,270,Left,36.119291144198705,85.3893258881516,1.8059645572099354,1.3412923945260091,Left,Correct,0.0,0.0,-45,45,569,-1,-1
"{'cat': 'RB', 'resp': 'button'}",73,271,Right,61.69400704002081,30.223929783454132,3.08470035200104,0.47475637885156624,Right,Correct,0.0,0.0,-45,45,582,-1,-1
"{'cat': 'RB', 'resp': 'button'}",73,272,Left,32.787989922296326,66.6556195890339,1.6393994961148164,1.047024024106924,Left,Correct,0.0,0.0,-45,45,541,-1,-1
"{'cat': 'RB', 'resp': 'button'}",73,273,Right,57.07105489584459,75.84497181354628,2.8535527447922293,1.1913700313058098,Right,Correct,0.0,0.0,-45,45,591,-1,-1
"{'cat': 'RB', 'resp': 'button'}",73,274,Right,51.479926820625636,55.02343328505102,2.5739963410312816,0.864306068918022,Right,Correct,0.0,0.0,-45,45,806,-1,-1
"{'cat': 'RB', 'resp': 'button'}",73,275,Right,65.05829163430616,83.6880930568906,3.252914581715308,1.3145694917023323,Right,Correct,0.0,0.0,-45,45,548,-1,-1
"{'cat': 'RB', 'resp': 'button'}",73,276,Right,55.63672079404287,81.16171704192404,2.7818360397021435,1.2748852700582103,Right,Correct,0.0,0.0,-45,45,731,-1,-1
"{'cat': 'RB', 'resp': 'button'}",73,277,Left,37.06812447434111,33.647475312525366,1.8534062237170557,0.528533306268368,Left,Correct,0.0,0.0,-45,45,610,-1,-1
"{'cat': 'RB', 'resp': 'button'}",73,278,Left,36.14764651158694,84.62135178115875,1.807382325579347,1.3292290854626296,Left,Correct,0.0,0.0,-45,45,577,-1,-1
"{'cat': 'RB', 'resp': 'button'}",73,279,Left,36.9674612690178,22.726813657769156,1.84837306345089,0.3569919541337588,Left,Correct,0.0,0.0,-45,45,609,-1,-1
"{'cat': 'RB', 'resp': 'button'}",73,280,Right,61.92030470262582,64.37692827520766,3.0960152351312913,1.0112304246503472,Right,Correct,0.0,0.0,-45,45,936,-1,-1
"{'cat': 'RB', 'resp': 'button'}",73,281,Right,62.16259890048575,13.2544169514645,3.1081299450242876,0.20819989461168445,Left,Incorrect,0.0,0.0,-45,45,759,-1,-1
"{'cat': 'RB', 'resp': 'button'}",73,282,Left,39.56727632956049,25.78143366811469,1.9783638164780246,0.40497381305380836,Left,Correct,0.0,0.0,-45,45,659,-1,-1
"{'cat': 'RB', 'resp': 'button'}",73,283,Left,42.956311734742336,43.884120529849014,2.1478155867371167,0.6893301533291134,Left,Correct,0.0,0.0,-45,45,2030,-1,-1
"{'cat': 'RB', 'resp': 'button'}",73,284,Right,63.73713243333502,68.39273933339317,3.186856621666751,1.0743106372433482,Right,Correct,0.0,0.0,-45,45,622,-1,-1
"{'cat': 'RB', 'resp': 'button'}",73,285,Right,56.70768542298584,37.92547227722444,2.8353842711492923,0.5957319254502583,Right,Correct,0.0,0.0,-45,45,661,-1,-1
"{'cat': 'RB', 'resp': 'button'}",73,286,Left,47.332038413475075,28.80731405870635,2.3666019206737534,0.45250423108242915,Left,Correct,0.0,0.0,-45,45,1496,-1,-1
"{'cat': 'RB', 'resp': 'button'}",73,287,Right,55.37465072136496,43.88755140629317,2.768732536068248,0.6893840454102751,Right,Correct,0.0,0.0,-45,45,1323,-1,-1
"{'cat': 'RB', 'resp': 'button'}",73,288,Right,62.17842181344662,39.53457705681088,3.108921090672331,0.6210076842222833,Right,Correct,0.0,0.0,-45,45,840,-1,-1
"{'cat': 'RB', 'resp': 'button'}",73,289,Left,43.259469993679005,64.48907305874855,2.1629734996839503,1.0129919907908993,Left,Correct,0.0,0.0,-45,45,1156,-1,-1
"{'cat': 'RB', 'resp': 'button'}",73,290,Right,54.91246408130039,60.50234775152171,2.7456232040650197,0.9503686561055775,Right,Correct,0.0,0.0,-45,45,974,-1,-1
"{'cat': 'RB', 'resp': 'button'}",73,291,Left,43.131027428745206,21.413133127500853,2.1565513714372604,0.33635670861848455,Left,Correct,0.0,0.0,-45,45,905,-1,-1
"{'cat': 'RB', 'resp': 'button'}",73,292,Right,58.314911621614996,21.52908347534921,2.91574558108075,0.33817805242339244,Right,Correct,0.0,0.0,-45,45,852,-1,-1
"{'cat': 'RB', 'resp': 'button'}",73,293,Left,37.68236094293713,70.11684681633713,1.8841180471468564,1.1013928542554279,Left,Correct,0.0,0.0,-45,45,664,-1,-1
"{'cat': 'RB', 'resp': 'button'}",73,294,Right,64.76787296733086,72.04146253803951,3.238393648366543,1.131624647316846,Right,Correct,0.0,0.0,-45,45,570,-1,-1
"{'cat': 'RB', 'resp': 'button'}",73,295,Right,63.680398956704934,87.69784308423823,3.184019947835247,1.3775544978455665,Right,Correct,0.0,0.0,-45,45,607,-1,-1
"{'cat': 'RB', 'resp': 'button'}",73,296,Left,38.132079467451035,53.720300690160556,1.9066039733725517,0.8438365099842156,Left,Correct,0.0,0.0,-45,45,606,-1,-1
"{'cat': 'RB', 'resp': 'button'}",73,297,Left,33.668162106518245,73.1205958251794,1.6834081053259125,1.1485756333524606,Left,Correct,0.0,0.0,-45,45,570,-1,-1
"{'cat': 'RB', 'resp': 'button'}",73,298,Right,61.809858900315355,63.92158097514771,3.0904929450157677,1.0040778459868456,Right,Correct,0.0,0.0,-45,45,844,-1,-1
"{'cat': 'RB', 'resp': 'button'}",73,299,Right,61.618017303866274,18.102683885625613,3.0809008651933136,0.28435629352669883,Left,Incorrect,0.0,0.0,-45,45,434,-1,-1
"{'cat': 'RB', 'resp': 'button'}",73,300,Left,47.58784451869757,51.45231964947842,2.3793922259348785,0.8082111471047758,Left,Correct,0.0,0.0,-45,45,856,-1,-1
"{'cat': 'RB', 'resp': 'button'}",73,301,Left,41.868873183087814,26.133063183889874,2.093443659154391,0.41049719657153155,Left,Correct,0.0,0.0,-45,45,632,-1,-1
"{'cat': 'RB', 'resp': 'button'}",73,302,Right,60.36149579709157,52.26824701032007,3.0180747898545786,0.821027704118191,Right,Correct,0.0,0.0,-45,45,619,-1,-1
"{'cat': 'RB', 'resp': 'button'}",73,303,Left,41.95791734809657,68.55322012501867,2.0978958674048287,1.076831463623413,Left,Correct,0.0,0.0,-45,45,585,-1,-1
"{'cat': 'RB', 'resp': 'button'}",73,304,Left,33.910850852340204,28.515615954390988,1.6955425426170103,0.4479222479745132,Left,Correct,0.0,0.0,-45,45,638,-1,-1
"{'cat': 'RB', 'resp': 'button'}",73,305,Left,37.254163957180296,29.343190220612296,1.862708197859015,0.46092175414981723,Left,Correct,0.0,0.0,-45,45,963,-1,-1
"{'cat': 'RB', 'resp': 'button'}",73,306,Left,39.15157762712441,86.21855873792408,1.9575788813562207,1.3543179536708116,Left,Correct,0.0,0.0,-45,45,586,-1,-1
"{'cat': 'RB', 'resp': 'button'}",73,307,Left,47.07668817177727,65.25710174366272,2.3538344085888636,1.0250561571622625,Left,Correct,0.0,0.0,-45,45,882,-1,-1
"{'cat': 'RB', 'resp': 'button'}",73,308,Left,38.56981312293037,67.89400893485748,1.9284906561465187,1.0664765984625402,Left,Correct,0.0,0.0,-45,45,673,-1,-1
"{'cat': 'RB', 'resp': 'button'}",73,309,Left,33.607367901350926,74.79211997254421,1.6803683950675463,1.1748318732607566,Left,Correct,0.0,0.0,-45,45,474,-1,-1
"{'cat': 'RB', 'resp': 'button'}",73,310,Left,34.36774217351234,62.553815905127216,1.718387108675617,0.9825930425077801,Left,Correct,0.0,0.0,-45,45,539,-1,-1
"{'cat': 'RB', 'resp': 'button'}",73,311,Left,40.30790046209182,83.75925927019526,2.015395023104591,1.315687367966841,Left,Correct,0.0,0.0,-45,45,642,-1,-1
"{'cat': 'RB', 'resp': 'button'}",73,312,Left,37.321500043395964,48.042023005600186,1.866075002169798,0.7546423326899269,Left,Correct,0.0,0.0,-45,45,580,-1,-1
"{'cat': 'RB', 'resp': 'button'}",73,313,Right,53.86636399387286,56.972092857584165,2.693318199693643,0.8949155419051097,Right,Correct,0.0,0.0,-45,45,557,-1,-1
"{'cat': 'RB', 'resp': 'button'}",73,314,Left,38.40999327157199,21.34802830839365,1.9204996635785994,0.33533404451138216,Left,Correct,0.0,0.0,-45,45,502,-1,-1
"{'cat': 'RB', 'resp': 'button'}",73,315,Right,68.69765738872596,41.28660110107144,3.4348828694362976,0.6485284135540915,Right,Correct,0.0,0.0,-45,45,581,-1,-1
"{'cat': 'RB', 'resp': 'button'}",73,316,Left,41.290661173604704,46.5817474640641,2.064533058680235,0.7317043781223938,Left,Correct,0.0,0.0,-45,45,669,-1,-1
"{'cat': 'RB', 'resp': 'button'}",73,317,Right,63.253952438558436,58.71455347104233,3.162697621927922,0.9222860492171583,Right,Correct,0.0,0.0,-45,45,690,-1,-1
"{'cat': 'RB', 'resp': 'button'}",73,318,Left,32.06077141539011,37.12220800796364,1.6030385707695052,0.5831142798142538,Left,Correct,0.0,0.0,-45,45,594,-1,-1
"{'cat': 'RB', 'resp': 'button'}",73,319,Right,65.60122609521628,48.844869230035904,3.2800613047608134,0.7672534116931746,Right,Correct,0.0,0.0,-45,45,541,-1,-1
"{'cat': 'RB', 'resp': 'button'}",73,320,Left,32.79752992724969,33.76083399967138,1.6398764963624846,0.5303139403621605,Left,Correct,0.0,0.0,-45,45,533,-1,-1
"{'cat': 'RB', 'resp': 'button'}",73,321,Right,54.11889995755468,42.89644286607468,2.7059449978777343,0.6738157488659725,Right,Correct,0.0,0.0,-45,45,806,-1,-1
"{'cat': 'RB', 'resp': 'button'}",73,322,Left,38.451462908337696,89.49690598364003,1.9225731454168848,1.4058141117860996,Left,Correct,0.0,0.0,-45,45,441,-1,-1
"{'cat': 'RB', 'resp': 'button'}",73,323,Right,59.273793164603,42.06323553939211,2.96368965823015,0.6607277587838567,Right,Correct,0.0,0.0,-45,45,635,-1,-1
"{'cat': 'RB', 'resp': 'button'}",73,324,Right,55.18697134215385,42.52119348857345,2.759348567107693,0.6679213454278626,Right,Correct,0.0,0.0,-45,45,730,-1,-1
"{'cat': 'RB', 'resp': 'button'}",73,325,Left,33.38750907142554,67.35742451618141,1.669375453571277,1.0580479501238227,Left,Correct,0.0,0.0,-45,45,530,-1,-1
"{'cat': 'RB', 'resp': 'button'}",73,326,Right,54.77750124151201,42.84313353160147,2.738875062075601,0.6729783677982285,Right,Correct,0.0,0.0,-45,45,631,-1,-1
"{'cat': 'RB', 'resp': 'button'}",73,327,Left,37.96495216429431,87.25378623358019,1.8982476082147155,1.3705792691465486,Left,Correct,0.0,0.0,-45,45,542,-1,-1
"{'cat': 'RB', 'resp': 'button'}",73,328,Left,41.0622391718741,36.77743440492233,2.0531119585937048,0.5776985887219225,Left,Correct,0.0,0.0,-45,45,903,-1,-1
"{'cat': 'RB', 'resp': 'button'}",73,329,Right,62.99889290824374,40.386138101850186,3.149944645412187,0.6343839738381769,Right,Correct,0.0,0.0,-45,45,529,-1,-1
"{'cat': 'RB', 'resp': 'button'}",73,330,Right,58.60131473905251,56.75551913729525,2.9300657369526255,0.8915136098620083,Right,Correct,0.0,0.0,-45,45,724,-1,-1
"{'cat': 'RB', 'resp': 'button'}",73,331,Left,48.29522464798217,34.67367833172849,2.4147612323991083,0.5446528655994691,Left,Correct,0.0,0.0,-45,45,591,-1,-1
"{'cat': 'RB', 'resp': 'button'}",73,332,Left,45.27248541450624,83.96217377783606,2.263624270725312,1.3188747415993967,Left,Correct,0.0,0.0,-45,45,1196,-1,-1
"{'cat': 'RB', 'resp': 'button'}",73,333,Left,44.156847013441904,52.40079125528164,2.207842350672095,0.8231097042494254,Left,Correct,0.0,0.0,-45,45,1088,-1,-1
"{'cat': 'RB', 'resp': 'button'}",73,334,Right,58.0922176800687,25.92433277454902,2.904610884003435,0.40721846696870145,Right,Correct,0.0,0.0,-45,45,545,-1,-1
"{'cat': 'RB', 'resp': 'button'}",73,335,Right,63.83444167848131,22.558609389568876,3.1917220839240654,0.3543498076673566,Right,Correct,0.0,0.0,-45,45,655,-1,-1
"{'cat': 'RB', 'resp': 'button'}",73,336,Right,56.04502028403504,45.26942798042526,2.802251014201752,0.7110905118775811,Right,Correct,0.0,0.0,-45,45,672,-1,-1
"{'cat': 'RB', 'resp': 'button'}",73,337,Left,39.246351777216546,32.200407648283566,1.9623175888608273,0.5058028205522211,Left,Correct,0.0,0.0,-45,45,516,-1,-1
"{'cat': 'RB', 'resp': 'button'}",73,338,Left,43.81837371748874,23.390526737144096,2.1909186858744367,0.3674175348050376,Left,Correct,0.0,0.0,-45,45,684,-1,-1
"{'cat': 'RB', 'resp': 'button'}",73,339,Left,31.142448024933806,62.465249297590866,1.5571224012466902,0.9812018414898324,Left,Correct,0.0,0.0,-45,45,756,-1,-1
"{'cat': 'RB', 'resp': 'button'}",73,340,Left,37.06815104572406,17.071130372045978,1.8534075522862028,0.2681526888264662,Left,Correct,0.0,0.0,-45,45,1752,-1,-1
"{'cat': 'RB', 'resp': 'button'}",73,341,Left,36.442958485724056,53.62116026233735,1.8221479242862029,0.8422792157855997,Left,Correct,0.0,0.0,-45,45,1526,-1,-1
"{'cat': 'RB', 'resp': 'button'}",73,342,Right,61.73384508403253,65.7241878799796,3.0866922542016266,1.032393129034496,Right,Correct,0.0,0.0,-45,45,799,-1,-1
"{'cat': 'RB', 'resp': 'button'}",73,343,Left,33.398050258554655,23.344475225493728,1.6699025129277327,0.3666941593516001,Left,Correct,0.0,0.0,-45,45,568,-1,-1
"{'cat': 'RB', 'resp': 'button'}",73,344,Left,43.857642001055304,45.71944928001369,2.192882100052765,0.7181594299213108,Left,Correct,0.0,0.0,-45,45,1212,-1,-1
"{'cat': 'RB', 'resp': 'button'}",73,345,Left,44.44055689433052,16.60065051325345,2.222027844716526,0.2607624084862433,Left,Correct,0.0,0.0,-45,45,1825,-1,-1
"{'cat': 'RB', 'resp': 'button'}",73,346,Left,45.35736340079076,39.331144680751905,2.267868170039538,0.6178121759316373,Right,Incorrect,0.0,0.0,-45,45,1343,-1,-1
"{'cat': 'RB', 'resp': 'button'}",73,347,Left,44.30502183778453,49.30463976201924,2.2152510918892263,0.7744754703212542,Right,Incorrect,0.0,0.0,-45,45,605,-1,-1
"{'cat': 'RB', 'resp': 'button'}",73,348,Right,60.0887000648526,73.16758110102764,3.00443500324263,1.149313676339619,Right,Correct,0.0,0.0,-45,45,730,-1,-1
"{'cat': 'RB', 'resp': 'button'}",73,349,Right,60.327921175398494,62.74961142521544,3.0163960587699243,0.9856685913453549,Right,Correct,0.0,0.0,-45,45,533,-1,-1
"{'cat': 'RB', 'resp': 'button'}",73,350,Left,44.58968026983331,28.279280061485256,2.2294840134916654,0.4442098924498519,Left,Correct,0.0,0.0,-45,45,872,-1,-1
"{'cat': 'RB', 'resp': 'button'}",73,351,Left,37.375788561634636,31.421588049276714,1.8687894280817319,0.4935691508986628,Left,Correct,0.0,0.0,-45,45,677,-1,-1
"{'cat': 'RB', 'resp': 'button'}",73,352,Left,39.823751858983435,91.32654223773022,1.9911875929491716,1.4345539708590562,Left,Correct,0.0,0.0,-45,45,801,-1,-1
"{'cat': 'RB', 'resp': 'button'}",73,353,Right,64.71325039289394,84.50338712011316,3.235662519644697,1.3273761009000091,Right,Correct,0.0,0.0,-45,45,602,-1,-1
"{'cat': 'RB', 'resp': 'button'}",73,354,Left,43.11371998390578,42.150648884865745,2.1556859991952892,0.6621008444036852,Left,Correct,0.0,0.0,-45,45,598,-1,-1
"{'cat': 'RB', 'resp': 'button'}",73,355,Right,62.84438143588972,44.54783337714116,3.1422190717944862,0.6997557303548442,Right,Correct,0.0,0.0,-45,45,591,-1,-1
"{'cat': 'RB', 'resp': 'button'}",73,356,Left,42.136616024060345,21.09158441498169,2.1068308012030172,0.3313058332533773,Left,Correct,0.0,0.0,-45,45,1443,-1,-1
"{'cat': 'RB', 'resp': 'button'}",73,357,Right,63.939007340886256,79.41432706164977,3.196950367044313,1.2474373324332801,Right,Correct,0.0,0.0,-45,45,566,-1,-1
"{'cat': 'RB', 'resp': 'button'}",73,358,Right,64.67043668731675,62.59972931180782,3.2335218343658374,0.9833142486134254,Right,Correct,0.0,0.0,-45,45,635,-1,-1
"{'cat': 'RB', 'resp': 'button'}",73,359,Left,45.00332268258705,33.26122459463427,2.2501661341293526,0.522466094179516,Left,Correct,0.0,0.0,-45,45,518,-1,-1
"{'cat': 'RB', 'resp': 'button'}",73,360,Right,58.42955719572252,83.26189858619662,2.921477859786126,1.3078748446116684,Right,Correct,0.0,0.0,-45,45,666,-1,-1
"{'cat': 'RB', 'resp': 'button'}",73,361,Right,65.80936964730559,18.466998306827584,3.290468482365279,0.29007893107292343,Right,Correct,0.0,0.0,-45,45,787,-1,-1
"{'cat': 'RB', 'resp': 'button'}",73,362,Left,40.196319213936206,61.76859661604534,2.0098159606968102,0.970258846757597,Left,Correct,0.0,0.0,-45,45,689,-1,-1
"{'cat': 'RB', 'resp': 'button'}",73,363,Left,36.14311041359577,85.26957148354859,1.8071555206797885,1.33941129673733,Left,Correct,0.0,0.0,-45,45,673,-1,-1
"{'cat': 'RB', 'resp': 'button'}",73,364,Right,55.60679514901266,53.17392541528642,2.780339757450633,0.8352540672359771,Right,Correct,0.0,0.0,-45,45,672,-1,-1
"{'cat': 'RB', 'resp': 'button'}",73,365,Right,58.65289301659448,46.16163227136144,2.932644650829724,0.7251052241071131,Right,Correct,0.0,0.0,-45,45,908,-1,-1
"{'cat': 'RB', 'resp': 'button'}",73,366,Left,39.50709241322557,90.87809953982,1.9753546206612784,1.4275098494325023,Left,Correct,0.0,0.0,-45,45,578,-1,-1
"{'cat': 'RB', 'resp': 'button'}",73,367,Right,57.969703139874724,36.13105979732256,2.8984851569937358,0.5675453601284104,Right,Correct,0.0,0.0,-45,45,549,-1,-1
"{'cat': 'RB', 'resp': 'button'}",73,368,Right,57.508148137490046,45.75487214413843,2.8754074068745026,0.7187158509698278,Right,Correct,0.0,0.0,-45,45,1137,-1,-1
"{'cat': 'RB', 'resp': 'button'}",73,369,Left,46.18449695856805,28.017078506561525,2.3092248479284025,0.4400912400563109,Left,Correct,0.0,0.0,-45,45,856,-1,-1
"{'cat': 'RB', 'resp': 'button'}",73,370,Left,44.68483419719931,63.95692140795836,2.2342417098599654,1.0046329722073086,Left,Correct,0.0,0.0,-45,45,656,-1,-1
"{'cat': 'RB', 'resp': 'button'}",73,371,Left,35.85100148777774,78.50217828882477,1.792550074388887,1.2331093330148402,Left,Correct,0.0,0.0,-45,45,646,-1,-1
"{'cat': 'RB', 'resp': 'button'}",73,372,Right,55.551098173272415,16.86151287929186,2.777554908663621,0.2648600249499649,Right,Correct,0.0,0.0,-45,45,855,-1,-1
"{'cat': 'RB', 'resp': 'button'}",73,373,Right,57.588798794258885,56.09937799558047,2.8794399397129444,0.8812069689093625,Right,Correct,0.0,0.0,-45,45,772,-1,-1
"{'cat': 'RB', 'resp': 'button'}",73,374,Right,57.1229845765654,62.991331222029615,2.85614922882827,0.9894655170348481,Right,Correct,0.0,0.0,-45,45,516,-1,-1
"{'cat': 'RB', 'resp': 'button'}",73,375,Right,53.15943974271006,57.436321289614895,2.657971987135503,0.902207625063386,Left,Incorrect,0.0,0.0,-45,45,821,-1,-1
"{'cat': 'RB', 'resp': 'button'}",73,376,Left,35.509036128355,43.11965818336211,1.77545180641775,0.6773220068707672,Left,Correct,0.0,0.0,-45,45,616,-1,-1
"{'cat': 'RB', 'resp': 'button'}",73,377,Left,46.98768388877903,70.80788592548785,2.3493841944389517,1.1122476711986837,Right,Incorrect,0.0,0.0,-45,45,647,-1,-1
"{'cat': 'RB', 'resp': 'button'}",73,378,Left,36.168300670564896,33.24994737130624,1.8084150335282447,0.5222889519697146,Left,Correct,0.0,0.0,-45,45,550,-1,-1
"{'cat': 'RB', 'resp': 'button'}",73,379,Right,60.339385736538475,54.84743257870602,3.0169692868269236,0.8615414562876216,Right,Correct,0.0,0.0,-45,45,550,-1,-1
"{'cat': 'RB', 'resp': 'button'}",73,380,Right,68.42798719951085,40.48515140703635,3.421399359975543,0.6359392711990793,Right,Correct,0.0,0.0,-45,45,596,-1,-1
"{'cat': 'RB', 'resp': 'button'}",73,381,Right,60.66653646355422,61.52483274169689,3.033326823177711,0.9664298127732786,Right,Correct,0.0,0.0,-45,45,590,-1,-1
"{'cat': 'RB', 'resp': 'button'}",73,382,Left,35.414890206705415,84.59138102384395,1.7707445103352708,1.3287583059076158,Left,Correct,0.0,0.0,-45,45,535,-1,-1
"{'cat': 'RB', 'resp': 'button'}",73,383,Right,51.41597315921956,48.46557022998953,2.570798657960978,0.7612953969328763,Right,Correct,0.0,0.0,-45,45,571,-1,-1
"{'cat': 'RB', 'resp': 'button'}",73,384,Right,62.817708365069606,76.069471546981,3.1408854182534807,1.1948964648722664,Right,Correct,0.0,0.0,-45,45,680,-1,-1
"{'cat': 'RB', 'resp': 'button'}",73,385,Right,56.878728479317445,84.51133661927851,2.843936423965872,1.3275009713408972,Left,Incorrect,0.0,0.0,-45,45,1021,-1,-1
"{'cat': 'RB', 'resp': 'button'}",73,386,Left,36.66292894521527,15.308092639838499,1.8331464472607635,0.24045895688894303,Left,Correct,0.0,0.0,-45,45,419,-1,-1
"{'cat': 'RB', 'resp': 'button'}",73,387,Right,54.459131261115196,66.72114865587294,2.7229565630557597,1.0480533522818147,Right,Correct,0.0,0.0,-45,45,1182,-1,-1
"{'cat': 'RB', 'resp': 'button'}",73,388,Right,56.306532059300004,37.49513907409822,2.815326602965,0.5889722673025729,Right,Correct,0.0,0.0,-45,45,566,-1,-1
"{'cat': 'RB', 'resp': 'button'}",73,389,Left,38.571760901266856,90.31208543711662,1.9285880450633428,1.4186189206980966,Left,Correct,0.0,0.0,-45,45,560,-1,-1
"{'cat': 'RB', 'resp': 'button'}",73,390,Left,46.087716688014396,79.24232321774677,2.3043858344007195,1.2447355023713056,Left,Correct,0.0,0.0,-45,45,1802,-1,-1
"{'cat': 'RB', 'resp': 'button'}",73,391,Left,39.781836216392854,72.04671159977055,1.9890918108196427,1.1317070993857083,Left,Correct,0.0,0.0,-45,45,531,-1,-1
"{'cat': 'RB', 'resp': 'button'}",73,392,Right,59.44886803234147,88.05140174953445,2.972443401617074,1.3831081843731043,Right,Correct,0.0,0.0,-45,45,404,-1,-1
"{'cat': 'RB', 'resp': 'button'}",73,393,Right,57.534854335769126,58.592984665425035,2.8767427167884563,0.9203764508839934,Right,Correct,0.0,0.0,-45,45,583,-1,-1
"{'cat': 'RB', 'resp': 'button'}",73,394,Left,36.479698542925625,18.914022321331593,1.8239849271462814,0.2971007678726435,Left,Correct,0.0,0.0,-45,45,559,-1,-1
"{'cat': 'RB', 'resp': 'button'}",73,395,Left,46.516572339419206,53.58853278411089,2.3258286169709605,0.8417667045560928,Left,Correct,0.0,0.0,-45,45,1296,-1,-1
"{'cat': 'RB', 'resp': 'button'}",73,396,Left,47.50442738501904,57.77585963778169,2.375221369250952,0.90754108096445,Left,Correct,0.0,0.0,-45,45,1540,-1,-1
"{'cat': 'RB', 'resp': 'button'}",73,397,Right,59.67546629144206,90.82112260305466,2.983773314572103,1.426614857802672,Right,Correct,0.0,0.0,-45,45,572,-1,-1
"{'cat': 'RB', 'resp': 'button'}",73,398,Right,54.12189473083001,34.5248043617442,2.7060947365415005,0.5423143587474021,Right,Correct,0.0,0.0,-45,45,924,-1,-1
"{'cat': 'RB', 'resp': 'button'}",73,399,Left,39.805675610034264,38.66868971611273,1.990283780501713,0.6074063576804147,Left,Correct,0.0,0.0,-45,45,609,-1,-1
