condition,subject,trial,cat,x,y,xt,yt,resp,fb,rotation,su,target_angle_left,target_angle_right,rt,mt,ep
"{'cat': 'II', 'resp': 'reach'}",48,0,Left,54.97080417462794,68.85284379589952,2.748540208731397,1.0815379412398176,Right,Incorrect,0.0,0.0,-45,45,2013,6859,-0.72
"{'cat': 'II', 'resp': 'reach'}",48,1,Left,22.347434755545255,40.70125872389028,1.1173717377772627,0.6393338769941559,Right,Incorrect,0.0,0.0,-45,45,2003,3798,-0.73
"{'cat': 'II', 'resp': 'reach'}",48,2,Right,80.09176622351336,65.49946493208893,4.0045883111756675,1.0288631892235642,Right,Correct,0.0,0.0,-45,45,2002,3201,-0.76
"{'cat': 'II', 'resp': 'reach'}",48,3,Right,36.24208183172217,22.87078140276354,1.8121040915861084,0.3592533941839,Left,Incorrect,0.0,0.0,-45,45,2003,2249,-2.39
"{'cat': 'II', 'resp': 'reach'}",48,4,Right,34.834932748542904,18.123293287266243,1.7417466374271453,0.28468002525064423,Left,Incorrect,0.0,0.0,-45,45,2004,3655,-2.43
"{'cat': 'II', 'resp': 'reach'}",48,5,Left,39.82814666480864,59.08225847331239,1.991407333240432,0.9280619458862576,Right,Incorrect,0.0,0.0,-45,45,2007,1520,-0.82
"{'cat': 'II', 'resp': 'reach'}",48,6,Right,85.76534427529106,62.159318269347224,4.288267213764553,0.9763962881356553,Left,Incorrect,0.0,0.0,-45,45,2002,3710,-2.39
"{'cat': 'II', 'resp': 'reach'}",48,7,Left,12.85791199792667,34.65074007530074,0.6428955998963335,0.5442925523100712,Left,Correct,0.0,0.0,-45,45,2010,2030,-2.44
"{'cat': 'II', 'resp': 'reach'}",48,8,Right,76.50145521926946,65.00950677494933,3.825072760963473,1.0211669444883833,Right,Correct,0.0,0.0,-45,45,2008,1973,-0.77
"{'cat': 'II', 'resp': 'reach'}",48,9,Right,43.549766294787574,20.574277662916696,2.1774883147393784,0.32317999779367834,Left,Incorrect,0.0,0.0,-45,45,2012,3654,-2.44
"{'cat': 'II', 'resp': 'reach'}",48,10,Left,15.623868241071094,37.99246227428658,0.7811934120535546,0.5967842018634305,Left,Correct,0.0,0.0,-45,45,2005,1529,-2.38
"{'cat': 'II', 'resp': 'reach'}",48,11,Right,72.10677038768468,50.70885726397769,3.6053385193842336,0.7965328672622287,Right,Correct,0.0,0.0,-45,45,2012,2640,-0.87
"{'cat': 'II', 'resp': 'reach'}",48,12,Left,57.491728097015844,82.09646524634798,2.8745864048507923,1.289568260518083,Left,Correct,0.0,0.0,-45,45,2008,5027,-2.33
"{'cat': 'II', 'resp': 'reach'}",48,13,Left,35.74915815275807,43.24017029054167,1.7874579076379036,0.6792150066236867,Right,Incorrect,0.0,0.0,-45,45,2003,2711,-0.78
"{'cat': 'II', 'resp': 'reach'}",48,14,Left,37.739989977462265,45.6951901871058,1.8869994988731134,0.7177783689809999,Left,Correct,0.0,0.0,-45,45,2002,1314,-2.47
"{'cat': 'II', 'resp': 'reach'}",48,15,Right,37.91401382787461,23.996274692362267,1.8957006913937307,0.37693260143523993,Left,Incorrect,0.0,0.0,-45,45,2009,4616,-2.4
"{'cat': 'II', 'resp': 'reach'}",48,16,Left,67.86330108711833,85.9165735520697,3.3931650543559164,1.3495743814639465,Right,Incorrect,0.0,0.0,-45,45,2002,1939,-0.8
"{'cat': 'II', 'resp': 'reach'}",48,17,Right,71.08489067416217,43.57022568595874,3.5542445337081086,0.6843995046512864,Right,Correct,0.0,0.0,-45,45,2001,1543,-0.76
"{'cat': 'II', 'resp': 'reach'}",48,18,Right,84.41893228951804,65.3140917459,4.220946614475902,1.025951354024046,Right,Correct,0.0,0.0,-45,45,2002,872,-0.81
"{'cat': 'II', 'resp': 'reach'}",48,19,Right,54.00918213976908,43.239610018941384,2.7004591069884545,0.6792062058979693,Right,Correct,0.0,0.0,-45,45,2002,795,-0.79
"{'cat': 'II', 'resp': 'reach'}",48,20,Left,47.059816387959735,73.3768172552904,2.3529908193979865,1.1526003501651054,Right,Incorrect,0.0,0.0,-45,45,2012,1509,-0.8
"{'cat': 'II', 'resp': 'reach'}",48,21,Left,28.383765931933716,50.39336533387462,1.4191882965966858,0.7915771316128352,Left,Correct,0.0,0.0,-45,45,2004,3826,-2.32
"{'cat': 'II', 'resp': 'reach'}",48,22,Right,55.4996560904906,33.07290204950836,2.77498280452453,0.5195079305581513,Right,Correct,0.0,0.0,-45,45,2004,3108,-0.73
"{'cat': 'II', 'resp': 'reach'}",48,23,Right,87.50695917523244,66.46894159976908,4.375347958761622,1.044091693108618,Right,Correct,0.0,0.0,-45,45,2005,2721,-0.8
"{'cat': 'II', 'resp': 'reach'}",48,24,Right,75.14888358071892,52.3141788813061,3.7574441790359456,0.8217492002604677,Right,Correct,0.0,0.0,-45,45,2004,1802,-0.76
"{'cat': 'II', 'resp': 'reach'}",48,25,Right,40.23383183947585,23.957309634612884,2.011691591973792,0.37632053973937907,Right,Correct,0.0,0.0,-45,45,2003,1811,-0.75
"{'cat': 'II', 'resp': 'reach'}",48,26,Right,81.62703030526049,56.396559330497794,4.081351515263025,0.8858750824021637,Right,Correct,0.0,0.0,-45,45,2006,1248,-0.8
"{'cat': 'II', 'resp': 'reach'}",48,27,Left,15.987637400505005,33.9882227282246,0.7993818700252503,0.5338857541578201,Left,Correct,0.0,0.0,-45,45,2009,2601,-2.32
"{'cat': 'II', 'resp': 'reach'}",48,28,Right,44.00164440566032,23.714785449419143,2.2000822202830164,0.3725109787467664,Right,Correct,0.0,0.0,-45,45,2003,1518,-0.75
"{'cat': 'II', 'resp': 'reach'}",48,29,Right,55.58312123724694,40.752935697675014,2.7791560618623468,0.6401456170001653,Right,Correct,0.0,0.0,-45,45,2006,784,-0.81
"{'cat': 'II', 'resp': 'reach'}",48,30,Left,53.76986177206456,82.90430823030923,2.688493088603228,1.3022578284364166,Right,Incorrect,0.0,0.0,-45,45,2008,2708,-0.82
"{'cat': 'II', 'resp': 'reach'}",48,31,Right,80.68604138452228,68.01038417148865,4.034302069226114,1.0683046164048415,Right,Correct,0.0,0.0,-45,45,2008,843,-0.77
"{'cat': 'II', 'resp': 'reach'}",48,32,Left,41.271020635391,50.51358725761864,2.0635510317695496,0.7934655731750085,Right,Incorrect,0.0,0.0,-45,45,2001,778,-0.77
"{'cat': 'II', 'resp': 'reach'}",48,33,Left,48.81699587148999,59.69514932748743,2.4408497935745,0.9376892129109009,Right,Incorrect,0.0,0.0,-45,45,2005,1533,-0.75
"{'cat': 'II', 'resp': 'reach'}",48,34,Left,48.81800829065174,65.03155560891975,2.440900414532587,1.0215132867624919,Left,Correct,0.0,0.0,-45,45,2003,961,-2.4
"{'cat': 'II', 'resp': 'reach'}",48,35,Left,38.88256225999606,48.465929104300535,1.944128112999803,0.7613010341173716,Left,Correct,0.0,0.0,-45,45,2006,1006,-2.35
"{'cat': 'II', 'resp': 'reach'}",48,36,Left,34.719211989499506,55.608696567693784,1.7359605994749754,0.8734993630638537,Left,Correct,0.0,0.0,-45,45,2002,774,-2.4
"{'cat': 'II', 'resp': 'reach'}",48,37,Left,45.14362061923182,64.13984368643911,2.257181030961591,1.0075063086385738,Left,Correct,0.0,0.0,-45,45,2006,815,-2.4
"{'cat': 'II', 'resp': 'reach'}",48,38,Left,48.736812787514964,79.55963192756408,2.436840639375748,1.2497197759297165,Left,Correct,0.0,0.0,-45,45,2006,894,-2.43
"{'cat': 'II', 'resp': 'reach'}",48,39,Right,71.08737969815652,45.42105447192719,3.554368984907826,0.7134722552365415,Right,Correct,0.0,0.0,-45,45,2003,1174,-0.75
"{'cat': 'II', 'resp': 'reach'}",48,40,Left,40.69408875652227,69.01527851041969,2.034704437826113,1.0840894597689401,Left,Correct,0.0,0.0,-45,45,2009,1227,-2.41
"{'cat': 'II', 'resp': 'reach'}",48,41,Left,58.61972813401988,83.79965036334468,2.9309864067009936,1.3163218297743846,Left,Correct,0.0,0.0,-45,45,2008,2030,-2.41
"{'cat': 'II', 'resp': 'reach'}",48,42,Left,63.968851861780465,74.5685425504652,3.1984425930890232,1.1713199273271966,Right,Incorrect,0.0,0.0,-45,45,2004,2944,-0.73
"{'cat': 'II', 'resp': 'reach'}",48,43,Right,78.10916385025747,61.88586378130137,3.9054581925128735,0.9721008750819751,Right,Correct,0.0,0.0,-45,45,2001,1909,-0.81
"{'cat': 'II', 'resp': 'reach'}",48,44,Left,11.403406261952519,33.77233545827621,0.5701703130976259,0.5304946048514532,Left,Correct,0.0,0.0,-45,45,2008,1274,-2.34
"{'cat': 'II', 'resp': 'reach'}",48,45,Left,43.99397859781293,68.82191035344256,2.1996989298906464,1.0810520398619525,Left,Correct,0.0,0.0,-45,45,2004,950,-2.48
"{'cat': 'II', 'resp': 'reach'}",48,46,Right,59.12093081911263,44.001218005157035,2.9560465409556316,0.6911695161700213,Right,Correct,0.0,0.0,-45,45,2001,2613,-0.75
"{'cat': 'II', 'resp': 'reach'}",48,47,Left,37.63145603845351,50.60804471211617,1.8815728019226754,0.7949493074006396,Left,Correct,0.0,0.0,-45,45,2012,1329,-2.35
"{'cat': 'II', 'resp': 'reach'}",48,48,Left,32.13041618504195,58.81675004818952,1.6065208092520975,0.9238913492970967,Left,Correct,0.0,0.0,-45,45,2007,937,-2.45
"{'cat': 'II', 'resp': 'reach'}",48,49,Left,42.799278741359515,70.38020802223963,2.1399639370679755,1.105529722403947,Left,Correct,0.0,0.0,-45,45,2008,1274,-2.52
"{'cat': 'II', 'resp': 'reach'}",48,50,Right,49.77891217119662,32.26914295967066,2.488945608559831,0.5068825122987007,Right,Correct,0.0,0.0,-45,45,2009,1552,-0.77
"{'cat': 'II', 'resp': 'reach'}",48,51,Left,44.93725586992697,54.967463819536945,2.2468627934963483,0.8634269026096002,Left,Correct,0.0,0.0,-45,45,2007,2404,-2.39
"{'cat': 'II', 'resp': 'reach'}",48,52,Left,46.29168897282011,54.02935915420482,2.3145844486410057,0.8486911889850713,Left,Correct,0.0,0.0,-45,45,2008,1690,-2.42
"{'cat': 'II', 'resp': 'reach'}",48,53,Right,69.15008106538222,49.0060382779633,3.457504053269111,0.7697850491779484,Right,Correct,0.0,0.0,-45,45,2008,1001,-0.79
"{'cat': 'II', 'resp': 'reach'}",48,54,Right,56.213556609532716,38.182900021927814,2.8106778304766356,0.5997755910082099,Right,Correct,0.0,0.0,-45,45,2003,4520,-0.74
"{'cat': 'II', 'resp': 'reach'}",48,55,Left,39.14289677132672,68.73891087732366,1.957144838566336,1.0797482871398176,Left,Correct,0.0,0.0,-45,45,2001,1229,-2.34
"{'cat': 'II', 'resp': 'reach'}",48,56,Right,72.92081140931064,42.85576531200875,3.6460405704655323,0.6731767873408748,Right,Correct,0.0,0.0,-45,45,2006,961,-0.78
"{'cat': 'II', 'resp': 'reach'}",48,57,Right,50.023039220691054,37.962897537071775,2.501151961034553,0.5963198000572336,Right,Correct,0.0,0.0,-45,45,2013,2635,-0.74
"{'cat': 'II', 'resp': 'reach'}",48,58,Left,44.55016381580099,53.0094643931735,2.22750819079005,0.832670719541618,Left,Correct,0.0,0.0,-45,45,2013,1302,-2.32
"{'cat': 'II', 'resp': 'reach'}",48,59,Left,47.20283568824881,72.6964949424531,2.3601417844124404,1.1419138722646909,Left,Correct,0.0,0.0,-45,45,2007,1180,-2.47
"{'cat': 'II', 'resp': 'reach'}",48,60,Right,36.13676522945909,18.012073529391262,1.8068382614729543,0.2829329893792738,Left,Incorrect,0.0,0.0,-45,45,2006,1938,-2.51
"{'cat': 'II', 'resp': 'reach'}",48,61,Right,49.0756021752946,22.095257909340738,2.4537801087647297,0.34707149963578315,Right,Correct,0.0,0.0,-45,45,2006,1492,-0.75
"{'cat': 'II', 'resp': 'reach'}",48,62,Right,43.56433099463192,23.03286680347619,2.178216549731596,0.3617994257045651,Right,Correct,0.0,0.0,-45,45,2004,2404,-0.73
"{'cat': 'II', 'resp': 'reach'}",48,63,Right,61.458261651316704,38.90064442808525,3.0729130825658353,0.6110498937759068,Right,Correct,0.0,0.0,-45,45,2002,887,-0.75
"{'cat': 'II', 'resp': 'reach'}",48,64,Right,39.73434514716122,19.580856302371913,1.986717257358061,0.3075753715526451,Left,Incorrect,0.0,0.0,-45,45,2012,1284,-2.46
"{'cat': 'II', 'resp': 'reach'}",48,65,Right,52.09238290469199,27.7897849749408,2.6046191452345995,0.43652092161057016,Right,Correct,0.0,0.0,-45,45,2003,1104,-0.79
"{'cat': 'II', 'resp': 'reach'}",48,66,Right,45.185958491027584,29.48338977604212,2.259297924551379,0.4631240036166918,Right,Correct,0.0,0.0,-45,45,2003,668,-0.81
"{'cat': 'II', 'resp': 'reach'}",48,67,Right,75.23956620272823,61.76366600440414,3.7619783101364113,0.9701813968910485,Right,Correct,0.0,0.0,-45,45,2004,1358,-0.78
"{'cat': 'II', 'resp': 'reach'}",48,68,Left,33.78709662933055,59.778991051589095,1.6893548314665277,0.9390061956334115,Left,Correct,0.0,0.0,-45,45,2009,1028,-2.41
"{'cat': 'II', 'resp': 'reach'}",48,69,Left,27.75970196859798,45.35139128499222,1.3879850984298991,0.7123779884550386,Left,Correct,0.0,0.0,-45,45,2013,936,-2.41
"{'cat': 'II', 'resp': 'reach'}",48,70,Left,19.35731374251213,39.870649391327305,0.9678656871256065,0.6262866961082412,Left,Correct,0.0,0.0,-45,45,2004,2099,-2.45
"{'cat': 'II', 'resp': 'reach'}",48,71,Right,72.1879700496558,50.988696484142984,3.60939850248279,0.8009285714535166,Right,Correct,0.0,0.0,-45,45,2012,857,-0.81
"{'cat': 'II', 'resp': 'reach'}",48,72,Right,83.2275831543655,60.212147239576936,4.161379157718275,0.9458101971236093,Right,Correct,0.0,0.0,-45,45,2008,778,-0.85
"{'cat': 'II', 'resp': 'reach'}",48,73,Right,70.82493791717366,47.8021237217221,3.541246895858683,0.7508740035507627,Right,Correct,0.0,0.0,-45,45,2005,613,-0.84
"{'cat': 'II', 'resp': 'reach'}",48,74,Left,27.906521414312053,45.91512735232427,1.3953260707156028,0.7212331338935084,Left,Correct,0.0,0.0,-45,45,2009,899,-2.43
"{'cat': 'II', 'resp': 'reach'}",48,75,Left,21.0884471051805,33.40445782002338,1.054422355259025,0.5247159964226777,Left,Correct,0.0,0.0,-45,45,2006,944,-2.45
"{'cat': 'II', 'resp': 'reach'}",48,76,Right,84.84010306130659,64.64727125318718,4.24200515306533,1.0154769622181974,Right,Correct,0.0,0.0,-45,45,2005,771,-0.8
"{'cat': 'II', 'resp': 'reach'}",48,77,Right,52.49969739272563,21.281812383552747,2.624984869636281,0.33429392719622797,Right,Correct,0.0,0.0,-45,45,2003,1178,-0.82
"{'cat': 'II', 'resp': 'reach'}",48,78,Left,48.614979996135006,78.70407383104488,2.43074899980675,1.2362807007759966,Right,Incorrect,0.0,0.0,-45,45,2008,1539,-0.74
"{'cat': 'II', 'resp': 'reach'}",48,79,Left,27.35650367922578,53.003022914667866,1.3678251839612892,0.8325695370338602,Left,Correct,0.0,0.0,-45,45,2002,1515,-2.4
"{'cat': 'II', 'resp': 'reach'}",48,80,Left,34.186626090102465,41.96660784901043,1.7093313045051233,0.6592099345726746,Left,Correct,0.0,0.0,-45,45,2004,854,-2.43
"{'cat': 'II', 'resp': 'reach'}",48,81,Right,47.87015509653597,21.83952666794063,2.3935077548267985,0.34305448268940325,Right,Correct,0.0,0.0,-45,45,2006,1871,-0.74
"{'cat': 'II', 'resp': 'reach'}",48,82,Left,16.69585483316079,42.45203434672189,0.8347927416580396,0.6668349961680152,Left,Correct,0.0,0.0,-45,45,2003,804,-2.43
"{'cat': 'II', 'resp': 'reach'}",48,83,Right,64.024627290506,41.090493299120524,3.2012313645253005,0.6454479594044883,Right,Correct,0.0,0.0,-45,45,2009,904,-0.76
"{'cat': 'II', 'resp': 'reach'}",48,84,Left,27.116611832061565,50.7018078287257,1.3558305916030782,0.7964221349922306,Left,Correct,0.0,0.0,-45,45,2007,1238,-2.49
"{'cat': 'II', 'resp': 'reach'}",48,85,Left,34.58070698625323,54.053821259386105,1.7290353493126616,0.8490754388347158,Left,Correct,0.0,0.0,-45,45,2001,2145,-2.5
"{'cat': 'II', 'resp': 'reach'}",48,86,Right,56.32309868814665,45.71970325814876,2.8161549344073324,0.7181634194005273,Right,Correct,0.0,0.0,-45,45,2002,741,-0.82
"{'cat': 'II', 'resp': 'reach'}",48,87,Right,83.61514917309495,69.287549603235,4.180757458654748,1.088366284093807,Right,Correct,0.0,0.0,-45,45,2003,804,-0.78
"{'cat': 'II', 'resp': 'reach'}",48,88,Right,80.48683317762061,52.350354969473614,4.02434165888103,0.8223174529245811,Right,Correct,0.0,0.0,-45,45,2002,623,-0.81
"{'cat': 'II', 'resp': 'reach'}",48,89,Right,75.32044323777318,57.636988920815995,3.766022161888659,0.905359704843359,Right,Correct,0.0,0.0,-45,45,2003,575,-0.81
"{'cat': 'II', 'resp': 'reach'}",48,90,Left,62.41891464125107,83.65530526989798,3.1209457320625535,1.314054462348615,Right,Incorrect,0.0,0.0,-45,45,2011,1293,-0.74
"{'cat': 'II', 'resp': 'reach'}",48,91,Right,67.43515773099733,34.95781024466352,3.3717578865498665,0.5491159992511047,Right,Correct,0.0,0.0,-45,45,2001,1018,-0.8
"{'cat': 'II', 'resp': 'reach'}",48,92,Right,77.46896748484775,62.78997683243458,3.873448374242388,0.9863026496792489,Right,Correct,0.0,0.0,-45,45,2005,1244,-0.8
"{'cat': 'II', 'resp': 'reach'}",48,93,Left,35.13818941679324,49.98712103665856,1.756909470839662,0.7851958611143516,Right,Incorrect,0.0,0.0,-45,45,2008,1736,-0.79
"{'cat': 'II', 'resp': 'reach'}",48,94,Left,42.84990413259511,50.61164579973847,2.1424952066297553,0.7950058731527355,Left,Correct,0.0,0.0,-45,45,2007,1316,-2.41
"{'cat': 'II', 'resp': 'reach'}",48,95,Right,47.08865538053362,26.80648793774436,2.354432769026681,0.4210753278688054,Right,Correct,0.0,0.0,-45,45,2007,1437,-0.77
"{'cat': 'II', 'resp': 'reach'}",48,96,Left,21.502963953397355,35.483569687339966,1.0751481976698678,0.5573746092644435,Left,Correct,0.0,0.0,-45,45,2005,1394,-2.43
"{'cat': 'II', 'resp': 'reach'}",48,97,Right,38.165796214824915,15.714007742898374,1.9082898107412458,0.2468350564177133,Right,Correct,0.0,0.0,-45,45,2009,4037,-0.81
"{'cat': 'II', 'resp': 'reach'}",48,98,Right,57.28761813574305,43.73045112217729,2.8643809067871526,0.6869163199179985,Right,Correct,0.0,0.0,-45,45,2011,976,-0.81
"{'cat': 'II', 'resp': 'reach'}",48,99,Left,26.207634900659514,46.60471051862019,1.3103817450329758,0.7320650809398808,Left,Correct,0.0,0.0,-45,45,2005,1005,-2.44
"{'cat': 'II', 'resp': 'reach'}",48,100,Right,63.49702288588589,49.66022850341241,3.1748511442942946,0.7800610452095543,Right,Correct,0.0,0.0,-45,45,2009,735,-0.84
"{'cat': 'II', 'resp': 'reach'}",48,101,Left,14.537757900549671,35.38148806024232,0.7268878950274836,0.5557711148156612,Left,Correct,0.0,0.0,-45,45,2008,809,-2.43
"{'cat': 'II', 'resp': 'reach'}",48,102,Right,52.26340586906812,24.047439328279143,2.6131702934534062,0.3777362936568401,Right,Correct,0.0,0.0,-45,45,2001,991,-0.79
"{'cat': 'II', 'resp': 'reach'}",48,103,Right,63.68466278364581,55.20646661223107,3.1842331391822905,0.8671811496981767,Right,Correct,0.0,0.0,-45,45,2002,809,-0.79
"{'cat': 'II', 'resp': 'reach'}",48,104,Left,45.948895723921915,62.111701706667056,2.297444786196096,0.9756483289181291,Right,Incorrect,0.0,0.0,-45,45,2004,651,-0.79
"{'cat': 'II', 'resp': 'reach'}",48,105,Right,32.9094174249056,18.0918688266061,1.64547087124528,0.2841864109768795,Right,Correct,0.0,0.0,-45,45,2009,2145,-0.77
"{'cat': 'II', 'resp': 'reach'}",48,106,Left,60.26609313294249,84.44464239693141,3.0133046566471244,1.3264533409460846,Right,Incorrect,0.0,0.0,-45,45,2010,765,-0.82
"{'cat': 'II', 'resp': 'reach'}",48,107,Right,66.88464984325508,47.112118238411924,3.344232492162754,0.7400354227642428,Right,Correct,0.0,0.0,-45,45,2007,607,-0.82
"{'cat': 'II', 'resp': 'reach'}",48,108,Right,84.43179828700355,67.22225742783999,4.221589914350177,1.0559247504651201,Right,Correct,0.0,0.0,-45,45,2009,623,-0.82
"{'cat': 'II', 'resp': 'reach'}",48,109,Right,73.73622852613883,44.00110129553651,3.6868114263069414,0.6911676828995891,Right,Correct,0.0,0.0,-45,45,2005,833,-0.85
"{'cat': 'II', 'resp': 'reach'}",48,110,Right,53.89628667843642,31.774484228439476,2.694814333921821,0.499112431118351,Right,Correct,0.0,0.0,-45,45,2002,1285,-0.8
"{'cat': 'II', 'resp': 'reach'}",48,111,Right,89.08851621186423,65.87423898845661,4.454425810593211,1.034750126334768,Right,Correct,0.0,0.0,-45,45,2004,649,-0.82
"{'cat': 'II', 'resp': 'reach'}",48,112,Right,57.414537656794494,39.168073564681045,2.8707268828397248,0.6152506608303328,Right,Correct,0.0,0.0,-45,45,2001,1112,-0.78
"{'cat': 'II', 'resp': 'reach'}",48,113,Left,51.087640587912375,68.56331749573253,2.5543820293956188,1.0769900727516892,Left,Correct,0.0,0.0,-45,45,2001,1506,-2.38
"{'cat': 'II', 'resp': 'reach'}",48,114,Left,38.824162840334196,66.58254461403395,1.9412081420167098,1.0458761650838186,Left,Correct,0.0,0.0,-45,45,2003,945,-2.48
"{'cat': 'II', 'resp': 'reach'}",48,115,Right,58.77232753891346,44.654951407351014,2.938616376945673,0.7014383364387158,Right,Correct,0.0,0.0,-45,45,2009,916,-0.85
"{'cat': 'II', 'resp': 'reach'}",48,116,Left,39.76134086105821,50.60114379701498,1.9880670430529106,0.7948409080797149,Left,Correct,0.0,0.0,-45,45,2008,1321,-2.3
"{'cat': 'II', 'resp': 'reach'}",48,117,Right,72.01990099937956,41.99468781291631,3.600995049968978,0.6596510136142735,Right,Correct,0.0,0.0,-45,45,2012,983,-0.79
"{'cat': 'II', 'resp': 'reach'}",48,118,Left,38.2505347062172,69.8275772610069,1.91252673531086,1.0968490187057647,Left,Correct,0.0,0.0,-45,45,2012,1033,-2.4
"{'cat': 'II', 'resp': 'reach'}",48,119,Right,62.56965746532055,46.29137902465298,3.1284828732660275,0.7271432813419523,Right,Correct,0.0,0.0,-45,45,2005,1349,-0.71
"{'cat': 'II', 'resp': 'reach'}",48,120,Right,42.73401560249013,17.89229919094778,2.1367007801245066,0.2810515784705607,Right,Correct,0.0,0.0,-45,45,2009,1408,-0.8
"{'cat': 'II', 'resp': 'reach'}",48,121,Left,17.123642302592838,42.43849617446925,0.8561821151296419,0.6666223390555557,Left,Correct,0.0,0.0,-45,45,2008,736,-2.52
"{'cat': 'II', 'resp': 'reach'}",48,122,Left,27.9834417593024,37.83878486256943,1.39917208796512,0.594370242725064,Left,Correct,0.0,0.0,-45,45,2002,961,-2.43
"{'cat': 'II', 'resp': 'reach'}",48,123,Left,51.14201520522586,77.052436293148,2.5571007602612927,1.2103368389987463,Right,Incorrect,0.0,0.0,-45,45,2009,1145,-0.84
"{'cat': 'II', 'resp': 'reach'}",48,124,Left,49.76934155691284,66.287153660271,2.4884670778456424,1.041236174832426,Left,Correct,0.0,0.0,-45,45,2004,1104,-2.35
"{'cat': 'II', 'resp': 'reach'}",48,125,Left,20.291112291024376,49.102199854983716,1.014555614551219,0.7712955516975734,Left,Correct,0.0,0.0,-45,45,2006,920,-2.41
"{'cat': 'II', 'resp': 'reach'}",48,126,Left,29.744417753747165,57.27146542484128,1.4872208876873583,0.899618075195016,Left,Correct,0.0,0.0,-45,45,2001,740,-2.48
"{'cat': 'II', 'resp': 'reach'}",48,127,Left,46.015539238111046,58.70925873649404,2.3007769619055525,0.9222028797213603,Right,Incorrect,0.0,0.0,-45,45,2002,2906,-0.72
"{'cat': 'II', 'resp': 'reach'}",48,128,Left,39.17678721409592,52.300469652912696,1.958839360704796,0.8215338562044323,Left,Correct,0.0,0.0,-45,45,2005,1351,-2.36
"{'cat': 'II', 'resp': 'reach'}",48,129,Left,30.883548848723287,42.062704666458025,1.5441774424361643,0.6607194198513082,Left,Correct,0.0,0.0,-45,45,2012,852,-2.46
"{'cat': 'II', 'resp': 'reach'}",48,130,Left,46.989365557713555,73.15983954043026,2.3494682778856775,1.1491920721901185,Left,Correct,0.0,0.0,-45,45,2012,1587,-2.36
"{'cat': 'II', 'resp': 'reach'}",48,131,Right,65.15636769675417,37.17754805657145,3.2578183848377087,0.5839835592650319,Right,Correct,0.0,0.0,-45,45,2005,764,-0.77
"{'cat': 'II', 'resp': 'reach'}",48,132,Right,65.76400835508544,45.41794725551013,3.288200417754272,0.7134234471951966,Right,Correct,0.0,0.0,-45,45,2002,790,-0.8
"{'cat': 'II', 'resp': 'reach'}",48,133,Right,75.15307064074135,56.65051337183303,3.7576535320370676,0.8898641831552049,Right,Correct,0.0,0.0,-45,45,2011,666,-0.81
"{'cat': 'II', 'resp': 'reach'}",48,134,Right,72.02770612226969,50.597076151373905,3.601385306113485,0.7947770136513981,Right,Correct,0.0,0.0,-45,45,2009,664,-0.87
"{'cat': 'II', 'resp': 'reach'}",48,135,Right,44.23468441891534,33.29037383330602,2.2117342209457673,0.5229239693498604,Left,Incorrect,0.0,0.0,-45,45,2001,1163,-2.46
"{'cat': 'II', 'resp': 'reach'}",48,136,Right,54.11923083888231,41.44368712920041,2.7059615419441156,0.6509959151138495,Left,Incorrect,0.0,0.0,-45,45,2007,1131,-2.51
"{'cat': 'II', 'resp': 'reach'}",48,137,Left,39.03461565660885,52.82245498223997,1.9517307828304424,0.8297331825839133,Left,Correct,0.0,0.0,-45,45,2007,992,-2.56
"{'cat': 'II', 'resp': 'reach'}",48,138,Right,67.66010710970102,56.2142855285972,3.383005355485051,0.8830119322172,Right,Correct,0.0,0.0,-45,45,2008,1456,-0.79
"{'cat': 'II', 'resp': 'reach'}",48,139,Right,56.915604571096296,25.58267711214812,2.845780228554815,0.4018517523734213,Right,Correct,0.0,0.0,-45,45,2003,1401,-0.77
"{'cat': 'II', 'resp': 'reach'}",48,140,Left,32.303857106998656,55.29358618521936,1.6151928553499328,0.8685496207505962,Left,Correct,0.0,0.0,-45,45,2007,909,-2.45
"{'cat': 'II', 'resp': 'reach'}",48,141,Left,62.584765862342515,87.71371729960839,3.1292382931171256,1.3778038494375084,Right,Incorrect,0.0,0.0,-45,45,2012,1632,-0.77
"{'cat': 'II', 'resp': 'reach'}",48,142,Right,47.79423462829989,28.74319573266771,2.3897117314149945,0.4514970627722118,Right,Correct,0.0,0.0,-45,45,2001,2463,-0.78
"{'cat': 'II', 'resp': 'reach'}",48,143,Left,28.22464881368158,42.55735983169935,1.411232440684079,0.6684894450172202,Left,Correct,0.0,0.0,-45,45,2007,814,-2.44
"{'cat': 'II', 'resp': 'reach'}",48,144,Left,49.10748774686746,69.66759197244467,2.4553743873433733,1.0943359756696172,Right,Incorrect,0.0,0.0,-45,45,2013,5868,-0.78
"{'cat': 'II', 'resp': 'reach'}",48,145,Right,62.291530579667615,35.977808804249776,3.114576528983381,0.5651380991584464,Right,Correct,0.0,0.0,-45,45,2005,3855,-0.79
"{'cat': 'II', 'resp': 'reach'}",48,146,Right,42.93788085400517,33.61425208930085,2.146894042700259,0.5280114370983144,Left,Incorrect,0.0,0.0,-45,45,2004,2383,-2.39
"{'cat': 'II', 'resp': 'reach'}",48,147,Right,55.65688771399579,40.406553134101934,2.7828443856997898,0.6347046524149014,Right,Correct,0.0,0.0,-45,45,2006,1227,-0.79
"{'cat': 'II', 'resp': 'reach'}",48,148,Right,40.986744938459715,14.218401703581264,2.0493372469229856,0.22334213168879752,Left,Incorrect,0.0,0.0,-45,45,2008,3525,-2.38
"{'cat': 'II', 'resp': 'reach'}",48,149,Right,32.957826100476595,12.701875364775773,1.64789130502383,0.19952059166396371,Left,Incorrect,0.0,0.0,-45,45,2011,1122,-2.49
"{'cat': 'II', 'resp': 'reach'}",48,150,Right,79.06413057554985,61.812991093566495,3.9532065287774922,0.9709561935797991,Right,Correct,0.0,0.0,-45,45,2008,638,-0.8
"{'cat': 'II', 'resp': 'reach'}",48,151,Right,50.889235246448365,36.06152945201534,2.5444617623224186,0.5664531800183167,Right,Correct,0.0,0.0,-45,45,2007,1096,-0.78
"{'cat': 'II', 'resp': 'reach'}",48,152,Left,53.362382893768654,63.97494637615294,2.6681191446884327,1.004916107745615,Right,Incorrect,0.0,0.0,-45,45,2003,2866,-0.77
"{'cat': 'II', 'resp': 'reach'}",48,153,Left,18.583181383763154,42.81247236023618,0.9291590691881578,0.6724967432446702,Left,Correct,0.0,0.0,-45,45,2001,1492,-2.38
"{'cat': 'II', 'resp': 'reach'}",48,154,Right,75.717487791095,62.88350788412045,3.7858743895547495,0.9877718320035432,Right,Correct,0.0,0.0,-45,45,2008,771,-0.78
"{'cat': 'II', 'resp': 'reach'}",48,155,Left,32.291656824583576,58.01483561811947,1.614582841229179,0.9112949068855178,Left,Correct,0.0,0.0,-45,45,2008,1255,-2.32
"{'cat': 'II', 'resp': 'reach'}",48,156,Left,10.520867010954266,32.48775329551886,0.5260433505477132,0.5103164354241981,Left,Correct,0.0,0.0,-45,45,2001,904,-2.43
"{'cat': 'II', 'resp': 'reach'}",48,157,Right,33.755019837743404,10.55038490006562,1.6877509918871703,0.16572505847295418,Right,Correct,0.0,0.0,-45,45,2004,2961,-0.72
"{'cat': 'II', 'resp': 'reach'}",48,158,Left,17.88094889290023,37.555629875125966,0.8940474446450114,0.5899224545831654,Left,Correct,0.0,0.0,-45,45,2008,1107,-2.38
"{'cat': 'II', 'resp': 'reach'}",48,159,Right,65.05389228043246,55.63403657455908,3.2526946140216233,0.8738974029609033,Right,Correct,0.0,0.0,-45,45,2012,814,-0.72
"{'cat': 'II', 'resp': 'reach'}",48,160,Left,43.38258783697298,54.97042126220702,2.169129391848649,0.8634733580104287,Left,Correct,0.0,0.0,-45,45,2001,6473,-2.46
"{'cat': 'II', 'resp': 'reach'}",48,161,Left,35.51714961882816,63.273908924512405,1.775857480941408,0.993904237205789,Left,Correct,0.0,0.0,-45,45,2005,3493,-2.47
"{'cat': 'II', 'resp': 'reach'}",48,162,Left,42.96265415492082,73.46049787345484,2.148132707746041,1.1539148022414718,Left,Correct,0.0,0.0,-45,45,2006,1341,-2.51
"{'cat': 'II', 'resp': 'reach'}",48,163,Left,22.20844396553293,34.86083979514461,1.1104221982766465,0.547592790991985,Left,Correct,0.0,0.0,-45,45,2008,889,-2.49
"{'cat': 'II', 'resp': 'reach'}",48,164,Left,28.840629601858023,49.834906228299346,1.4420314800929013,0.7828048764958072,Left,Correct,0.0,0.0,-45,45,2011,1265,-2.4
"{'cat': 'II', 'resp': 'reach'}",48,165,Right,40.845851503124535,20.8187727144477,2.042292575156227,0.3270205170823226,Left,Incorrect,0.0,0.0,-45,45,2011,3279,-2.51
"{'cat': 'II', 'resp': 'reach'}",48,166,Left,50.779509031391065,61.23145450481775,2.538975451569553,0.9618214382047654,Right,Incorrect,0.0,0.0,-45,45,2007,1136,-0.76
"{'cat': 'II', 'resp': 'reach'}",48,167,Left,45.82257040854446,74.61741292243883,2.291128520427223,1.1720875813350498,Right,Incorrect,0.0,0.0,-45,45,2008,1648,-0.71
"{'cat': 'II', 'resp': 'reach'}",48,168,Right,44.44326661429234,31.100248399359206,2.2221633307146167,0.488521559481223,Left,Incorrect,0.0,0.0,-45,45,2004,859,-2.37
"{'cat': 'II', 'resp': 'reach'}",48,169,Left,54.794107986108656,68.59895581673565,2.739705399305433,1.0775498781889377,Right,Incorrect,0.0,0.0,-45,45,2010,1535,-0.7
"{'cat': 'II', 'resp': 'reach'}",48,170,Right,46.25293699216347,35.34919119941378,2.3126468496081736,0.5552637969120965,Right,Correct,0.0,0.0,-45,45,2009,609,-0.72
"{'cat': 'II', 'resp': 'reach'}",48,171,Right,70.29209957939241,49.65996741901073,3.5146049789696208,0.7800569441053629,Right,Correct,0.0,0.0,-45,45,2003,834,-0.69
"{'cat': 'II', 'resp': 'reach'}",48,172,Right,56.20114394305934,41.04218757675734,2.8100571971529673,0.6446891748919756,Right,Correct,0.0,0.0,-45,45,2012,701,-0.76
"{'cat': 'II', 'resp': 'reach'}",48,173,Left,18.4774310818362,46.11947184896933,0.9238715540918101,0.7244429697408167,Left,Correct,0.0,0.0,-45,45,2011,1038,-2.29
"{'cat': 'II', 'resp': 'reach'}",48,174,Right,68.50390484089255,51.86089201824967,3.4251952420446274,0.8146289868657336,Right,Correct,0.0,0.0,-45,45,2008,676,-0.75
"{'cat': 'II', 'resp': 'reach'}",48,175,Right,77.69346717667898,62.598884097875015,3.8846733588339486,0.9833009720240155,Right,Correct,0.0,0.0,-45,45,2007,1015,-0.78
"{'cat': 'II', 'resp': 'reach'}",48,176,Right,84.93086253896422,60.01649716920008,4.246543126948211,0.9427369330047579,Right,Correct,0.0,0.0,-45,45,2006,759,-0.75
"{'cat': 'II', 'resp': 'reach'}",48,177,Left,61.65730339949081,71.43043345473119,3.0828651699745406,1.1220266249205904,Right,Incorrect,0.0,0.0,-45,45,2001,789,-0.75
"{'cat': 'II', 'resp': 'reach'}",48,178,Right,63.745701472620695,31.307449408906535,3.1872850736310347,0.4917762653282744,Left,Incorrect,0.0,0.0,-45,45,2009,1026,-2.45
"{'cat': 'II', 'resp': 'reach'}",48,179,Left,48.64625923644917,61.95115499092623,2.4323129618224586,0.9731264670044825,Left,Correct,0.0,0.0,-45,45,2001,2793,-2.42
"{'cat': 'II', 'resp': 'reach'}",48,180,Right,74.81190895026866,60.20278837900181,3.7405954475134333,0.9456631884854653,Right,Correct,0.0,0.0,-45,45,2012,2491,-0.74
"{'cat': 'II', 'resp': 'reach'}",48,181,Right,65.96473874785308,33.51015334701092,3.2982369373926534,0.5263762578781847,Right,Correct,0.0,0.0,-45,45,2009,1314,-0.78
"{'cat': 'II', 'resp': 'reach'}",48,182,Right,34.60166631616755,22.668820719206256,1.7300833158083777,0.35608100318501235,Left,Incorrect,0.0,0.0,-45,45,2012,1198,-2.42
"{'cat': 'II', 'resp': 'reach'}",48,183,Right,59.0974703680044,51.53324651723375,2.95487351840022,0.8094823433708668,Right,Correct,0.0,0.0,-45,45,2001,2982,-0.79
"{'cat': 'II', 'resp': 'reach'}",48,184,Left,33.463451558236976,45.97519330112897,1.673172577911849,0.7221766476109873,Left,Correct,0.0,0.0,-45,45,2005,1188,-2.43
"{'cat': 'II', 'resp': 'reach'}",48,185,Left,44.18368911655611,57.17209737040433,2.2091844558278053,0.8980572054459128,Left,Correct,0.0,0.0,-45,45,2004,1701,-2.52
"{'cat': 'II', 'resp': 'reach'}",48,186,Right,30.79606145146695,11.025254574528699,1.5398030725733474,0.1731842938764831,Left,Incorrect,0.0,0.0,-45,45,2003,762,-2.48
"{'cat': 'II', 'resp': 'reach'}",48,187,Right,85.47428848763538,56.23520570335366,4.273714424381769,0.8833405455538335,Right,Correct,0.0,0.0,-45,45,2004,665,-0.81
"{'cat': 'II', 'resp': 'reach'}",48,188,Right,75.13214546240883,47.251545723758035,3.7566072731204416,0.7422255445826021,Right,Correct,0.0,0.0,-45,45,2001,691,-0.83
"{'cat': 'II', 'resp': 'reach'}",48,189,Left,15.327965355961787,41.217246814184904,0.7663982677980894,0.647438998963203,Left,Correct,0.0,0.0,-45,45,2005,760,-2.47
"{'cat': 'II', 'resp': 'reach'}",48,190,Left,28.45524369739247,56.0773585608182,1.4227621848696232,0.8808610884369357,Left,Correct,0.0,0.0,-45,45,2008,1307,-2.54
"{'cat': 'II', 'resp': 'reach'}",48,191,Right,82.31322131011582,68.5939698961893,4.115661065505791,1.0774715595321385,Right,Correct,0.0,0.0,-45,45,2008,699,-0.81
"{'cat': 'II', 'resp': 'reach'}",48,192,Left,44.42378790158951,56.74231942325799,2.2211893950794757,0.8913062692387635,Left,Correct,0.0,0.0,-45,45,2006,2943,-2.39
"{'cat': 'II', 'resp': 'reach'}",48,193,Left,20.147875174566884,43.24364179536097,1.0073937587283441,0.6792695368938728,Left,Correct,0.0,0.0,-45,45,2003,1260,-2.25
"{'cat': 'II', 'resp': 'reach'}",48,194,Right,55.914901444564784,30.17130398332318,2.795745072228239,0.47392973471616284,Right,Correct,0.0,0.0,-45,45,2008,1267,-0.82
"{'cat': 'II', 'resp': 'reach'}",48,195,Right,48.28046638761589,18.86931219297252,2.4140233193807945,0.2963984628186738,Right,Correct,0.0,0.0,-45,45,2006,1217,-0.83
"{'cat': 'II', 'resp': 'reach'}",48,196,Right,54.658143796507,45.90924482768312,2.73290718982535,0.7211407314125224,Right,Correct,0.0,0.0,-45,45,2006,1207,-0.74
"{'cat': 'II', 'resp': 'reach'}",48,197,Left,56.8309405413667,71.15558058083077,2.8415470270683354,1.1177092460732725,Right,Incorrect,0.0,0.0,-45,45,2001,2884,-0.75
"{'cat': 'II', 'resp': 'reach'}",48,198,Left,33.490696952188095,59.46028952555543,1.6745348476094049,0.9340000437690354,Left,Correct,0.0,0.0,-45,45,2004,1927,-2.47
"{'cat': 'II', 'resp': 'reach'}",48,199,Right,53.68182981106872,41.43382428116943,2.6840914905534357,0.6508409898592613,Left,Incorrect,0.0,0.0,-45,45,2002,1748,-2.48
"{'cat': 'II', 'resp': 'reach'}",48,200,Left,20.004471257885935,45.84934654460275,1.0002235628942968,0.7201998513820829,Left,Correct,0.0,0.0,-45,45,2007,885,-2.5
"{'cat': 'II', 'resp': 'reach'}",48,201,Left,15.755009061405293,40.4019560477026,0.7877504530702646,0.634632441550601,Left,Correct,0.0,0.0,-45,45,2009,1060,-2.53
"{'cat': 'II', 'resp': 'reach'}",48,202,Right,48.68852424308356,37.692930759778946,2.4344262121541784,0.5920791718359514,Right,Correct,0.0,0.0,-45,45,2006,1375,-0.78
"{'cat': 'II', 'resp': 'reach'}",48,203,Left,22.397211230804462,53.9051861186626,1.119860561540223,0.8467406835039046,Left,Correct,0.0,0.0,-45,45,2002,1277,-2.34
"{'cat': 'II', 'resp': 'reach'}",48,204,Right,45.177523110780186,16.503318023162823,2.258876155539009,0.25923351330712174,Right,Correct,0.0,0.0,-45,45,2002,878,-0.8
"{'cat': 'II', 'resp': 'reach'}",48,205,Right,80.08817971311309,63.05705660144797,4.004408985655655,0.9904979288805235,Right,Correct,0.0,0.0,-45,45,2001,834,-0.81
"{'cat': 'II', 'resp': 'reach'}",48,206,Right,67.15129417862441,43.01741591780548,3.357564708931221,0.6757159891189717,Right,Correct,0.0,0.0,-45,45,2009,1435,-0.79
"{'cat': 'II', 'resp': 'reach'}",48,207,Left,19.363704393427145,45.06465486911067,0.9681852196713572,0.7078739433667879,Left,Correct,0.0,0.0,-45,45,2005,924,-2.32
"{'cat': 'II', 'resp': 'reach'}",48,208,Left,13.791809205921567,37.77673352660496,0.6895904602960783,0.5933955426190068,Left,Correct,0.0,0.0,-45,45,2004,836,-2.39
"{'cat': 'II', 'resp': 'reach'}",48,209,Left,46.20451309220308,63.411169925568416,2.310225654610154,0.9960603279684989,Right,Incorrect,0.0,0.0,-45,45,2009,1962,-0.77
"{'cat': 'II', 'resp': 'reach'}",48,210,Right,32.09154002380549,13.846447078556924,1.6045770011902747,0.2174994821015714,Left,Incorrect,0.0,0.0,-45,45,2008,1992,-2.28
"{'cat': 'II', 'resp': 'reach'}",48,211,Right,52.72549094997564,36.21940023476862,2.636274547498782,0.5689330084748877,Right,Correct,0.0,0.0,-45,45,2006,3763,-0.72
"{'cat': 'II', 'resp': 'reach'}",48,212,Left,56.80172448665968,74.66165045644168,2.840086224332984,1.172782462894231,Left,Correct,0.0,0.0,-45,45,2004,1540,-2.34
"{'cat': 'II', 'resp': 'reach'}",48,213,Right,75.81491370859976,45.12022203953599,3.790745685429988,0.7087467904387327,Right,Correct,0.0,0.0,-45,45,2003,1249,-0.78
"{'cat': 'II', 'resp': 'reach'}",48,214,Right,39.567139823500945,26.08164281297583,1.9783569911750474,0.40968948727398946,Left,Incorrect,0.0,0.0,-45,45,2004,2353,-2.45
"{'cat': 'II', 'resp': 'reach'}",48,215,Left,21.531233998011917,44.16252613773873,1.0765616999005958,0.6937033383914359,Left,Correct,0.0,0.0,-45,45,2009,1564,-2.37
"{'cat': 'II', 'resp': 'reach'}",48,216,Right,64.63871280303589,35.02124173888981,3.2319356401517947,0.5501123788324424,Right,Correct,0.0,0.0,-45,45,2012,773,-0.82
"{'cat': 'II', 'resp': 'reach'}",48,217,Left,39.67002975150434,57.36356943178359,1.9835014875752168,0.9010648415528967,Right,Incorrect,0.0,0.0,-45,45,2004,2331,-0.77
"{'cat': 'II', 'resp': 'reach'}",48,218,Left,29.516123763633495,58.9396316126846,1.4758061881816746,0.9258215683984934,Left,Correct,0.0,0.0,-45,45,2011,1057,-2.32
"{'cat': 'II', 'resp': 'reach'}",48,219,Right,76.34690136992566,57.22995898616728,3.817345068496283,0.8989660935809416,Right,Correct,0.0,0.0,-45,45,2004,668,-0.86
"{'cat': 'II', 'resp': 'reach'}",48,220,Left,64.88587030156563,88.67580249647986,3.2442935150782817,1.3929162483706028,Right,Incorrect,0.0,0.0,-45,45,2010,1769,-0.76
"{'cat': 'II', 'resp': 'reach'}",48,221,Left,42.12038173644406,55.783521859017014,2.106019086822203,0.8762455123182674,Right,Incorrect,0.0,0.0,-45,45,2012,1096,-0.83
"{'cat': 'II', 'resp': 'reach'}",48,222,Right,40.08904485513702,25.94793651958554,2.0044522427568507,0.40758923372872113,Right,Correct,0.0,0.0,-45,45,2005,1668,-0.81
"{'cat': 'II', 'resp': 'reach'}",48,223,Left,26.49284628112534,51.42130399671868,1.3246423140562669,0.8077239543704944,Left,Correct,0.0,0.0,-45,45,2003,2023,-2.4
"{'cat': 'II', 'resp': 'reach'}",48,224,Right,51.75976717490297,27.3556584179887,2.5879883587451484,0.42970167760032546,Right,Correct,0.0,0.0,-45,45,2004,934,-0.76
"{'cat': 'II', 'resp': 'reach'}",48,225,Left,14.072470123579226,36.63247124874725,0.7036235061789613,0.5754215127895185,Left,Correct,0.0,0.0,-45,45,2007,2306,-2.42
"{'cat': 'II', 'resp': 'reach'}",48,226,Left,39.75457255961899,46.861170373031946,1.9877286279809496,0.7360935429126841,Right,Incorrect,0.0,0.0,-45,45,2004,3595,-0.75
"{'cat': 'II', 'resp': 'reach'}",48,227,Right,44.385007218262636,18.628803755929294,2.219250360913132,0.2926205651239671,Left,Incorrect,0.0,0.0,-45,45,2001,3380,-2.46
"{'cat': 'II', 'resp': 'reach'}",48,228,Right,46.71226327432451,17.2316475293545,2.335613163716226,0.27067408643734403,Right,Correct,0.0,0.0,-45,45,2007,1772,-0.8
"{'cat': 'II', 'resp': 'reach'}",48,229,Right,77.69475640134054,58.66009470933524,3.884737820067027,0.9214306129886454,Right,Correct,0.0,0.0,-45,45,2006,818,-0.81
"{'cat': 'II', 'resp': 'reach'}",48,230,Right,58.82765532881823,39.533184142904005,2.9413827664409116,0.6209858043817986,Right,Correct,0.0,0.0,-45,45,2009,1350,-0.81
"{'cat': 'II', 'resp': 'reach'}",48,231,Left,64.82337752265929,86.61151556540206,3.241168876132964,1.3604905050827256,Right,Incorrect,0.0,0.0,-45,45,2007,2249,-0.78
"{'cat': 'II', 'resp': 'reach'}",48,232,Left,15.391198869110163,39.40062505733649,0.769559943455508,0.6189035711348712,Left,Correct,0.0,0.0,-45,45,2010,783,-2.42
"{'cat': 'II', 'resp': 'reach'}",48,233,Left,55.845311456081276,67.22794728047414,2.7922655728040637,1.0560141264612972,Right,Incorrect,0.0,0.0,-45,45,2007,2861,-0.9
"{'cat': 'II', 'resp': 'reach'}",48,234,Right,59.33333959881204,41.47388974568215,2.966666979940602,0.6514703367041405,Right,Correct,0.0,0.0,-45,45,2007,919,-0.84
"{'cat': 'II', 'resp': 'reach'}",48,235,Right,60.92562992225411,46.295541359548636,3.0462814961127056,0.7272086631456022,Right,Correct,0.0,0.0,-45,45,2012,676,-0.87
"{'cat': 'II', 'resp': 'reach'}",48,236,Right,82.31800281171381,54.41511323096076,4.1159001405856905,0.8547505998532153,Right,Correct,0.0,0.0,-45,45,2011,828,-0.82
"{'cat': 'II', 'resp': 'reach'}",48,237,Right,72.19603023026524,57.355501547758436,3.609801511513262,0.9009381115269796,Right,Correct,0.0,0.0,-45,45,2001,778,-0.87
"{'cat': 'II', 'resp': 'reach'}",48,238,Left,52.89870133426022,62.89141864578276,2.644935066713011,0.9878960939571562,Left,Correct,0.0,0.0,-45,45,2004,4430,-2.34
"{'cat': 'II', 'resp': 'reach'}",48,239,Right,55.49436616558824,34.91227488123919,2.774718308279412,0.5484007314350426,Right,Correct,0.0,0.0,-45,45,2004,1323,-0.85
"{'cat': 'II', 'resp': 'reach'}",48,240,Left,38.78643768674251,62.94526291495049,1.9393218843371256,0.9887418777594326,Right,Incorrect,0.0,0.0,-45,45,2005,1300,-0.84
"{'cat': 'II', 'resp': 'reach'}",48,241,Left,30.5452223105989,42.32819179100048,1.527261115529945,0.6648896818517345,Left,Correct,0.0,0.0,-45,45,2005,1100,-2.36
"{'cat': 'II', 'resp': 'reach'}",48,242,Right,48.20818212538127,25.349651890985278,2.4104091062690634,0.39819140075888976,Right,Correct,0.0,0.0,-45,45,2011,974,-0.87
"{'cat': 'II', 'resp': 'reach'}",48,243,Right,73.81424528393808,62.631218038063324,3.690712264196904,0.9838088723688014,Right,Correct,0.0,0.0,-45,45,2006,697,-0.84
"{'cat': 'II', 'resp': 'reach'}",48,244,Left,65.47818885565981,82.21881423018476,3.2739094427829905,1.291490113862062,Right,Incorrect,0.0,0.0,-45,45,2011,679,-0.84
"{'cat': 'II', 'resp': 'reach'}",48,245,Right,66.76836771163069,35.460398726606684,3.338418385581534,0.557010640664362,Right,Correct,0.0,0.0,-45,45,2007,875,-0.84
"{'cat': 'II', 'resp': 'reach'}",48,246,Left,20.249767135384406,37.433524487247524,1.0124883567692202,0.5880044276355523,Left,Correct,0.0,0.0,-45,45,2011,884,-2.47
"{'cat': 'II', 'resp': 'reach'}",48,247,Right,43.624253684965836,22.360265747261433,2.1812126842482917,0.35123423301956,Left,Incorrect,0.0,0.0,-45,45,2011,1274,-2.33
"{'cat': 'II', 'resp': 'reach'}",48,248,Right,63.166517883652546,52.50681209441089,3.158325894182627,0.8247750756961048,Right,Correct,0.0,0.0,-45,45,2008,595,-0.86
"{'cat': 'II', 'resp': 'reach'}",48,249,Left,19.809564050891204,42.20963312626564,0.9904782025445601,0.6630273667009826,Left,Correct,0.0,0.0,-45,45,2010,893,-2.45
"{'cat': 'II', 'resp': 'reach'}",48,250,Left,57.59544574361901,65.50512551488133,2.87977228718095,1.0289521054501425,Right,Incorrect,0.0,0.0,-45,45,2007,562,-0.85
"{'cat': 'II', 'resp': 'reach'}",48,251,Right,57.168610686876875,37.12049327556918,2.858430534343844,0.5830873448607873,Right,Correct,0.0,0.0,-45,45,2002,723,-0.79
"{'cat': 'II', 'resp': 'reach'}",48,252,Left,21.86860624332625,44.524101286941374,1.0934303121663127,0.6993829475537143,Left,Correct,0.0,0.0,-45,45,2011,1195,-2.33
"{'cat': 'II', 'resp': 'reach'}",48,253,Left,47.570949435976374,62.59694293634759,2.378547471798819,0.9832704803300454,Right,Incorrect,0.0,0.0,-45,45,2002,2457,-0.75
"{'cat': 'II', 'resp': 'reach'}",48,254,Left,60.37553874438399,80.9949896645534,3.0187769372191995,1.272266322538711,Right,Incorrect,0.0,0.0,-45,45,2006,667,-0.85
"{'cat': 'II', 'resp': 'reach'}",48,255,Left,35.21125566315392,51.98247701693533,1.760562783157696,0.8165388395590213,Right,Incorrect,0.0,0.0,-45,45,2002,1537,-0.82
"{'cat': 'II', 'resp': 'reach'}",48,256,Right,78.84094134477981,63.434089522595464,3.9420470672389905,0.996420348156716,Right,Correct,0.0,0.0,-45,45,2006,670,-0.85
"{'cat': 'II', 'resp': 'reach'}",48,257,Right,76.13024129307645,47.95795061250544,3.8065120646538224,0.7533217266273462,Right,Correct,0.0,0.0,-45,45,2003,583,-0.88
"{'cat': 'II', 'resp': 'reach'}",48,258,Right,77.24008812002606,51.38101342978603,3.8620044060013026,0.8070910716250714,Right,Correct,0.0,0.0,-45,45,2002,620,-0.86
"{'cat': 'II', 'resp': 'reach'}",48,259,Left,18.29685102537045,39.751622161156575,0.9148425512685224,0.6244170207488335,Left,Correct,0.0,0.0,-45,45,2008,857,-2.46
"{'cat': 'II', 'resp': 'reach'}",48,260,Left,45.59478738426539,73.49274723432029,2.279739369213269,1.154421374017361,Left,Correct,0.0,0.0,-45,45,2003,1068,-2.51
"{'cat': 'II', 'resp': 'reach'}",48,261,Right,51.493456772665596,25.93040843441306,2.57467283863328,0.40731390321067434,Right,Correct,0.0,0.0,-45,45,2008,1495,-0.79
"{'cat': 'II', 'resp': 'reach'}",48,262,Right,39.584549915940144,12.808308743113667,1.9792274957970073,0.20119244326137908,Right,Correct,0.0,0.0,-45,45,2007,1928,-0.77
"{'cat': 'II', 'resp': 'reach'}",48,263,Right,57.287248035072246,46.27801459547149,2.864362401753612,0.7269333533792722,Right,Correct,0.0,0.0,-45,45,2008,1121,-0.87
"{'cat': 'II', 'resp': 'reach'}",48,264,Left,28.232524237542716,49.554882661653224,1.4116262118771357,0.77840627659677,Left,Correct,0.0,0.0,-45,45,2009,1031,-2.5
"{'cat': 'II', 'resp': 'reach'}",48,265,Right,77.36870525487524,58.00272709119851,3.8684352627437617,0.9111047065894146,Right,Correct,0.0,0.0,-45,45,2008,861,-0.82
"{'cat': 'II', 'resp': 'reach'}",48,266,Right,61.081683241616915,38.3021098177608,3.054084162080846,0.6016481341023341,Right,Correct,0.0,0.0,-45,45,2009,885,-0.83
"{'cat': 'II', 'resp': 'reach'}",48,267,Left,45.56134267297031,75.9136743772501,2.2780671336485154,1.192449208652883,Left,Correct,0.0,0.0,-45,45,2002,1916,-2.41
"{'cat': 'II', 'resp': 'reach'}",48,268,Right,88.50394740186283,65.6588150632232,4.425197370093142,1.0313662552301643,Right,Correct,0.0,0.0,-45,45,2006,737,-0.86
"{'cat': 'II', 'resp': 'reach'}",48,269,Right,68.74602896082129,46.22373985262577,3.4373014480410644,0.7260808077122743,Right,Correct,0.0,0.0,-45,45,2001,941,-0.88
"{'cat': 'II', 'resp': 'reach'}",48,270,Left,52.070503826235665,74.3927488538335,2.603525191311783,1.1685585663977691,Left,Correct,0.0,0.0,-45,45,2002,1238,-2.47
"{'cat': 'II', 'resp': 'reach'}",48,271,Left,59.178885677986294,79.73196948278846,2.958944283899315,1.252426847916869,Right,Incorrect,0.0,0.0,-45,45,2009,1327,-0.85
"{'cat': 'II', 'resp': 'reach'}",48,272,Left,45.014979724376104,68.39684154745778,2.250748986218805,1.0743750746711926,Left,Correct,0.0,0.0,-45,45,2004,1137,-2.52
"{'cat': 'II', 'resp': 'reach'}",48,273,Right,33.964099386066835,17.991331586981453,1.6982049693033416,0.2826071757097946,Left,Incorrect,0.0,0.0,-45,45,2002,1327,-2.44
"{'cat': 'II', 'resp': 'reach'}",48,274,Right,47.64223603890721,24.7348531764039,2.3821118019453604,0.38853416513306327,Right,Correct,0.0,0.0,-45,45,2006,1638,-0.79
"{'cat': 'II', 'resp': 'reach'}",48,275,Right,58.25086833791908,46.546625572521705,2.9125434168959536,0.7311526847401449,Right,Correct,0.0,0.0,-45,45,2005,1942,-0.8
"{'cat': 'II', 'resp': 'reach'}",48,276,Left,57.13707791902932,70.82789192375941,2.856853895951466,1.112561924684672,Right,Incorrect,0.0,0.0,-45,45,2007,937,-0.85
"{'cat': 'II', 'resp': 'reach'}",48,277,Right,52.71619866157558,38.40373451083406,2.635809933078779,0.6032444510482454,Right,Correct,0.0,0.0,-45,45,2003,1057,-0.84
"{'cat': 'II', 'resp': 'reach'}",48,278,Left,57.09391483246233,85.22433013046658,2.8546957416231167,1.3387006472249252,Left,Correct,0.0,0.0,-45,45,2013,1472,-2.47
"{'cat': 'II', 'resp': 'reach'}",48,279,Left,14.554882961373654,37.964873944164154,0.7277441480686826,0.5963508453872433,Left,Correct,0.0,0.0,-45,45,2008,917,-2.47
"{'cat': 'II', 'resp': 'reach'}",48,280,Left,29.38913097376377,48.33947201256332,1.4694565486881885,0.7593146507653916,Left,Correct,0.0,0.0,-45,45,2007,2469,-2.44
"{'cat': 'II', 'resp': 'reach'}",48,281,Left,16.040174682042096,35.29712414535781,0.8020087341021047,0.5544459295395151,Left,Correct,0.0,0.0,-45,45,2012,1088,-2.49
"{'cat': 'II', 'resp': 'reach'}",48,282,Right,49.59037380213542,27.174715194025715,2.479518690106771,0.4268594280847306,Right,Correct,0.0,0.0,-45,45,2008,894,-0.85
"{'cat': 'II', 'resp': 'reach'}",48,283,Left,19.783128953810444,48.24417253756361,0.9891564476905222,0.7578176901126413,Left,Correct,0.0,0.0,-45,45,2008,1517,-2.42
"{'cat': 'II', 'resp': 'reach'}",48,284,Left,37.87554785782423,66.04451051027469,1.8937773928912116,1.0374247451450642,Right,Incorrect,0.0,0.0,-45,45,2003,1614,-0.74
"{'cat': 'II', 'resp': 'reach'}",48,285,Left,32.985987558836996,42.182133290592404,1.6492993779418499,0.6625954002923528,Right,Incorrect,0.0,0.0,-45,45,2006,1034,-0.82
"{'cat': 'II', 'resp': 'reach'}",48,286,Right,79.35949544163766,51.61793496080882,3.9679747720818828,0.8108126263317635,Right,Correct,0.0,0.0,-45,45,2004,684,-0.82
"{'cat': 'II', 'resp': 'reach'}",48,287,Right,55.66216229719275,32.82507260644212,2.7831081148596377,0.5156150347697507,Right,Correct,0.0,0.0,-45,45,2009,648,-0.91
"{'cat': 'II', 'resp': 'reach'}",48,288,Right,48.01180037672481,38.070169973849545,2.4005900188362403,0.5980048315538022,Right,Correct,0.0,0.0,-45,45,2003,1007,-0.88
"{'cat': 'II', 'resp': 'reach'}",48,289,Right,70.77670381443721,49.921708110225026,3.5388351907218607,0.7841683572686847,Right,Correct,0.0,0.0,-45,45,2008,868,-0.88
"{'cat': 'II', 'resp': 'reach'}",48,290,Right,61.21190110534777,36.009431262942236,3.0605950552673886,0.5656348235780297,Right,Correct,0.0,0.0,-45,45,2006,692,-0.85
"{'cat': 'II', 'resp': 'reach'}",48,291,Left,50.42583446639207,71.68678693607471,2.5212917233196035,1.1260534159891453,Left,Correct,0.0,0.0,-45,45,2008,1356,-2.39
"{'cat': 'II', 'resp': 'reach'}",48,292,Left,21.91391240193446,34.1715548557475,1.095695620096723,0.5367655284827848,Left,Correct,0.0,0.0,-45,45,2003,1037,-2.31
"{'cat': 'II', 'resp': 'reach'}",48,293,Right,48.92961774400472,39.3729707396928,2.446480887200236,0.618469178129124,Right,Correct,0.0,0.0,-45,45,2003,1691,-0.8
"{'cat': 'II', 'resp': 'reach'}",48,294,Left,64.09396888926935,77.45938838062386,3.204698444463468,1.2167292274406327,Right,Incorrect,0.0,0.0,-45,45,2004,2159,-0.81
"{'cat': 'II', 'resp': 'reach'}",48,295,Left,39.81928623507687,53.1712753073791,1.9909643117538436,0.8352124394383127,Right,Incorrect,0.0,0.0,-45,45,2012,2295,-0.79
"{'cat': 'II', 'resp': 'reach'}",48,296,Right,59.61538186666906,50.78921627611182,2.9807690933334534,0.7977951436730804,Right,Correct,0.0,0.0,-45,45,2004,1597,-0.82
"{'cat': 'II', 'resp': 'reach'}",48,297,Right,58.22097259903241,27.755100363572918,2.9110486299516203,0.4359760970092404,Right,Correct,0.0,0.0,-45,45,2006,716,-0.85
"{'cat': 'II', 'resp': 'reach'}",48,298,Right,57.89630778577912,30.355187968689215,2.894815389288956,0.47681817760385653,Right,Correct,0.0,0.0,-45,45,2007,674,-0.84
"{'cat': 'II', 'resp': 'reach'}",48,299,Left,13.719854025464024,33.71949567358624,0.6859927012732012,0.5296645994544567,Left,Correct,0.0,0.0,-45,45,2008,1106,-2.43
"{'cat': 'II', 'resp': 'reach'}",48,300,Right,34.220446054379025,14.607916445739246,1.711022302718951,0.22946061495093967,Left,Incorrect,0.0,0.0,-45,45,2009,1585,-2.46
"{'cat': 'II', 'resp': 'reach'}",48,301,Right,52.00199245847971,40.20810876043027,2.6000996229239854,0.6315874954825357,Right,Correct,0.0,0.0,-45,45,2012,1490,-0.74
"{'cat': 'II', 'resp': 'reach'}",48,302,Left,50.982597120848624,81.27158064363158,2.5491298560424314,1.2766110034783171,Right,Incorrect,0.0,0.0,-45,45,2004,1016,-0.84
"{'cat': 'II', 'resp': 'reach'}",48,303,Left,52.97918647968644,63.469864314163814,2.648959323984322,0.9969822972685901,Right,Incorrect,0.0,0.0,-45,45,2006,1063,-0.83
"{'cat': 'II', 'resp': 'reach'}",48,304,Right,86.93972444945706,59.74866421882689,4.346986222472853,0.9385298228583494,Right,Correct,0.0,0.0,-45,45,2009,822,-0.86
"{'cat': 'II', 'resp': 'reach'}",48,305,Right,82.75562609992437,59.06362134675342,4.137781304996219,0.9277691945868493,Right,Correct,0.0,0.0,-45,45,2002,1156,-0.79
"{'cat': 'II', 'resp': 'reach'}",48,306,Left,48.581630405909294,76.75968035703778,2.4290815202954645,1.2057382395078533,Left,Correct,0.0,0.0,-45,45,2001,1109,-2.43
"{'cat': 'II', 'resp': 'reach'}",48,307,Left,32.56238278947597,57.20324052479997,1.6281191394737986,0.8985464009712076,Left,Correct,0.0,0.0,-45,45,2002,1052,-2.4
"{'cat': 'II', 'resp': 'reach'}",48,308,Left,46.106948629574084,60.36276989371526,2.305347431478704,0.9481761722421349,Left,Correct,0.0,0.0,-45,45,2006,1456,-2.4
"{'cat': 'II', 'resp': 'reach'}",48,309,Left,24.354867650234986,47.10131829450677,1.2177433825117492,0.7398657776420849,Left,Correct,0.0,0.0,-45,45,2003,737,-2.46
"{'cat': 'II', 'resp': 'reach'}",48,310,Left,53.84493121936863,80.73800316631657,2.6922465609684316,1.268229588064048,Left,Correct,0.0,0.0,-45,45,2001,2957,-2.4
"{'cat': 'II', 'resp': 'reach'}",48,311,Left,53.0576980323988,66.0170970788252,2.65288490161994,1.0369941359708073,Left,Correct,0.0,0.0,-45,45,2002,1168,-2.43
"{'cat': 'II', 'resp': 'reach'}",48,312,Right,53.898696953354445,44.90675236510129,2.694934847667722,0.7053936166338914,Right,Correct,0.0,0.0,-45,45,2010,1219,-0.79
"{'cat': 'II', 'resp': 'reach'}",48,313,Right,71.67868342817147,48.645849182370554,3.5839341714085733,0.7641272120948618,Right,Correct,0.0,0.0,-45,45,2003,967,-0.81
"{'cat': 'II', 'resp': 'reach'}",48,314,Right,56.075506033793,31.421063300143928,2.80377530168965,0.49356090815856013,Right,Correct,0.0,0.0,-45,45,2008,1230,-0.79
"{'cat': 'II', 'resp': 'reach'}",48,315,Left,32.27765416928796,53.63806116951768,1.613882708464398,0.8425446946147834,Left,Correct,0.0,0.0,-45,45,2007,1375,-2.44
"{'cat': 'II', 'resp': 'reach'}",48,316,Left,16.466719828603253,41.06675322414109,0.8233359914301627,0.6450750511787331,Left,Correct,0.0,0.0,-45,45,2001,995,-2.45
"{'cat': 'II', 'resp': 'reach'}",48,317,Right,51.859547792216915,22.919394689488776,2.5929773896108457,0.3600170099061143,Right,Correct,0.0,0.0,-45,45,2005,1560,-0.76
"{'cat': 'II', 'resp': 'reach'}",48,318,Left,35.77690909365383,67.4053203838011,1.7888454546826915,1.0588002966530792,Left,Correct,0.0,0.0,-45,45,2004,1869,-2.43
"{'cat': 'II', 'resp': 'reach'}",48,319,Right,65.82591399763984,46.60585622736301,3.2912956998819927,0.7320830776907288,Right,Correct,0.0,0.0,-45,45,2008,700,-0.8
"{'cat': 'II', 'resp': 'reach'}",48,320,Right,39.168565467464774,19.555072686823866,1.9584282733732385,0.3071703634667014,Left,Incorrect,0.0,0.0,-45,45,2011,1605,-2.35
"{'cat': 'II', 'resp': 'reach'}",48,321,Right,40.570137618270735,31.162802900137606,2.028506880913537,0.48950416328169505,Right,Correct,0.0,0.0,-45,45,2004,769,-0.8
"{'cat': 'II', 'resp': 'reach'}",48,322,Left,31.307741221444097,61.825520922419734,1.565387061072205,0.9711530116711794,Left,Correct,0.0,0.0,-45,45,2008,1349,-2.42
"{'cat': 'II', 'resp': 'reach'}",48,323,Left,40.771924449589505,71.32162732806053,2.0385962224794754,1.12031750227952,Right,Incorrect,0.0,0.0,-45,45,2013,1601,-0.77
"{'cat': 'II', 'resp': 'reach'}",48,324,Right,32.5056466710209,15.472093029209613,1.6252823335510447,0.24303506898111382,Right,Correct,0.0,0.0,-45,45,2007,1910,-0.69
"{'cat': 'II', 'resp': 'reach'}",48,325,Left,25.88091859536165,40.4285264093285,1.2940459297680826,0.6350498078150367,Left,Correct,0.0,0.0,-45,45,2001,1658,-2.39
"{'cat': 'II', 'resp': 'reach'}",48,326,Right,50.980044824728836,36.72157595761192,2.549002241236442,0.5768211662833659,Right,Correct,0.0,0.0,-45,45,2008,663,-0.77
"{'cat': 'II', 'resp': 'reach'}",48,327,Right,50.93252282660719,31.478825095151652,2.5466261413303597,0.4944682283128322,Right,Correct,0.0,0.0,-45,45,2001,1611,-0.72
"{'cat': 'II', 'resp': 'reach'}",48,328,Left,57.833455784646134,70.71301625771773,2.891672789232307,1.1107574619421081,Right,Incorrect,0.0,0.0,-45,45,2009,1150,-0.8
"{'cat': 'II', 'resp': 'reach'}",48,329,Right,59.39214887771411,28.853761740779674,2.9696074438857054,0.45323382956631836,Right,Correct,0.0,0.0,-45,45,2007,1022,-0.81
"{'cat': 'II', 'resp': 'reach'}",48,330,Left,37.63780204637726,50.332187253466,1.881890102318863,0.790616148572973,Left,Correct,0.0,0.0,-45,45,2008,1804,-2.42
"{'cat': 'II', 'resp': 'reach'}",48,331,Left,54.14853182756617,81.11845207089604,2.7074265913783084,1.2742056654825138,Right,Incorrect,0.0,0.0,-45,45,2001,1407,-0.76
"{'cat': 'II', 'resp': 'reach'}",48,332,Left,16.060674800376486,35.219425686893274,0.8030337400188243,0.5532254450079778,Left,Correct,0.0,0.0,-45,45,2004,848,-2.35
"{'cat': 'II', 'resp': 'reach'}",48,333,Left,53.321368211492036,83.6730403454958,2.666068410574602,1.3143330442646597,Right,Incorrect,0.0,0.0,-45,45,2005,2155,-0.75
"{'cat': 'II', 'resp': 'reach'}",48,334,Left,49.55880399741716,78.91821948225572,2.477940199870858,1.2396444927992074,Right,Incorrect,0.0,0.0,-45,45,2010,1100,-0.79
"{'cat': 'II', 'resp': 'reach'}",48,335,Left,19.14710072471815,31.837809387963937,0.9573550362359075,0.5001071403980983,Left,Correct,0.0,0.0,-45,45,2002,1382,-2.42
"{'cat': 'II', 'resp': 'reach'}",48,336,Left,29.257651075069624,53.507894354503755,1.462882553753481,0.8405000390658388,Left,Correct,0.0,0.0,-45,45,2012,1428,-2.35
"{'cat': 'II', 'resp': 'reach'}",48,337,Right,49.46921459838559,20.894577734817158,2.4734607299192795,0.3282112595578122,Right,Correct,0.0,0.0,-45,45,2012,2550,-0.78
"{'cat': 'II', 'resp': 'reach'}",48,338,Right,43.91329142287202,33.221393153876846,2.195664571143601,0.5218404233711887,Right,Correct,0.0,0.0,-45,45,2002,906,-0.7
"{'cat': 'II', 'resp': 'reach'}",48,339,Left,27.654376521081936,53.90270091382332,1.3827188260540968,0.8467016459975757,Right,Incorrect,0.0,0.0,-45,45,2007,3319,-0.66
"{'cat': 'II', 'resp': 'reach'}",48,340,Left,48.67817888089594,78.20553335100658,2.4339089440447967,1.2284496452279692,Left,Correct,0.0,0.0,-45,45,2003,1388,-2.42
"{'cat': 'II', 'resp': 'reach'}",48,341,Left,39.38601279558622,47.75730901963694,1.969300639779311,0.750170055856545,Right,Incorrect,0.0,0.0,-45,45,2006,2403,-0.74
"{'cat': 'II', 'resp': 'reach'}",48,342,Right,86.62526072337258,65.69930271624632,4.331263036168629,1.032002233796657,Right,Correct,0.0,0.0,-45,45,2002,814,-0.77
"{'cat': 'II', 'resp': 'reach'}",48,343,Right,87.39096455574706,69.71498069847325,4.369548227787353,1.0950803560373892,Right,Correct,0.0,0.0,-45,45,2010,791,-0.77
"{'cat': 'II', 'resp': 'reach'}",48,344,Right,59.302058600728174,32.42707586615541,2.9651029300364087,0.5093633165925636,Right,Correct,0.0,0.0,-45,45,2010,1906,-0.73
"{'cat': 'II', 'resp': 'reach'}",48,345,Left,63.67242932506176,80.98953568248294,3.183621466253088,1.2721806515886838,Left,Correct,0.0,0.0,-45,45,2006,1212,-2.36
"{'cat': 'II', 'resp': 'reach'}",48,346,Left,17.555589073141995,32.31456601700791,0.8777794536570996,0.5075960160148721,Left,Correct,0.0,0.0,-45,45,2001,1030,-2.46
"{'cat': 'II', 'resp': 'reach'}",48,347,Left,50.098528061410136,74.60837312271124,2.504926403070507,1.1719455844929791,Right,Incorrect,0.0,0.0,-45,45,2007,2338,-0.71
"{'cat': 'II', 'resp': 'reach'}",48,348,Left,30.804318448582286,50.29330628980454,1.5402159224291143,0.7900054078239565,Right,Incorrect,0.0,0.0,-45,45,2003,2005,-0.73
"{'cat': 'II', 'resp': 'reach'}",48,349,Left,48.67878046333651,61.33312542184337,2.4339390231668254,0.9634184812348225,Right,Incorrect,0.0,0.0,-45,45,2010,1339,-0.71
"{'cat': 'II', 'resp': 'reach'}",48,350,Left,45.80927630808423,77.01536749049716,2.2904638154042116,1.2097545636083202,Left,Correct,0.0,0.0,-45,45,2007,1412,-2.39
"{'cat': 'II', 'resp': 'reach'}",48,351,Right,81.65718248391276,63.584121153805896,4.082859124195639,0.9987770395087997,Right,Correct,0.0,0.0,-45,45,2008,886,-0.76
"{'cat': 'II', 'resp': 'reach'}",48,352,Right,61.11189526846898,30.814851922586072,3.055594763423449,0.4840385621072686,Right,Correct,0.0,0.0,-45,45,2003,1005,-0.83
"{'cat': 'II', 'resp': 'reach'}",48,353,Right,35.06149501952679,18.074129088398177,1.7530747509763394,0.28390775582072647,Left,Incorrect,0.0,0.0,-45,45,2005,1622,-2.47
"{'cat': 'II', 'resp': 'reach'}",48,354,Right,47.85235269821774,28.885652027407588,2.392617634910887,0.453734761017274,Right,Correct,0.0,0.0,-45,45,2001,1619,-0.7
"{'cat': 'II', 'resp': 'reach'}",48,355,Right,35.59033552803059,22.024717119357046,1.7795167764015298,0.3459634474978272,Left,Incorrect,0.0,0.0,-45,45,2009,1576,-2.37
"{'cat': 'II', 'resp': 'reach'}",48,356,Right,38.739492475962976,15.948523504890613,1.9369746237981489,0.25051882139284243,Right,Correct,0.0,0.0,-45,45,2011,961,-0.82
"{'cat': 'II', 'resp': 'reach'}",48,357,Left,35.252595931709735,63.815400543354414,1.7626297965854867,1.0024099676644616,Left,Correct,0.0,0.0,-45,45,2006,1548,-2.36
"{'cat': 'II', 'resp': 'reach'}",48,358,Right,41.748060407399365,23.555818133159043,2.087403020369968,0.37001392598214844,Right,Correct,0.0,0.0,-45,45,2009,1743,-0.83
"{'cat': 'II', 'resp': 'reach'}",48,359,Left,33.19920649503144,63.593381419941444,1.659960324751572,0.9989224994291084,Left,Correct,0.0,0.0,-45,45,2007,1121,-2.43
"{'cat': 'II', 'resp': 'reach'}",48,360,Left,32.90555380484296,64.98983673256103,1.645277690242148,1.0208579681850691,Left,Correct,0.0,0.0,-45,45,2004,1446,-2.46
"{'cat': 'II', 'resp': 'reach'}",48,361,Left,56.0139084451173,70.98464847793929,2.800695422255865,1.1150242508797399,Right,Incorrect,0.0,0.0,-45,45,2002,1517,-0.77
"{'cat': 'II', 'resp': 'reach'}",48,362,Right,57.89159246784463,33.99889965030213,2.894579623392232,0.5340534668576288,Right,Correct,0.0,0.0,-45,45,2002,1278,-0.91
"{'cat': 'II', 'resp': 'reach'}",48,363,Left,32.0562953021638,49.22285952771484,1.6028147651081897,0.7731908694047565,Left,Correct,0.0,0.0,-45,45,2010,2269,-2.42
"{'cat': 'II', 'resp': 'reach'}",48,364,Right,48.23464467299704,34.67173871188889,2.411732233649852,0.544622398122275,Right,Correct,0.0,0.0,-45,45,2006,1549,-0.83
"{'cat': 'II', 'resp': 'reach'}",48,365,Right,66.39254854214018,45.20237218837598,3.3196274271070085,0.7100372019591679,Right,Correct,0.0,0.0,-45,45,2009,695,-0.81
"{'cat': 'II', 'resp': 'reach'}",48,366,Right,67.23414222769057,52.77146404417389,3.3617071113845283,0.828932218801773,Right,Correct,0.0,0.0,-45,45,2011,781,-0.83
"{'cat': 'II', 'resp': 'reach'}",48,367,Left,47.66777282046329,58.471064515181965,2.3833886410231644,0.9184613336423524,Right,Incorrect,0.0,0.0,-45,45,2005,2105,-0.75
"{'cat': 'II', 'resp': 'reach'}",48,368,Left,15.406392399561014,34.05771515760506,0.7703196199780507,0.534977338685929,Left,Correct,0.0,0.0,-45,45,2005,876,-2.48
"{'cat': 'II', 'resp': 'reach'}",48,369,Left,18.88660901509711,41.889492143754325,0.9443304507548556,0.6579986039071297,Left,Correct,0.0,0.0,-45,45,2005,871,-2.43
"{'cat': 'II', 'resp': 'reach'}",48,370,Left,18.047081514700608,46.60805330165203,0.9023540757350303,0.7321175892529574,Left,Correct,0.0,0.0,-45,45,2008,741,-2.38
"{'cat': 'II', 'resp': 'reach'}",48,371,Left,63.22040450661829,81.38624764214583,3.161020225330914,1.2784121884790247,Left,Correct,0.0,0.0,-45,45,2003,1866,-2.45
"{'cat': 'II', 'resp': 'reach'}",48,372,Left,25.672741759395635,58.28337515042603,1.2836370879697818,0.9155131159949818,Right,Incorrect,0.0,0.0,-45,45,2002,1348,-0.73
"{'cat': 'II', 'resp': 'reach'}",48,373,Left,63.71716498394035,87.82970185185881,3.1858582491970173,1.3796257305239072,Right,Incorrect,0.0,0.0,-45,45,2006,923,-0.75
"{'cat': 'II', 'resp': 'reach'}",48,374,Left,18.654611945068353,49.03553628762663,0.9327305972534177,0.7702484028302176,Left,Correct,0.0,0.0,-45,45,2001,921,-2.47
"{'cat': 'II', 'resp': 'reach'}",48,375,Left,31.874045300147245,55.41284817347252,1.5937022650073625,0.8704229836813394,Left,Correct,0.0,0.0,-45,45,2010,3357,-2.43
"{'cat': 'II', 'resp': 'reach'}",48,376,Left,17.863816813158657,42.864737159831186,0.8931908406579327,0.6733177167969153,Left,Correct,0.0,0.0,-45,45,2002,1038,-2.43
"{'cat': 'II', 'resp': 'reach'}",48,377,Right,55.49145552903711,27.301127848403834,2.7745727764518557,0.428845113416306,Right,Correct,0.0,0.0,-45,45,2009,950,-0.81
"{'cat': 'II', 'resp': 'reach'}",48,378,Right,82.88874349937944,60.068446228396475,4.144437174968972,0.9435529469184194,Right,Correct,0.0,0.0,-45,45,2001,752,-0.82
"{'cat': 'II', 'resp': 'reach'}",48,379,Left,43.39613201911561,69.52184349566333,2.1698066009557806,1.0920465639499763,Left,Correct,0.0,0.0,-45,45,2005,2239,-2.61
"{'cat': 'II', 'resp': 'reach'}",48,380,Left,68.68022874695998,85.4674551344043,3.434011437347999,1.3425196458562991,Right,Incorrect,0.0,0.0,-45,45,2004,1699,-0.77
"{'cat': 'II', 'resp': 'reach'}",48,381,Left,23.63926506420985,34.34728970037918,1.1819632532104927,0.539525964967158,Left,Correct,0.0,0.0,-45,45,2012,2061,-2.49
"{'cat': 'II', 'resp': 'reach'}",48,382,Right,77.5610427014465,46.569061380347215,3.8780521350723247,0.7315051055853548,Right,Correct,0.0,0.0,-45,45,2005,1021,-0.7
"{'cat': 'II', 'resp': 'reach'}",48,383,Left,14.47549360361209,35.93723344668709,0.7237746801806045,0.5645007429322677,Left,Correct,0.0,0.0,-45,45,2009,954,-2.48
"{'cat': 'II', 'resp': 'reach'}",48,384,Left,42.04860321362138,73.66985110478345,2.102430160681069,1.157203315109208,Left,Correct,0.0,0.0,-45,45,2007,2412,-2.45
"{'cat': 'II', 'resp': 'reach'}",48,385,Right,35.92112132756765,15.931751783869409,1.7960560663783824,0.2502553718151011,Left,Incorrect,0.0,0.0,-45,45,2005,2850,-2.42
"{'cat': 'II', 'resp': 'reach'}",48,386,Right,44.92593144985213,26.10486263206219,2.2462965724926063,0.4100542233392864,Right,Correct,0.0,0.0,-45,45,2005,1542,-0.72
"{'cat': 'II', 'resp': 'reach'}",48,387,Left,52.17089388048858,61.86592695328175,2.608544694024429,0.9717877081197636,Left,Correct,0.0,0.0,-45,45,2008,1558,-2.48
"{'cat': 'II', 'resp': 'reach'}",48,388,Left,29.966720392741138,56.2844375605439,1.498336019637057,0.8841138777581905,Left,Correct,0.0,0.0,-45,45,2002,1519,-2.48
"{'cat': 'II', 'resp': 'reach'}",48,389,Left,61.2645079041893,80.6021101260622,3.0632253952094652,1.2660949851793626,Left,Correct,0.0,0.0,-45,45,2011,2012,-2.45
"{'cat': 'II', 'resp': 'reach'}",48,390,Right,43.92249565486317,15.231930267581216,2.1961247827431585,0.23926260114312584,Left,Incorrect,0.0,0.0,-45,45,2013,2377,-2.51
"{'cat': 'II', 'resp': 'reach'}",48,391,Right,36.2644354327978,16.770391510439676,1.8132217716398897,0.2634286938351096,Right,Correct,0.0,0.0,-45,45,2008,1373,-0.76
"{'cat': 'II', 'resp': 'reach'}",48,392,Right,47.90449613378068,39.224142062290234,2.3952248066890345,0.616131382731267,Left,Incorrect,0.0,0.0,-45,45,2003,3114,-2.49
"{'cat': 'II', 'resp': 'reach'}",48,393,Left,18.112090728605214,39.7421060835067,0.9056045364302606,0.6242675425506543,Left,Correct,0.0,0.0,-45,45,2004,1073,-2.45
"{'cat': 'II', 'resp': 'reach'}",48,394,Right,41.70217555975485,26.604530187490674,2.085108777987742,0.4179029829461429,Right,Correct,0.0,0.0,-45,45,2011,2109,-0.76
"{'cat': 'II', 'resp': 'reach'}",48,395,Right,62.416223599443185,48.0246971446689,3.120811179972159,0.7543701787028327,Right,Correct,0.0,0.0,-45,45,2006,1127,-0.78
"{'cat': 'II', 'resp': 'reach'}",48,396,Right,39.646640179606365,23.89099974285248,1.9823320089803185,0.37527894639530496,Right,Correct,0.0,0.0,-45,45,2008,2496,-0.68
"{'cat': 'II', 'resp': 'reach'}",48,397,Right,57.58490299892557,30.60713668969045,2.879245149946279,0.4807757788587507,Right,Correct,0.0,0.0,-45,45,2005,1388,-0.74
"{'cat': 'II', 'resp': 'reach'}",48,398,Left,14.719980523220478,42.9126717935322,0.7359990261610239,0.6740706722623534,Left,Correct,0.0,0.0,-45,45,2003,1142,-2.48
"{'cat': 'II', 'resp': 'reach'}",48,399,Right,83.3781494227621,66.77252789141619,4.168907471138105,1.0488604154264631,Right,Correct,0.0,0.0,-45,45,2011,1124,-0.76
