condition,subject,trial,cat,x,y,xt,yt,resp,fb,rotation,su,target_angle_left,target_angle_right,rt,mt,ep
"{'cat': 'II', 'resp': 'button'}",55,0,Left,42.91647836561874,66.04120601429595,2.1458239182809367,1.037372838243611,Right,Incorrect,0.0,0.0,-45,45,14442,-1,-1
"{'cat': 'II', 'resp': 'button'}",55,1,Right,51.14934411291347,32.35846189275401,2.5574672056456733,0.5082855308187063,Left,Incorrect,0.0,0.0,-45,45,3685,-1,-1
"{'cat': 'II', 'resp': 'button'}",55,2,Right,61.15187570123595,50.26494154324311,3.0575937850617976,0.7895598554268648,Left,Incorrect,0.0,0.0,-45,45,1549,-1,-1
"{'cat': 'II', 'resp': 'button'}",55,3,Right,77.75682470125912,56.106404857395916,3.887841235062956,0.8813173465966484,Right,Correct,0.0,0.0,-45,45,5694,-1,-1
"{'cat': 'II', 'resp': 'button'}",55,4,Right,58.34878578662045,25.602284183137186,2.917439289331022,0.4021597395243097,Left,Incorrect,0.0,0.0,-45,45,5287,-1,-1
"{'cat': 'II', 'resp': 'button'}",55,5,Left,32.39054396385654,59.74394465239021,1.619527198192827,0.9384556880821214,Right,Incorrect,0.0,0.0,-45,45,2321,-1,-1
"{'cat': 'II', 'resp': 'button'}",55,6,Right,61.31933921025453,33.744696118735654,3.0659669605127267,0.5300604471211996,Right,Correct,0.0,0.0,-45,45,488,-1,-1
"{'cat': 'II', 'resp': 'button'}",55,7,Left,32.811534319061174,61.640301940869236,1.6405767159530587,0.9682435987124575,Left,Correct,0.0,0.0,-45,45,1627,-1,-1
"{'cat': 'II', 'resp': 'button'}",55,8,Right,87.35713028192906,60.14190313709578,4.367856514096453,0.944706805342045,Left,Incorrect,0.0,0.0,-45,45,2451,-1,-1
"{'cat': 'II', 'resp': 'button'}",55,9,Right,71.24313530854319,55.10929463755567,3.5621567654271593,0.8656547758893014,Left,Incorrect,0.0,0.0,-45,45,448,-1,-1
"{'cat': 'II', 'resp': 'button'}",55,10,Right,78.97965146388202,58.140761786275775,3.948982573194101,0.9132729505093907,Right,Correct,0.0,0.0,-45,45,2247,-1,-1
"{'cat': 'II', 'resp': 'button'}",55,11,Right,41.9443551356853,32.872444929524306,2.097217756784265,0.5163591574806431,Left,Incorrect,0.0,0.0,-45,45,3570,-1,-1
"{'cat': 'II', 'resp': 'button'}",55,12,Right,74.28962107828812,55.41092295898863,3.714481053914406,0.8703927424829435,Right,Correct,0.0,0.0,-45,45,1242,-1,-1
"{'cat': 'II', 'resp': 'button'}",55,13,Left,62.96074584180753,75.2515507265083,3.1480372920903767,1.1820485946681907,Right,Incorrect,0.0,0.0,-45,45,787,-1,-1
"{'cat': 'II', 'resp': 'button'}",55,14,Right,53.321304738172685,40.303138014233646,2.666065236908634,0.6330802115106597,Right,Correct,0.0,0.0,-45,45,3495,-1,-1
"{'cat': 'II', 'resp': 'button'}",55,15,Left,37.280644459911,57.947680174356385,1.8640322229955502,0.9102400316416447,Left,Correct,0.0,0.0,-45,45,1600,-1,-1
"{'cat': 'II', 'resp': 'button'}",55,16,Left,41.91413590512974,55.92771034563168,2.095706795256487,0.8785104197696717,Left,Correct,0.0,0.0,-45,45,1073,-1,-1
"{'cat': 'II', 'resp': 'button'}",55,17,Right,83.71202066865479,61.15597679141653,4.185601033432739,0.9606358370551104,Right,Correct,0.0,0.0,-45,45,1044,-1,-1
"{'cat': 'II', 'resp': 'button'}",55,18,Left,32.217196995956286,49.98458342693871,1.6108598497978142,0.785156000434084,Left,Correct,0.0,0.0,-45,45,1048,-1,-1
"{'cat': 'II', 'resp': 'button'}",55,19,Right,68.41874014769812,50.62840928869569,3.420937007384906,0.7952691934215181,Right,Correct,0.0,0.0,-45,45,776,-1,-1
"{'cat': 'II', 'resp': 'button'}",55,20,Right,55.336455315144015,33.19834464418927,2.766822765757201,0.5214783782276353,Left,Incorrect,0.0,0.0,-45,45,3174,-1,-1
"{'cat': 'II', 'resp': 'button'}",55,21,Left,25.710484114681037,46.680225883418125,1.285524205734052,0.7332512735162925,Left,Correct,0.0,0.0,-45,45,711,-1,-1
"{'cat': 'II', 'resp': 'button'}",55,22,Left,35.64552775323586,64.11452532542303,1.7822763876617929,1.0071086087537289,Left,Correct,0.0,0.0,-45,45,1123,-1,-1
"{'cat': 'II', 'resp': 'button'}",55,23,Left,65.83931690182769,82.63576622105224,3.2919658450913847,1.2980395804191065,Right,Incorrect,0.0,0.0,-45,45,606,-1,-1
"{'cat': 'II', 'resp': 'button'}",55,24,Left,40.43370855416449,52.658350882606804,2.0216854277082246,0.8271554414147557,Left,Correct,0.0,0.0,-45,45,727,-1,-1
"{'cat': 'II', 'resp': 'button'}",55,25,Right,75.48334042303563,49.86170981050864,3.7741670211517815,0.7832259061806004,Right,Correct,0.0,0.0,-45,45,622,-1,-1
"{'cat': 'II', 'resp': 'button'}",55,26,Left,43.99865824155217,73.16642125372718,2.1999329120776085,1.149295457500827,Left,Correct,0.0,0.0,-45,45,3602,-1,-1
"{'cat': 'II', 'resp': 'button'}",55,27,Left,10.61994945001372,32.180273085960124,0.5309974725006861,0.5054865475868283,Left,Correct,0.0,0.0,-45,45,1145,-1,-1
"{'cat': 'II', 'resp': 'button'}",55,28,Right,79.18177386296989,65.82828247393749,3.959088693148494,1.0340282430927787,Right,Correct,0.0,0.0,-45,45,1310,-1,-1
"{'cat': 'II', 'resp': 'button'}",55,29,Right,61.34910512149453,34.56924911280976,3.0674552560747266,0.543012495264593,Right,Correct,0.0,0.0,-45,45,3031,-1,-1
"{'cat': 'II', 'resp': 'button'}",55,30,Left,25.074600857561617,43.05941331477462,1.2537300428780809,0.6763756826879124,Left,Correct,0.0,0.0,-45,45,726,-1,-1
"{'cat': 'II', 'resp': 'button'}",55,31,Left,40.311013860570235,60.959496910637384,2.0155506930285116,0.9575495383049405,Left,Correct,0.0,0.0,-45,45,1615,-1,-1
"{'cat': 'II', 'resp': 'button'}",55,32,Right,49.53479314509021,26.850167444723596,2.4767396572545106,0.4217614439599974,Right,Correct,0.0,0.0,-45,45,1420,-1,-1
"{'cat': 'II', 'resp': 'button'}",55,33,Left,34.60003638732127,43.463305387429145,1.7300018193660633,0.6827200045293854,Left,Correct,0.0,0.0,-45,45,1603,-1,-1
"{'cat': 'II', 'resp': 'button'}",55,34,Right,50.14595416924605,23.582575829046597,2.507297708462303,0.370434234886285,Left,Incorrect,0.0,0.0,-45,45,1694,-1,-1
"{'cat': 'II', 'resp': 'button'}",55,35,Left,36.94699992234997,50.228078943505636,1.8473499961174982,0.7889808190642273,Left,Correct,0.0,0.0,-45,45,782,-1,-1
"{'cat': 'II', 'resp': 'button'}",55,36,Right,58.084319373352265,36.06603741467311,2.904215968667613,0.5665239909301583,Right,Correct,0.0,0.0,-45,45,881,-1,-1
"{'cat': 'II', 'resp': 'button'}",55,37,Left,27.201502394674073,59.823608008129725,1.3600751197337035,0.9397070371478793,Left,Correct,0.0,0.0,-45,45,690,-1,-1
"{'cat': 'II', 'resp': 'button'}",55,38,Right,66.12672973507972,36.03313824885378,3.306336486753986,0.5660072120419222,Right,Correct,0.0,0.0,-45,45,1072,-1,-1
"{'cat': 'II', 'resp': 'button'}",55,39,Right,70.38105134315077,46.882193096766514,3.5190525671575386,0.7364237670848989,Left,Incorrect,0.0,0.0,-45,45,1060,-1,-1
"{'cat': 'II', 'resp': 'button'}",55,40,Right,75.56668731128995,43.0304682025574,3.778334365564498,0.6759210139284175,Right,Correct,0.0,0.0,-45,45,804,-1,-1
"{'cat': 'II', 'resp': 'button'}",55,41,Right,62.41678678676288,52.514087609737935,3.1208393393381435,0.8248893592236175,Right,Correct,0.0,0.0,-45,45,702,-1,-1
"{'cat': 'II', 'resp': 'button'}",55,42,Right,64.456850554076,41.07866433115919,3.2228425277038,0.6452621504102539,Right,Correct,0.0,0.0,-45,45,691,-1,-1
"{'cat': 'II', 'resp': 'button'}",55,43,Left,46.16131524138561,54.576082942291976,2.3080657620692806,0.8572791061660584,Left,Correct,0.0,0.0,-45,45,1093,-1,-1
"{'cat': 'II', 'resp': 'button'}",55,44,Right,52.57672979021364,35.215010383674034,2.628836489510682,0.5531560895871931,Right,Correct,0.0,0.0,-45,45,1083,-1,-1
"{'cat': 'II', 'resp': 'button'}",55,45,Right,60.41983628066505,50.315259400001466,3.0209918140332523,0.7903502464725469,Right,Correct,0.0,0.0,-45,45,1173,-1,-1
"{'cat': 'II', 'resp': 'button'}",55,46,Right,33.73148894009415,12.253810585572872,1.6865744470047077,0.19248240657058288,Left,Incorrect,0.0,0.0,-45,45,916,-1,-1
"{'cat': 'II', 'resp': 'button'}",55,47,Right,53.31366704850174,25.089204995719598,2.6656833524250874,0.39410031049480515,Right,Correct,0.0,0.0,-45,45,983,-1,-1
"{'cat': 'II', 'resp': 'button'}",55,48,Right,55.58362708762495,31.43663946929705,2.7791813543812474,0.4938055780514726,Right,Correct,0.0,0.0,-45,45,1510,-1,-1
"{'cat': 'II', 'resp': 'button'}",55,49,Right,60.53293115435545,49.75183149039118,3.0266465577177724,0.7814999415642513,Right,Correct,0.0,0.0,-45,45,1002,-1,-1
"{'cat': 'II', 'resp': 'button'}",55,50,Left,24.252611704998444,47.593596576488316,1.2126305852499222,0.7475984668130601,Left,Correct,0.0,0.0,-45,45,950,-1,-1
"{'cat': 'II', 'resp': 'button'}",55,51,Left,40.01494179172129,58.406986603146436,2.000747089586065,0.9174548001538115,Right,Incorrect,0.0,0.0,-45,45,3609,-1,-1
"{'cat': 'II', 'resp': 'button'}",55,52,Left,28.72145619494367,43.03218771931533,1.4360728097471835,0.6759480240344898,Left,Correct,0.0,0.0,-45,45,550,-1,-1
"{'cat': 'II', 'resp': 'button'}",55,53,Right,74.11264016426495,51.402799335107765,3.705632008213247,0.8074332838256243,Right,Correct,0.0,0.0,-45,45,567,-1,-1
"{'cat': 'II', 'resp': 'button'}",55,54,Left,35.12636346711663,46.57706598661595,1.7563181733558315,0.7316308416465985,Left,Correct,0.0,0.0,-45,45,684,-1,-1
"{'cat': 'II', 'resp': 'button'}",55,55,Right,67.05243970572371,45.273092047113245,3.3526219852861856,0.7111480669025274,Right,Correct,0.0,0.0,-45,45,1045,-1,-1
"{'cat': 'II', 'resp': 'button'}",55,56,Right,80.37311397505749,49.33082001724835,4.018655698752875,0.7748867088087386,Right,Correct,0.0,0.0,-45,45,1070,-1,-1
"{'cat': 'II', 'resp': 'button'}",55,57,Right,49.35514356336843,39.99022733864803,2.467757178168421,0.6281650221124118,Right,Correct,0.0,0.0,-45,45,952,-1,-1
"{'cat': 'II', 'resp': 'button'}",55,58,Right,65.79883176908498,50.53629134708311,3.289941588454249,0.7938222081783486,Right,Correct,0.0,0.0,-45,45,832,-1,-1
"{'cat': 'II', 'resp': 'button'}",55,59,Left,30.975915788575293,42.87537421381731,1.5487957894287647,0.6734848032502085,Left,Correct,0.0,0.0,-45,45,1077,-1,-1
"{'cat': 'II', 'resp': 'button'}",55,60,Left,32.513688565694416,52.07520181467531,1.625684428284721,0.8179953572759491,Left,Correct,0.0,0.0,-45,45,916,-1,-1
"{'cat': 'II', 'resp': 'button'}",55,61,Left,44.896427122396865,52.560942328061614,2.2448213561198433,0.825625351417976,Right,Incorrect,0.0,0.0,-45,45,1146,-1,-1
"{'cat': 'II', 'resp': 'button'}",55,62,Right,58.46692247107858,32.349695453190066,2.923346123553929,0.5081478279080452,Right,Correct,0.0,0.0,-45,45,766,-1,-1
"{'cat': 'II', 'resp': 'button'}",55,63,Right,51.42784338008956,43.28499625107709,2.5713921690044783,0.6799191311652275,Right,Correct,0.0,0.0,-45,45,910,-1,-1
"{'cat': 'II', 'resp': 'button'}",55,64,Left,28.548660311500644,44.09991071281974,1.4274330155750323,0.6927197775968016,Left,Correct,0.0,0.0,-45,45,739,-1,-1
"{'cat': 'II', 'resp': 'button'}",55,65,Left,27.905225394152982,54.82101974364099,1.3952612697076492,0.8611265644446177,Right,Incorrect,0.0,0.0,-45,45,1777,-1,-1
"{'cat': 'II', 'resp': 'button'}",55,66,Left,26.738908560916713,37.17705177086849,1.3369454280458357,0.5839757636274393,Left,Correct,0.0,0.0,-45,45,872,-1,-1
"{'cat': 'II', 'resp': 'button'}",55,67,Left,57.849822393895764,74.8914130527,2.892491119694788,1.1763915653166055,Right,Incorrect,0.0,0.0,-45,45,599,-1,-1
"{'cat': 'II', 'resp': 'button'}",55,68,Left,46.64305307303364,78.7217222735556,2.332152653651682,1.2365579218626912,Left,Correct,0.0,0.0,-45,45,1367,-1,-1
"{'cat': 'II', 'resp': 'button'}",55,69,Left,29.086992561703706,48.729778874206815,1.4543496280851853,0.7654455766113161,Left,Correct,0.0,0.0,-45,45,612,-1,-1
"{'cat': 'II', 'resp': 'button'}",55,70,Left,69.6824038012657,86.3655073347555,3.4841201900632854,1.3566262168321164,Right,Incorrect,0.0,0.0,-45,45,810,-1,-1
"{'cat': 'II', 'resp': 'button'}",55,71,Left,50.77810315317613,70.76176090382242,2.5389051576588066,1.1115231410526298,Left,Correct,0.0,0.0,-45,45,1269,-1,-1
"{'cat': 'II', 'resp': 'button'}",55,72,Right,46.94038446645264,20.01700379864395,2.3470192233226324,0.3144263604034941,Right,Correct,0.0,0.0,-45,45,874,-1,-1
"{'cat': 'II', 'resp': 'button'}",55,73,Right,51.427426419000255,31.900955526431773,2.571371320950013,0.5010990376216639,Right,Correct,0.0,0.0,-45,45,1029,-1,-1
"{'cat': 'II', 'resp': 'button'}",55,74,Right,62.51290947963408,38.948708240322674,3.125645473981704,0.6118048783730498,Right,Correct,0.0,0.0,-45,45,1110,-1,-1
"{'cat': 'II', 'resp': 'button'}",55,75,Left,63.089647696559496,75.38004797511013,3.1544823848279746,1.1840670247292608,Left,Correct,0.0,0.0,-45,45,872,-1,-1
"{'cat': 'II', 'resp': 'button'}",55,76,Right,72.94615134486169,51.5569646207706,3.647307567243084,0.809854906470009,Right,Correct,0.0,0.0,-45,45,634,-1,-1
"{'cat': 'II', 'resp': 'button'}",55,77,Left,20.247961566905627,43.945040022265815,1.0123980783452813,0.6902870744782986,Right,Incorrect,0.0,0.0,-45,45,1925,-1,-1
"{'cat': 'II', 'resp': 'button'}",55,78,Right,59.903714774590505,47.04909337425631,2.9951857387295253,0.7390454305131191,Right,Correct,0.0,0.0,-45,45,1247,-1,-1
"{'cat': 'II', 'resp': 'button'}",55,79,Left,30.160760227616656,43.218141047454424,1.508038011380833,0.6788689720824516,Left,Correct,0.0,0.0,-45,45,633,-1,-1
"{'cat': 'II', 'resp': 'button'}",55,80,Left,33.062205108114846,54.52692650012477,1.6531102554057424,0.856506958578113,Left,Correct,0.0,0.0,-45,45,852,-1,-1
"{'cat': 'II', 'resp': 'button'}",55,81,Left,13.851530042052008,41.242493998094844,0.6925765021026004,0.6478355808006795,Left,Correct,0.0,0.0,-45,45,911,-1,-1
"{'cat': 'II', 'resp': 'button'}",55,82,Left,18.92859215032787,48.82958406406185,0.9464296075163935,0.7670133128675096,Left,Correct,0.0,0.0,-45,45,655,-1,-1
"{'cat': 'II', 'resp': 'button'}",55,83,Left,17.04594946131988,35.67366665114606,0.8522974730659939,0.5603606453892583,Left,Correct,0.0,0.0,-45,45,710,-1,-1
"{'cat': 'II', 'resp': 'button'}",55,84,Right,70.40105311877888,49.808026268737805,3.520052655938944,0.7823826470783705,Right,Correct,0.0,0.0,-45,45,773,-1,-1
"{'cat': 'II', 'resp': 'button'}",55,85,Left,18.748843254926857,34.41049942299135,0.9374421627463428,0.5405188609681272,Left,Correct,0.0,0.0,-45,45,1457,-1,-1
"{'cat': 'II', 'resp': 'button'}",55,86,Right,83.83280694508375,64.73990355544365,4.191640347254188,1.0169320270194675,107,Correct,0.0,0.0,-45,45,1024,-1,-1
"{'cat': 'II', 'resp': 'button'}",55,87,Left,57.309990848847235,65.22540592571639,2.865499542442362,1.0245582804182136,Right,Incorrect,0.0,0.0,-45,45,747,-1,-1
"{'cat': 'II', 'resp': 'button'}",55,88,Left,13.584545509989937,31.354436542165885,0.6792272754994968,0.4925143374915786,Left,Correct,0.0,0.0,-45,45,739,-1,-1
"{'cat': 'II', 'resp': 'button'}",55,89,Left,62.00468401793556,86.59226461181669,3.1002342008967783,1.3601881118109336,Left,Correct,0.0,0.0,-45,45,3317,-1,-1
"{'cat': 'II', 'resp': 'button'}",55,90,Left,45.4794449723084,66.89459684680558,2.27397224861542,1.0507778700938768,Right,Incorrect,0.0,0.0,-45,45,1606,-1,-1
"{'cat': 'II', 'resp': 'button'}",55,91,Right,70.85133676535136,60.949366943807874,3.5425668382675677,0.957390417158077,Right,Correct,0.0,0.0,-45,45,1217,-1,-1
"{'cat': 'II', 'resp': 'button'}",55,92,Right,58.48732636787967,43.295943845915666,2.924366318393983,0.6800910955828243,Right,Correct,0.0,0.0,-45,45,1035,-1,-1
"{'cat': 'II', 'resp': 'button'}",55,93,Left,57.77285646061989,72.94098486642305,2.8886428230309944,1.1457543110097945,Left,Correct,0.0,0.0,-45,45,7981,-1,-1
"{'cat': 'II', 'resp': 'button'}",55,94,Right,58.03814183948024,31.66606629611102,2.901907091974012,0.49740940621974866,Left,Incorrect,0.0,0.0,-45,45,1151,-1,-1
"{'cat': 'II', 'resp': 'button'}",55,95,Left,26.02951949922463,43.14303178089706,1.3014759749612315,0.6776891584822858,Right,Incorrect,0.0,0.0,-45,45,1992,-1,-1
"{'cat': 'II', 'resp': 'button'}",55,96,Right,71.77615330900974,59.87372217517738,3.588807665450487,0.9404942286430678,Right,Correct,0.0,0.0,-45,45,621,-1,-1
"{'cat': 'II', 'resp': 'button'}",55,97,Left,43.45740723282064,60.226177472407464,2.172870361641032,0.9460305835055518,Left,Correct,0.0,0.0,-45,45,1696,-1,-1
"{'cat': 'II', 'resp': 'button'}",55,98,Right,40.44454013160305,15.68531975827975,2.0222270065801524,0.24638442660909246,Left,Incorrect,0.0,0.0,-45,45,2660,-1,-1
"{'cat': 'II', 'resp': 'button'}",55,99,Left,19.318844716530652,37.32257976110884,0.9659422358265326,0.5862617119525932,Left,Correct,0.0,0.0,-45,45,914,-1,-1
"{'cat': 'II', 'resp': 'button'}",55,100,Left,40.44539614150785,70.55811285108861,2.0222698070753924,1.1083242449206978,107,Incorrect,0.0,0.0,-45,45,851,-1,-1
"{'cat': 'II', 'resp': 'button'}",55,101,Left,50.417390246246775,73.20949212717684,2.520869512312339,1.1499720131988929,Right,Incorrect,0.0,0.0,-45,45,538,-1,-1
"{'cat': 'II', 'resp': 'button'}",55,102,Left,43.328023287669765,61.37415181902938,2.166401164383488,0.9640629223748367,Left,Correct,0.0,0.0,-45,45,783,-1,-1
"{'cat': 'II', 'resp': 'button'}",55,103,Right,48.89880139196454,36.78170078396323,2.4449400695982266,0.5777656048471842,Right,Correct,0.0,0.0,-45,45,1829,-1,-1
"{'cat': 'II', 'resp': 'button'}",55,104,Left,31.34488077570882,58.8823071744433,1.5672440387854412,0.9249211182282431,Left,Correct,0.0,0.0,-45,45,934,-1,-1
"{'cat': 'II', 'resp': 'button'}",55,105,Right,59.5127908160497,37.674312677443154,2.9756395408024847,0.5917867196825011,Right,Correct,0.0,0.0,-45,45,885,-1,-1
"{'cat': 'II', 'resp': 'button'}",55,106,Right,60.71432356799821,36.76117282977137,3.0357161783999107,0.5774431524967721,Right,Correct,0.0,0.0,-45,45,1176,-1,-1
"{'cat': 'II', 'resp': 'button'}",55,107,Left,54.241069819266755,66.0586190533671,2.7120534909633376,1.037646361621724,Left,Correct,0.0,0.0,-45,45,1980,-1,-1
"{'cat': 'II', 'resp': 'button'}",55,108,Right,52.262702659559594,30.69099572332398,2.6131351329779795,0.48209303347875193,Right,Correct,0.0,0.0,-45,45,1359,-1,-1
"{'cat': 'II', 'resp': 'button'}",55,109,Right,39.91055415811586,27.93325551928588,1.995527707905793,0.43877455165117535,Right,Correct,0.0,0.0,-45,45,950,-1,-1
"{'cat': 'II', 'resp': 'button'}",55,110,Left,23.124398962065165,34.610410955126426,1.1562199481032582,0.5436590639717445,Left,Correct,0.0,0.0,-45,45,2161,-1,-1
"{'cat': 'II', 'resp': 'button'}",55,111,Left,46.259453501806476,59.45219426826931,2.312972675090324,0.9338728837649403,Right,Incorrect,0.0,0.0,-45,45,2117,-1,-1
"{'cat': 'II', 'resp': 'button'}",55,112,Right,33.064327620668244,14.2226167003126,1.6532163810334124,0.22340834070262783,Left,Incorrect,0.0,0.0,-45,45,1256,-1,-1
"{'cat': 'II', 'resp': 'button'}",55,113,Right,84.73919108044775,65.17996879856585,4.236959554022388,1.023844555693932,Right,Correct,0.0,0.0,-45,45,628,-1,-1
"{'cat': 'II', 'resp': 'button'}",55,114,Left,34.971703097552194,45.71455095858216,1.7485851548776097,0.7180824872681896,Right,Incorrect,0.0,0.0,-45,45,1148,-1,-1
"{'cat': 'II', 'resp': 'button'}",55,115,Left,65.0024275111087,83.62007603091043,3.2501213755554352,1.3135010827566407,Right,Incorrect,0.0,0.0,-45,45,678,-1,-1
"{'cat': 'II', 'resp': 'button'}",55,116,Left,56.55802355076767,85.07925537518967,2.8279011775383833,1.3364218182979288,Left,Correct,0.0,0.0,-45,45,778,-1,-1
"{'cat': 'II', 'resp': 'button'}",55,117,Right,59.099174685823535,40.51858915209704,2.9549587342911767,0.6364645100702557,Left,Incorrect,0.0,0.0,-45,45,1278,-1,-1
"{'cat': 'II', 'resp': 'button'}",55,118,Left,47.619437507608964,65.15969541374398,2.380971875380448,1.023526102109833,Right,Incorrect,0.0,0.0,-45,45,1162,-1,-1
"{'cat': 'II', 'resp': 'button'}",55,119,Left,51.44328412036514,59.68638344950523,2.572164206018257,0.9375515188215453,Left,Correct,0.0,0.0,-45,45,668,-1,-1
"{'cat': 'II', 'resp': 'button'}",55,120,Left,28.210683007820737,53.7451298872729,1.410534150391037,0.8442265261004288,Left,Correct,0.0,0.0,-45,45,977,-1,-1
"{'cat': 'II', 'resp': 'button'}",55,121,Right,60.64159352663741,38.035391015215176,3.03207967633187,0.5974585249490761,Right,Correct,0.0,0.0,-45,45,703,-1,-1
"{'cat': 'II', 'resp': 'button'}",55,122,Left,37.811448278932914,45.33498654393746,1.8905724139466458,0.7121203033851303,Left,Correct,0.0,0.0,-45,45,1805,-1,-1
"{'cat': 'II', 'resp': 'button'}",55,123,Right,71.16938159964202,39.77384235782515,3.558469079982101,0.6247660547819102,Right,Correct,0.0,0.0,-45,45,903,-1,-1
"{'cat': 'II', 'resp': 'button'}",55,124,Right,87.11849068473362,66.6185471043973,4.355924534236681,1.0464416908800007,Right,Correct,0.0,0.0,-45,45,812,-1,-1
"{'cat': 'II', 'resp': 'button'}",55,125,Right,69.36820461119626,42.58709480590982,3.468410230559813,0.6689565208998917,Right,Correct,0.0,0.0,-45,45,1112,-1,-1
"{'cat': 'II', 'resp': 'button'}",55,126,Left,29.570078225836383,54.68568492378928,1.478503911291819,0.8590007300655125,Left,Correct,0.0,0.0,-45,45,902,-1,-1
"{'cat': 'II', 'resp': 'button'}",55,127,Left,48.85007719647402,67.12160813034123,2.442503859823701,1.0543437549970647,Left,Correct,0.0,0.0,-45,45,1287,-1,-1
"{'cat': 'II', 'resp': 'button'}",55,128,Left,35.002957286824845,65.57112501491561,1.7501478643412423,1.029988823172384,Left,Correct,0.0,0.0,-45,45,4496,-1,-1
"{'cat': 'II', 'resp': 'button'}",55,129,Left,39.56746799005692,56.17822032441485,1.9783733995028459,0.8824454213146525,Left,Correct,0.0,0.0,-45,45,1168,-1,-1
"{'cat': 'II', 'resp': 'button'}",55,130,Left,55.027943962859005,71.05357003816852,2.75139719814295,1.1161068682161903,Left,Correct,0.0,0.0,-45,45,5234,-1,-1
"{'cat': 'II', 'resp': 'button'}",55,131,Left,26.08205759561025,44.987807036114546,1.3041028797805125,0.7066668204288632,Left,Correct,0.0,0.0,-45,45,1203,-1,-1
"{'cat': 'II', 'resp': 'button'}",55,132,Right,79.85765631222608,66.98215903299459,3.992882815611304,1.052153293698195,Right,Correct,0.0,0.0,-45,45,989,-1,-1
"{'cat': 'II', 'resp': 'button'}",55,133,Left,39.09077081795199,69.20276881299296,1.9545385408975995,1.0870345505548575,Left,Correct,0.0,0.0,-45,45,1661,-1,-1
"{'cat': 'II', 'resp': 'button'}",55,134,Left,34.10492711716175,64.23096007696849,1.7052463558580877,1.0089375615541174,Left,Correct,0.0,0.0,-45,45,1465,-1,-1
"{'cat': 'II', 'resp': 'button'}",55,135,Left,47.017426178137015,78.44143613854774,2.350871308906851,1.2321551975494722,Left,Correct,0.0,0.0,-45,45,1067,-1,-1
"{'cat': 'II', 'resp': 'button'}",55,136,Right,71.91617634440156,58.95263769704056,3.595808817220078,0.9260258674938165,Right,Correct,0.0,0.0,-45,45,1152,-1,-1
"{'cat': 'II', 'resp': 'button'}",55,137,Right,66.54156187827684,56.05864783002058,3.3270780939138422,0.8805671809648503,Right,Correct,0.0,0.0,-45,45,3429,-1,-1
"{'cat': 'II', 'resp': 'button'}",55,138,Right,59.57697773434842,30.82957176005045,2.978848886717421,0.4842697807734692,Right,Correct,0.0,0.0,-45,45,7632,-1,-1
"{'cat': 'II', 'resp': 'button'}",55,139,Left,65.11472070113386,81.73134067649814,3.2557360350566933,1.283832897186656,Left,Correct,0.0,0.0,-45,45,1048,-1,-1
"{'cat': 'II', 'resp': 'button'}",55,140,Left,33.340165307804725,45.993015198934636,1.6670082653902363,0.7224565933270839,Left,Correct,0.0,0.0,-45,45,1089,-1,-1
"{'cat': 'II', 'resp': 'button'}",55,141,Left,51.337168952851556,70.08533896376132,2.566858447642578,1.1008979300645152,Left,Correct,0.0,0.0,-45,45,1072,-1,-1
"{'cat': 'II', 'resp': 'button'}",55,142,Right,48.0179150518465,37.30330073452449,2.400895752592325,0.5859588777111644,Right,Correct,0.0,0.0,-45,45,1626,-1,-1
"{'cat': 'II', 'resp': 'button'}",55,143,Right,86.71465798378016,69.20715652224544,4.335732899189008,1.0871034725306261,Left,Incorrect,0.0,0.0,-45,45,1736,-1,-1
"{'cat': 'II', 'resp': 'button'}",55,144,Right,67.10659070170622,35.297011898204424,3.3553295350853114,0.5544441663653527,Right,Correct,0.0,0.0,-45,45,786,-1,-1
"{'cat': 'II', 'resp': 'button'}",55,145,Left,15.61485054634981,43.723517698331364,0.7807425273174906,0.6868074099509056,Left,Correct,0.0,0.0,-45,45,705,-1,-1
"{'cat': 'II', 'resp': 'button'}",55,146,Left,39.2526145997051,57.88433223841616,1.962630729985255,0.9092449645907951,Right,Incorrect,0.0,0.0,-45,45,866,-1,-1
"{'cat': 'II', 'resp': 'button'}",55,147,Left,15.614812539017105,38.632585765091235,0.7807406269508553,0.6068392381439411,Left,Correct,0.0,0.0,-45,45,1421,-1,-1
"{'cat': 'II', 'resp': 'button'}",55,148,Right,46.187651198514565,30.007882036212322,2.3093825599257283,0.47136270877376873,Right,Correct,0.0,0.0,-45,45,845,-1,-1
"{'cat': 'II', 'resp': 'button'}",55,149,Left,39.95028506153351,58.79466552896909,1.9975142530766758,0.9235444464803916,Right,Incorrect,0.0,0.0,-45,45,5838,-1,-1
"{'cat': 'II', 'resp': 'button'}",55,150,Right,46.504019722327556,20.972711143953823,2.3252009861163776,0.32943857627853057,Left,Incorrect,0.0,0.0,-45,45,1599,-1,-1
"{'cat': 'II', 'resp': 'button'}",55,151,Right,45.6216960166082,37.72947848375622,2.28108480083041,0.5926532621417135,Right,Correct,0.0,0.0,-45,45,1854,-1,-1
"{'cat': 'II', 'resp': 'button'}",55,152,Right,47.81555230119567,25.834383910897795,2.390777615059784,0.40580555352247427,Left,Incorrect,0.0,0.0,-45,45,4741,-1,-1
"{'cat': 'II', 'resp': 'button'}",55,153,Left,61.95515432755345,71.33566684831936,3.097757716377673,1.1205380345480453,107,Incorrect,0.0,0.0,-45,45,3314,-1,-1
"{'cat': 'II', 'resp': 'button'}",55,154,Right,78.50371082141857,64.80928080594961,3.9251855410709284,1.0180218023220464,Right,Correct,0.0,0.0,-45,45,1347,-1,-1
"{'cat': 'II', 'resp': 'button'}",55,155,Right,76.90289973385924,65.31368902944067,3.8451449866929623,1.0259450281686955,Right,Correct,0.0,0.0,-45,45,707,-1,-1
"{'cat': 'II', 'resp': 'button'}",55,156,Left,34.665437542325975,53.56374419082914,1.7332718771162987,0.8413773262433589,Left,Correct,0.0,0.0,-45,45,723,-1,-1
"{'cat': 'II', 'resp': 'button'}",55,157,Left,44.52688544578289,76.282741247695,2.226344272289144,1.1982464974972484,Left,Correct,0.0,0.0,-45,45,4405,-1,-1
"{'cat': 'II', 'resp': 'button'}",55,158,Right,68.84548901995798,43.443599670548295,3.4422744509978993,0.6824104678524524,Right,Correct,0.0,0.0,-45,45,845,-1,-1
"{'cat': 'II', 'resp': 'button'}",55,159,Right,67.22788288889312,52.55397774863728,3.361394144444656,0.8255159520602017,Right,Correct,0.0,0.0,-45,45,833,-1,-1
"{'cat': 'II', 'resp': 'button'}",55,160,Right,83.37871151555431,67.09435433423339,4.168935575777716,1.0539156533688905,Right,Correct,0.0,0.0,-45,45,800,-1,-1
"{'cat': 'II', 'resp': 'button'}",55,161,Right,73.93553737651438,57.59368712719039,3.6967768688257188,0.904679521859652,Right,Correct,0.0,0.0,-45,45,705,-1,-1
"{'cat': 'II', 'resp': 'button'}",55,162,Right,57.503407289484834,31.199973353374865,2.8751703644742417,0.49008803539579887,Right,Correct,0.0,0.0,-45,45,679,-1,-1
"{'cat': 'II', 'resp': 'button'}",55,163,Right,76.79619585126406,62.20764541449934,3.8398097925632033,0.9771554091565494,Right,Correct,0.0,0.0,-45,45,1096,-1,-1
"{'cat': 'II', 'resp': 'button'}",55,164,Right,41.438688871972325,30.294057835950305,2.0719344435986162,0.4758579477242289,Right,Correct,0.0,0.0,-45,45,1859,-1,-1
"{'cat': 'II', 'resp': 'button'}",55,165,Left,40.85001426779636,64.59995415554629,2.042500713389818,1.014733706986508,Right,Incorrect,0.0,0.0,-45,45,619,-1,-1
"{'cat': 'II', 'resp': 'button'}",55,166,Right,84.67862990225461,55.531155494260894,4.2339314951127305,0.8722813507306123,Right,Correct,0.0,0.0,-45,45,704,-1,-1
"{'cat': 'II', 'resp': 'button'}",55,167,Right,59.71021052647761,52.63086737878512,2.9855105263238806,0.82672373154625,Right,Correct,0.0,0.0,-45,45,883,-1,-1
"{'cat': 'II', 'resp': 'button'}",55,168,Left,53.874392878869294,65.94450228147653,2.693719643943465,1.0358538195606102,Right,Incorrect,0.0,0.0,-45,45,971,-1,-1
"{'cat': 'II', 'resp': 'button'}",55,169,Right,44.30167467247021,25.939035347621974,2.2150837336235103,0.4074494144464758,Right,Correct,0.0,0.0,-45,45,1213,-1,-1
"{'cat': 'II', 'resp': 'button'}",55,170,Left,24.313767785845656,50.24311536874141,1.2156883892922827,0.789217010679512,Left,Correct,0.0,0.0,-45,45,570,-1,-1
"{'cat': 'II', 'resp': 'button'}",55,171,Right,78.82308265191159,66.66898834954509,3.9411541325955795,1.0472340201059718,Right,Correct,0.0,0.0,-45,45,704,-1,-1
"{'cat': 'II', 'resp': 'button'}",55,172,Right,45.8170902705367,18.538529672715,2.2908545135268352,0.2912025431407892,Left,Incorrect,0.0,0.0,-45,45,606,-1,-1
"{'cat': 'II', 'resp': 'button'}",55,173,Left,34.79715520860708,48.677907629901924,1.739857760430354,0.764630785011112,Left,Correct,0.0,0.0,-45,45,567,-1,-1
"{'cat': 'II', 'resp': 'button'}",55,174,Right,44.213048075440845,32.4981168596926,2.210652403772042,0.5104792259095644,Right,Correct,0.0,0.0,-45,45,1584,-1,-1
"{'cat': 'II', 'resp': 'button'}",55,175,Right,73.23131568775693,61.79376852143835,3.6615657843878466,0.9706542461228947,Right,Correct,0.0,0.0,-45,45,4117,-1,-1
"{'cat': 'II', 'resp': 'button'}",55,176,Left,30.56449608885812,44.54181570343409,1.5282248044429059,0.6996612049572951,Left,Correct,0.0,0.0,-45,45,638,-1,-1
"{'cat': 'II', 'resp': 'button'}",55,177,Right,53.68751901528124,36.328204028383254,2.684375950764062,0.5706420944683998,Right,Correct,0.0,0.0,-45,45,1478,-1,-1
"{'cat': 'II', 'resp': 'button'}",55,178,Left,47.485699116615116,61.396164205501094,2.3742849558307557,0.9644086921329742,Left,Correct,0.0,0.0,-45,45,678,-1,-1
"{'cat': 'II', 'resp': 'button'}",55,179,Right,72.22327091289637,42.73374622892725,3.6111635456448186,0.6712601160658419,Right,Correct,0.0,0.0,-45,45,588,-1,-1
"{'cat': 'II', 'resp': 'button'}",55,180,Left,53.92991279430712,84.06653432915849,2.696495639715356,1.3205140333061922,Left,Correct,0.0,0.0,-45,45,784,-1,-1
"{'cat': 'II', 'resp': 'button'}",55,181,Right,72.04927078555373,48.980376108042016,3.6024635392776867,0.7693819487554491,Right,Correct,0.0,0.0,-45,45,538,-1,-1
"{'cat': 'II', 'resp': 'button'}",55,182,Left,26.529321877444453,45.809135251722296,1.3264660938722228,0.7195682138705599,Left,Correct,0.0,0.0,-45,45,699,-1,-1
"{'cat': 'II', 'resp': 'button'}",55,183,Left,40.405213043288065,72.21229196862238,2.0202606521644033,1.1343080297375265,Left,Correct,0.0,0.0,-45,45,1374,-1,-1
"{'cat': 'II', 'resp': 'button'}",55,184,Right,45.96301679380855,31.507378106170517,2.2981508396904275,0.49491673796110597,Left,Incorrect,0.0,0.0,-45,45,656,-1,-1
"{'cat': 'II', 'resp': 'button'}",55,185,Right,79.19970277332351,50.83936096976666,3.9599851386661755,0.7985828146790929,Right,Correct,0.0,0.0,-45,45,729,-1,-1
"{'cat': 'II', 'resp': 'button'}",55,186,Left,32.9723751295414,50.13430582186856,1.64861875647707,0.7875078343140314,Left,Correct,0.0,0.0,-45,45,851,-1,-1
"{'cat': 'II', 'resp': 'button'}",55,187,Right,50.141001638613886,30.659771550335137,2.5070500819306942,0.4816025653163711,Right,Correct,0.0,0.0,-45,45,1031,-1,-1
"{'cat': 'II', 'resp': 'button'}",55,188,Left,64.68605898400348,76.79190183370667,3.234302949200174,1.2062443732798074,Right,Incorrect,0.0,0.0,-45,45,1033,-1,-1
"{'cat': 'II', 'resp': 'button'}",55,189,Left,17.249369523116172,34.834183659521,0.8624684761558086,0.5471740773927439,Left,Correct,0.0,0.0,-45,45,992,-1,-1
"{'cat': 'II', 'resp': 'button'}",55,190,Left,56.36657474241747,74.71743063135797,2.8183287371208734,1.173658655832896,Right,Incorrect,0.0,0.0,-45,45,2098,-1,-1
"{'cat': 'II', 'resp': 'button'}",55,191,Left,33.56775721289064,58.41398471531347,1.678387860644532,0.9175647262426763,Left,Correct,0.0,0.0,-45,45,1051,-1,-1
"{'cat': 'II', 'resp': 'button'}",55,192,Left,31.91289921862868,62.27040447688321,1.5956449609314343,0.9781412262032063,Right,Incorrect,0.0,0.0,-45,45,866,-1,-1
"{'cat': 'II', 'resp': 'button'}",55,193,Left,19.518575950684923,48.00282734086786,0.9759287975342461,0.7540266486280487,Left,Correct,0.0,0.0,-45,45,736,-1,-1
"{'cat': 'II', 'resp': 'button'}",55,194,Right,51.738759021833864,43.39378184326809,2.586937951091693,0.6816279312514458,Right,Correct,0.0,0.0,-45,45,2122,-1,-1
"{'cat': 'II', 'resp': 'button'}",55,195,Right,60.44320048537179,52.789494404592425,3.0221600242685893,0.8292154390409351,Right,Correct,0.0,0.0,-45,45,1304,-1,-1
"{'cat': 'II', 'resp': 'button'}",55,196,Right,58.72391303084183,35.25379559522733,2.936195651542091,0.553765326265612,Right,Correct,0.0,0.0,-45,45,1090,-1,-1
"{'cat': 'II', 'resp': 'button'}",55,197,Right,40.98459988773059,20.58818992132565,2.0492299943865295,0.3233985310377404,Left,Incorrect,0.0,0.0,-45,45,1514,-1,-1
"{'cat': 'II', 'resp': 'button'}",55,198,Left,26.83894228477989,45.570757919048944,1.3419471142389943,0.7158237914850152,Left,Correct,0.0,0.0,-45,45,603,-1,-1
"{'cat': 'II', 'resp': 'button'}",55,199,Left,19.298137126960242,41.18165230803255,0.9649068563480121,0.6468798817680209,Left,Correct,0.0,0.0,-45,45,1593,-1,-1
"{'cat': 'II', 'resp': 'button'}",55,200,Left,39.02328697885183,47.01517221525496,1.9511643489425916,0.7385125981935196,Left,Correct,0.0,0.0,-45,45,2391,-1,-1
"{'cat': 'II', 'resp': 'button'}",55,201,Right,72.00756088055581,45.22152652068068,3.600378044027791,0.7103380775074323,Right,Correct,0.0,0.0,-45,45,1103,-1,-1
"{'cat': 'II', 'resp': 'button'}",55,202,Left,38.67894427754943,64.70637467809385,1.9339472138774711,1.0164053566456415,Left,Correct,0.0,0.0,-45,45,1399,-1,-1
"{'cat': 'II', 'resp': 'button'}",55,203,Right,51.95189409168249,42.98997731892164,2.597594704584125,0.6752849846155803,Right,Correct,0.0,0.0,-45,45,658,-1,-1
"{'cat': 'II', 'resp': 'button'}",55,204,Right,55.06734241750079,46.90835864271824,2.753367120875039,0.7368347745195944,Right,Correct,0.0,0.0,-45,45,898,-1,-1
"{'cat': 'II', 'resp': 'button'}",55,205,Right,86.87355916120075,58.55582436421996,4.343677958060038,0.9197927382376382,Right,Correct,0.0,0.0,-45,45,1472,-1,-1
"{'cat': 'II', 'resp': 'button'}",55,206,Right,43.97403456114771,35.61689977492958,2.1987017280573853,0.5594689533828135,Right,Correct,0.0,0.0,-45,45,2085,-1,-1
"{'cat': 'II', 'resp': 'button'}",55,207,Right,77.86392682675107,61.3228537304865,3.8931963413375534,0.9632571338842892,Right,Correct,0.0,0.0,-45,45,815,-1,-1
"{'cat': 'II', 'resp': 'button'}",55,208,Right,75.57669069993487,59.72418676812316,3.7788345349967436,0.9381453319618023,Left,Incorrect,0.0,0.0,-45,45,739,-1,-1
"{'cat': 'II', 'resp': 'button'}",55,209,Left,36.95107174149841,68.7513289222321,1.8475535870749207,1.0799433493330992,Left,Correct,0.0,0.0,-45,45,956,-1,-1
"{'cat': 'II', 'resp': 'button'}",55,210,Left,67.11654335926676,80.93746829221408,3.355827167963338,1.271362778934883,Right,Incorrect,0.0,0.0,-45,45,766,-1,-1
"{'cat': 'II', 'resp': 'button'}",55,211,Left,49.6506635728129,76.21701173346834,2.482533178640645,1.197214020702156,Left,Correct,0.0,0.0,-45,45,1103,-1,-1
"{'cat': 'II', 'resp': 'button'}",55,212,Left,58.80928633249354,70.20772392722819,2.9404643166246776,1.1028203485752022,Right,Incorrect,0.0,0.0,-45,45,813,-1,-1
"{'cat': 'II', 'resp': 'button'}",55,213,Left,37.59571523220335,61.58367884723349,1.8797857616101674,0.9673541652375094,Left,Correct,0.0,0.0,-45,45,786,-1,-1
"{'cat': 'II', 'resp': 'button'}",55,214,Right,81.63789240224452,60.380449594554165,4.081894620112226,0.9484538843335008,Right,Correct,0.0,0.0,-45,45,612,-1,-1
"{'cat': 'II', 'resp': 'button'}",55,215,Right,75.56288104963288,51.26498900273265,3.778144052481644,0.805268564186732,Right,Correct,0.0,0.0,-45,45,588,-1,-1
"{'cat': 'II', 'resp': 'button'}",55,216,Left,47.699825130867744,71.90059376290607,2.3849912565433873,1.129411885771449,Left,Correct,0.0,0.0,-45,45,3934,-1,-1
"{'cat': 'II', 'resp': 'button'}",55,217,Right,64.34345768858034,44.04610419453182,3.217172884429017,0.6918745867839586,Right,Correct,0.0,0.0,-45,45,778,-1,-1
"{'cat': 'II', 'resp': 'button'}",55,218,Right,48.307267514028204,19.563575153377514,2.41536337570141,0.30730391989901307,Right,Correct,0.0,0.0,-45,45,992,-1,-1
"{'cat': 'II', 'resp': 'button'}",55,219,Right,66.03078783097996,47.979048569582055,3.301539391548998,0.7536531325621343,Left,Incorrect,0.0,0.0,-45,45,2037,-1,-1
"{'cat': 'II', 'resp': 'button'}",55,220,Right,60.012044914849035,35.5882717163729,3.000602245742452,0.5590192648905726,Right,Correct,0.0,0.0,-45,45,540,-1,-1
"{'cat': 'II', 'resp': 'button'}",55,221,Left,65.19427229096453,77.32995967199366,3.2597136145482266,1.2146961660396511,Left,Correct,0.0,0.0,-45,45,2502,-1,-1
"{'cat': 'II', 'resp': 'button'}",55,222,Left,59.57863949278686,73.05290511983067,2.9789319746393432,1.1475123502392608,Left,Correct,0.0,0.0,-45,45,626,-1,-1
"{'cat': 'II', 'resp': 'button'}",55,223,Left,65.9687487696224,81.8479472279173,3.2984374384811197,1.2856645486131504,Left,Correct,0.0,0.0,-45,45,628,-1,-1
"{'cat': 'II', 'resp': 'button'}",55,224,Right,61.37358686040737,33.65532863286548,3.068679343020369,0.5286566659358022,Right,Correct,0.0,0.0,-45,45,2375,-1,-1
"{'cat': 'II', 'resp': 'button'}",55,225,Left,45.335101253826366,73.35215929390382,2.266755062691318,1.1522130238133828,Left,Correct,0.0,0.0,-45,45,980,-1,-1
"{'cat': 'II', 'resp': 'button'}",55,226,Right,40.927135812283595,14.461054977045446,2.0463567906141797,0.22715372039522042,Right,Correct,0.0,0.0,-45,45,734,-1,-1
"{'cat': 'II', 'resp': 'button'}",55,227,Left,58.75987112137909,82.2400014818696,2.9379935560689545,1.291822922433276,Left,Correct,0.0,0.0,-45,45,824,-1,-1
"{'cat': 'II', 'resp': 'button'}",55,228,Right,45.98798442307145,28.316697321007098,2.2993992211535725,0.44479764138800837,Right,Correct,0.0,0.0,-45,45,1641,-1,-1
"{'cat': 'II', 'resp': 'button'}",55,229,Left,39.06852980819428,67.64358891553698,1.953426490409714,1.0625430099974946,Left,Correct,0.0,0.0,-45,45,1473,-1,-1
"{'cat': 'II', 'resp': 'button'}",55,230,Left,39.29659156575328,66.7162587367681,1.9648295782876641,1.0479765416121325,Left,Correct,0.0,0.0,-45,45,660,-1,-1
"{'cat': 'II', 'resp': 'button'}",55,231,Right,78.44077597565757,49.8616660379032,3.9220387987828786,0.7832252186021219,Right,Correct,0.0,0.0,-45,45,2098,-1,-1
"{'cat': 'II', 'resp': 'button'}",55,232,Right,47.575874850207676,19.91752284646706,2.378793742510384,0.3128637172608389,Right,Correct,0.0,0.0,-45,45,1609,-1,-1
"{'cat': 'II', 'resp': 'button'}",55,233,Right,50.79531458417371,28.751367195526818,2.5397657292086855,0.45162541981064813,Right,Correct,0.0,0.0,-45,45,955,-1,-1
"{'cat': 'II', 'resp': 'button'}",55,234,Right,78.25591852113482,62.090088646041565,3.912795926056741,0.975308831755716,Right,Correct,0.0,0.0,-45,45,1958,-1,-1
"{'cat': 'II', 'resp': 'button'}",55,235,Right,50.12756469936845,31.609203273608834,2.5063782349684227,0.4965162039509798,Right,Correct,0.0,0.0,-45,45,4522,-1,-1
"{'cat': 'II', 'resp': 'button'}",55,236,Right,49.63388401996195,32.319110396504904,2.4816942009980973,0.5076673989610865,Right,Correct,0.0,0.0,-45,45,1028,-1,-1
"{'cat': 'II', 'resp': 'button'}",55,237,Right,48.62230840629586,23.373801180733963,2.431115420314793,0.36715481037931125,Right,Correct,0.0,0.0,-45,45,1076,-1,-1
"{'cat': 'II', 'resp': 'button'}",55,238,Right,70.64234154040062,41.883184828022266,3.5321170770200307,0.6578995288232912,Right,Correct,0.0,0.0,-45,45,855,-1,-1
"{'cat': 'II', 'resp': 'button'}",55,239,Right,34.69124485496151,17.27531943722253,1.7345622427480754,0.2713600831619763,Right,Correct,0.0,0.0,-45,45,1128,-1,-1
"{'cat': 'II', 'resp': 'button'}",55,240,Left,15.92433763131509,34.06043351012846,0.7962168815657545,0.5350200384675159,107,Incorrect,0.0,0.0,-45,45,2566,-1,-1
"{'cat': 'II', 'resp': 'button'}",55,241,Left,28.434819962012007,37.70958743405346,1.4217409981006002,0.5923408142636216,Right,Incorrect,0.0,0.0,-45,45,1610,-1,-1
"{'cat': 'II', 'resp': 'button'}",55,242,Right,51.71998438737549,37.59196775367239,2.5859992193687744,0.5904932486446078,Right,Correct,0.0,0.0,-45,45,727,-1,-1
"{'cat': 'II', 'resp': 'button'}",55,243,Right,86.07548149747741,68.02810213747091,4.30377407487387,1.0685829295636735,Right,Correct,0.0,0.0,-45,45,858,-1,-1
"{'cat': 'II', 'resp': 'button'}",55,244,Left,66.83980645238388,84.78422241419734,3.341990322619194,1.3317874513838273,Left,Correct,0.0,0.0,-45,45,1162,-1,-1
"{'cat': 'II', 'resp': 'button'}",55,245,Left,53.22228538075717,64.11178922427875,2.6611142690378586,1.0070656301774568,Right,Incorrect,0.0,0.0,-45,45,1105,-1,-1
"{'cat': 'II', 'resp': 'button'}",55,246,Left,55.511172181504136,81.97428856337585,2.775558609075207,1.287649113669757,Left,Correct,0.0,0.0,-45,45,1137,-1,-1
"{'cat': 'II', 'resp': 'button'}",55,247,Left,65.35041550334726,85.4992120847841,3.2675207751673634,1.343018482866367,Left,Correct,0.0,0.0,-45,45,4282,-1,-1
"{'cat': 'II', 'resp': 'button'}",55,248,Left,29.691623976812885,56.75178365772847,1.484581198840644,0.8914549330861852,Right,Incorrect,0.0,0.0,-45,45,4156,-1,-1
"{'cat': 'II', 'resp': 'button'}",55,249,Right,76.4876921003185,46.819358289323546,3.8243846050159247,0.7354367602376362,Right,Correct,0.0,0.0,-45,45,707,-1,-1
"{'cat': 'II', 'resp': 'button'}",55,250,Left,49.79394845262247,66.37597313058157,2.489697422631124,1.0426313478095428,Right,Incorrect,0.0,0.0,-45,45,573,-1,-1
"{'cat': 'II', 'resp': 'button'}",55,251,Right,48.04641948684023,29.305839746510514,2.4023209743420115,0.46033505427458604,Right,Correct,0.0,0.0,-45,45,765,-1,-1
"{'cat': 'II', 'resp': 'button'}",55,252,Left,62.99529556375018,76.35302507992473,3.1497647781875093,1.1993505133522437,Left,Correct,0.0,0.0,-45,45,693,-1,-1
"{'cat': 'II', 'resp': 'button'}",55,253,Left,61.510431538724504,83.21212677559765,3.075521576936225,1.3070930308390003,Left,Correct,0.0,0.0,-45,45,619,-1,-1
"{'cat': 'II', 'resp': 'button'}",55,254,Right,65.29719396115225,33.766335925987164,3.264859698057612,0.5304003644186319,107,Correct,0.0,0.0,-45,45,1257,-1,-1
"{'cat': 'II', 'resp': 'button'}",55,255,Right,44.693674046094344,18.71244508992665,2.234683702304717,0.2939344001260798,Right,Correct,0.0,0.0,-45,45,815,-1,-1
"{'cat': 'II', 'resp': 'button'}",55,256,Right,34.12618340937334,12.121139618116974,1.706309170468667,0.1903984158870624,Right,Correct,0.0,0.0,-45,45,769,-1,-1
"{'cat': 'II', 'resp': 'button'}",55,257,Left,50.787078188564166,80.3028396376674,2.5393539094282085,1.2613940553404757,Left,Correct,0.0,0.0,-45,45,665,-1,-1
"{'cat': 'II', 'resp': 'button'}",55,258,Left,66.33810561872843,87.30006231243004,3.316905280936422,1.3713061720933069,Right,Incorrect,0.0,0.0,-45,45,625,-1,-1
"{'cat': 'II', 'resp': 'button'}",55,259,Right,86.89137910123344,62.25865227984072,4.344568955061672,0.9779566231237452,Left,Incorrect,0.0,0.0,-45,45,768,-1,-1
"{'cat': 'II', 'resp': 'button'}",55,260,Left,22.70129105983139,39.84504585704963,1.1350645529915695,0.6258845167322776,Right,Incorrect,0.0,0.0,-45,45,996,-1,-1
"{'cat': 'II', 'resp': 'button'}",55,261,Right,66.82207484980405,56.62636150254521,3.3411037424902026,0.8894848064795795,Left,Incorrect,0.0,0.0,-45,45,6399,-1,-1
"{'cat': 'II', 'resp': 'button'}",55,262,Left,55.03127171565355,63.22255369807185,2.751563585782678,0.9930975511952437,Right,Incorrect,0.0,0.0,-45,45,1442,-1,-1
"{'cat': 'II', 'resp': 'button'}",55,263,Right,41.835810383566326,18.445202179341095,2.0917905191783164,0.2897365583029821,Right,Correct,0.0,0.0,-45,45,3854,-1,-1
"{'cat': 'II', 'resp': 'button'}",55,264,Right,72.12709129549123,55.09843668090507,3.6063545647745614,0.8654842195050687,Right,Correct,0.0,0.0,-45,45,1146,-1,-1
"{'cat': 'II', 'resp': 'button'}",55,265,Left,23.05898261029868,34.62558208593586,1.1529491305149342,0.5438973715372323,Right,Incorrect,0.0,0.0,-45,45,1334,-1,-1
"{'cat': 'II', 'resp': 'button'}",55,266,Right,66.81624796605136,55.18812612011722,3.3408123983025684,0.8668930579217361,Right,Correct,0.0,0.0,-45,45,892,-1,-1
"{'cat': 'II', 'resp': 'button'}",55,267,Right,64.7044271029039,56.87709474938965,3.235221355145195,0.8934233151110657,Right,Correct,0.0,0.0,-45,45,753,-1,-1
"{'cat': 'II', 'resp': 'button'}",55,268,Right,66.40804629989404,42.68077159369258,3.3204023149947024,0.6704279924414428,Right,Correct,0.0,0.0,-45,45,1102,-1,-1
"{'cat': 'II', 'resp': 'button'}",55,269,Left,37.73415092307456,47.533259110463376,1.886707546153728,0.7466506881130592,Right,Incorrect,0.0,0.0,-45,45,1612,-1,-1
"{'cat': 'II', 'resp': 'button'}",55,270,Left,48.45064290752497,60.76134901229882,2.4225321453762487,0.9544370383962172,Right,Incorrect,0.0,0.0,-45,45,6128,-1,-1
"{'cat': 'II', 'resp': 'button'}",55,271,Left,15.553701546506613,34.340768082383676,0.7776850773253307,0.539423523631237,Left,Correct,0.0,0.0,-45,45,915,-1,-1
"{'cat': 'II', 'resp': 'button'}",55,272,Right,40.087112318394034,28.260553818998197,2.0043556159197013,0.44391574132071854,Right,Correct,0.0,0.0,-45,45,1126,-1,-1
"{'cat': 'II', 'resp': 'button'}",55,273,Right,64.86637759033803,34.54626998300444,3.243318879516902,0.5426515399376817,Left,Incorrect,0.0,0.0,-45,45,1366,-1,-1
"{'cat': 'II', 'resp': 'button'}",55,274,Right,69.52574729100186,38.147754983869994,3.476287364550093,0.599223534041347,Right,Correct,0.0,0.0,-45,45,610,-1,-1
"{'cat': 'II', 'resp': 'button'}",55,275,Left,58.67793652175626,67.38491129554514,2.933896826087813,1.0584797114444224,Left,Correct,0.0,0.0,-45,45,1043,-1,-1
"{'cat': 'II', 'resp': 'button'}",55,276,Left,53.48991514541097,81.78460810886804,2.6744957572705483,1.2846696200577004,Left,Correct,0.0,0.0,-45,45,1920,-1,-1
"{'cat': 'II', 'resp': 'button'}",55,277,Left,29.392826791592288,56.502534318144185,1.4696413395796144,0.8875397336154347,Right,Incorrect,0.0,0.0,-45,45,1978,-1,-1
"{'cat': 'II', 'resp': 'button'}",55,278,Right,39.76024330403595,28.01465813194506,1.9880121652017977,0.4400532209007408,Right,Correct,0.0,0.0,-45,45,4281,-1,-1
"{'cat': 'II', 'resp': 'button'}",55,279,Right,62.97531262718193,33.18150668278251,3.148765631359096,0.5212138881483508,Right,Correct,0.0,0.0,-45,45,1192,-1,-1
"{'cat': 'II', 'resp': 'button'}",55,280,Right,40.936469018653526,18.637950812824595,2.0468234509326764,0.2927642467576883,Left,Incorrect,0.0,0.0,-45,45,4185,-1,-1
"{'cat': 'II', 'resp': 'button'}",55,281,Right,79.48755719826875,57.48299443585469,3.9743778599134374,0.9029407651301203,Right,Correct,0.0,0.0,-45,45,678,-1,-1
"{'cat': 'II', 'resp': 'button'}",55,282,Left,31.13285117666237,43.60488871497163,1.5566425588331185,0.6849439902377767,Left,Correct,0.0,0.0,-45,45,4131,-1,-1
"{'cat': 'II', 'resp': 'button'}",55,283,Left,32.857549936193045,51.74040245119182,1.6428774968096522,0.8127363411722176,Left,Correct,0.0,0.0,-45,45,537,-1,-1
"{'cat': 'II', 'resp': 'button'}",55,284,Left,27.679465788328717,53.99229249617281,1.3839732894164358,0.8481089472822392,Left,Correct,0.0,0.0,-45,45,530,-1,-1
"{'cat': 'II', 'resp': 'button'}",55,285,Right,71.68488524272426,49.04774901594144,3.584244262136213,0.7704402399179883,Right,Correct,0.0,0.0,-45,45,971,-1,-1
"{'cat': 'II', 'resp': 'button'}",55,286,Left,31.219977620923757,40.02929501385759,1.560998881046188,0.6287786957195678,Left,Correct,0.0,0.0,-45,45,2190,-1,-1
"{'cat': 'II', 'resp': 'button'}",55,287,Right,76.09826772590425,50.20465607206602,3.8049133862952123,0.7886128934600242,Right,Correct,0.0,0.0,-45,45,902,-1,-1
"{'cat': 'II', 'resp': 'button'}",55,288,Right,89.05199539957624,66.34624210292758,4.4525997699788125,1.0421643339192355,Right,Correct,0.0,0.0,-45,45,791,-1,-1
"{'cat': 'II', 'resp': 'button'}",55,289,Left,32.04189495595784,48.77261296524434,1.602094747797892,0.7661184129399495,Left,Correct,0.0,0.0,-45,45,1253,-1,-1
"{'cat': 'II', 'resp': 'button'}",55,290,Left,16.74770888286826,45.14490394888975,0.8373854441434131,0.7091344929642444,Left,Correct,0.0,0.0,-45,45,3250,-1,-1
"{'cat': 'II', 'resp': 'button'}",55,291,Right,62.27565971842762,49.09379367389417,3.113782985921381,0.7711635077137948,Right,Correct,0.0,0.0,-45,45,1181,-1,-1
"{'cat': 'II', 'resp': 'button'}",55,292,Left,47.42387510091273,56.82466137953915,2.3711937550456366,0.892599693663439,Right,Incorrect,0.0,0.0,-45,45,1990,-1,-1
"{'cat': 'II', 'resp': 'button'}",55,293,Right,56.92518124907936,34.73126567903759,2.8462590624539676,0.5455574455356991,Right,Correct,0.0,0.0,-45,45,1506,-1,-1
"{'cat': 'II', 'resp': 'button'}",55,294,Right,53.97491381975496,32.33487455535693,2.698745690987748,0.5079150217892844,Right,Correct,0.0,0.0,-45,45,796,-1,-1
"{'cat': 'II', 'resp': 'button'}",55,295,Left,44.56310290598757,61.98105746292992,2.2281551452993784,0.9735961739363372,Left,Correct,0.0,0.0,-45,45,6365,-1,-1
"{'cat': 'II', 'resp': 'button'}",55,296,Left,43.197353835608034,54.025085233825365,2.1598676917804016,0.848624054400741,Right,Incorrect,0.0,0.0,-45,45,1939,-1,-1
"{'cat': 'II', 'resp': 'button'}",55,297,Right,66.85994564079269,50.6251844576432,3.3429972820396348,0.7952185378938003,Right,Correct,0.0,0.0,-45,45,904,-1,-1
"{'cat': 'II', 'resp': 'button'}",55,298,Right,86.00284030890197,68.71971011801841,4.300142015445099,1.079446682317934,Right,Correct,0.0,0.0,-45,45,771,-1,-1
"{'cat': 'II', 'resp': 'button'}",55,299,Left,42.387580578507624,66.83195274331598,2.119379028925381,1.0497938588173086,Left,Correct,0.0,0.0,-45,45,1664,-1,-1
"{'cat': 'II', 'resp': 'button'}",55,300,Left,58.02963352344012,72.08526150345313,2.901481676172006,1.1323126398567374,Right,Incorrect,0.0,0.0,-45,45,1393,-1,-1
"{'cat': 'II', 'resp': 'button'}",55,301,Left,46.68683882331166,60.78760106371639,2.334341941165583,0.9548494046555924,Left,Correct,0.0,0.0,-45,45,1103,-1,-1
"{'cat': 'II', 'resp': 'button'}",55,302,Left,48.12916825915495,55.732657014218205,2.4064584129577473,0.8754465292045378,Left,Correct,0.0,0.0,-45,45,765,-1,-1
"{'cat': 'II', 'resp': 'button'}",55,303,Left,27.588575827659714,37.75217489799688,1.3794287913829857,0.59300977658292,Left,Correct,0.0,0.0,-45,45,839,-1,-1
"{'cat': 'II', 'resp': 'button'}",55,304,Right,63.44737798996237,46.33161196055821,3.1723688994981183,0.7277752588213134,Right,Correct,0.0,0.0,-45,45,916,-1,-1
"{'cat': 'II', 'resp': 'button'}",55,305,Left,61.728994465341344,77.06914265689112,3.086449723267067,1.2105992619467645,Left,Correct,0.0,0.0,-45,45,3859,-1,-1
"{'cat': 'II', 'resp': 'button'}",55,306,Right,75.2926136717156,58.97275517823302,3.76463068358578,0.9263418721494315,Left,Incorrect,0.0,0.0,-45,45,2326,-1,-1
"{'cat': 'II', 'resp': 'button'}",55,307,Left,34.31218262992722,65.8930621146261,1.7156091314963613,1.0350457993092266,Left,Correct,0.0,0.0,-45,45,681,-1,-1
"{'cat': 'II', 'resp': 'button'}",55,308,Right,75.97213096251215,62.792614444213726,3.7986065481256075,0.986344081188191,Right,Correct,0.0,0.0,-45,45,906,-1,-1
"{'cat': 'II', 'resp': 'button'}",55,309,Right,50.08170068070401,25.36225261699007,2.5040850340352008,0.39838933250012254,Right,Correct,0.0,0.0,-45,45,4862,-1,-1
"{'cat': 'II', 'resp': 'button'}",55,310,Left,51.72414654300683,79.91929828866594,2.5862073271503414,1.2553694019186212,Left,Correct,0.0,0.0,-45,45,1301,-1,-1
"{'cat': 'II', 'resp': 'button'}",55,311,Left,63.87245116370269,80.43135878467982,3.1936225581851345,1.263412829380975,100,Incorrect,0.0,0.0,-45,45,1116,-1,-1
"{'cat': 'II', 'resp': 'button'}",55,312,Left,63.410755671538794,87.5213667323493,3.17053778357694,1.3747824137924336,Right,Incorrect,0.0,0.0,-45,45,726,-1,-1
"{'cat': 'II', 'resp': 'button'}",55,313,Right,85.60430805699943,59.42621871351328,4.280215402849972,0.933464860704968,Right,Correct,0.0,0.0,-45,45,2386,-1,-1
"{'cat': 'II', 'resp': 'button'}",55,314,Left,65.14146920735723,80.26433367773483,3.2570734603678613,1.260789205136258,Left,Correct,0.0,0.0,-45,45,1110,-1,-1
"{'cat': 'II', 'resp': 'button'}",55,315,Right,38.41996082002794,22.20457012334578,1.920998041001397,0.3487885718781125,Left,Incorrect,0.0,0.0,-45,45,701,-1,-1
"{'cat': 'II', 'resp': 'button'}",55,316,Right,52.91632561685445,41.459032625376985,2.645816280842723,0.6512369616041194,Right,Correct,0.0,0.0,-45,45,1757,-1,-1
"{'cat': 'II', 'resp': 'button'}",55,317,Right,36.5987975528632,18.999492541374504,1.8299398776431601,0.2984433309495811,Right,Correct,0.0,0.0,-45,45,1637,-1,-1
"{'cat': 'II', 'resp': 'button'}",55,318,Right,65.04409519819185,43.26714801425337,3.2522047599095925,0.679638771716803,Right,Correct,0.0,0.0,-45,45,1029,-1,-1
"{'cat': 'II', 'resp': 'button'}",55,319,Left,42.52705310924996,65.82650898779364,2.126352655462498,1.034000385237575,Left,Correct,0.0,0.0,-45,45,2225,-1,-1
"{'cat': 'II', 'resp': 'button'}",55,320,Left,17.611928246607654,31.908522539935852,0.8805964123303827,0.5012178999918341,Left,Correct,0.0,0.0,-45,45,13743,-1,-1
"{'cat': 'II', 'resp': 'button'}",55,321,Left,54.84088977829717,67.37442411655422,2.7420444889148587,1.0583149792220488,Right,Incorrect,0.0,0.0,-45,45,675,-1,-1
"{'cat': 'II', 'resp': 'button'}",55,322,Left,42.31361740584801,57.61411895749604,2.1156808702924,0.9050004642995898,Left,Correct,0.0,0.0,-45,45,795,-1,-1
"{'cat': 'II', 'resp': 'button'}",55,323,Right,76.86264086446894,64.6987117781191,3.8431320432234473,1.016284988094312,Right,Correct,0.0,0.0,-45,45,824,-1,-1
"{'cat': 'II', 'resp': 'button'}",55,324,Right,61.634661874560024,42.206201346572065,3.081733093728001,0.6629734604316122,Right,Correct,0.0,0.0,-45,45,2151,-1,-1
"{'cat': 'II', 'resp': 'button'}",55,325,Left,49.806615177393475,59.15854429875083,2.4903307588696735,0.9292602408301097,Left,Correct,0.0,0.0,-45,45,2867,-1,-1
"{'cat': 'II', 'resp': 'button'}",55,326,Left,46.768487737817544,60.901299129688084,2.338424386890877,0.9566353696995127,Left,Correct,0.0,0.0,-45,45,1060,-1,-1
"{'cat': 'II', 'resp': 'button'}",55,327,Right,58.27183607385924,41.9517270376935,2.9135918036929622,0.658976187335111,Right,Correct,0.0,0.0,-45,45,2015,-1,-1
"{'cat': 'II', 'resp': 'button'}",55,328,Right,81.91334612836518,68.30985543019236,4.0956673064182585,1.0730086999363657,Right,Correct,0.0,0.0,-45,45,2688,-1,-1
"{'cat': 'II', 'resp': 'button'}",55,329,Left,54.40701283965126,76.0889655440232,2.720350641982563,1.1952026758617509,Right,Incorrect,0.0,0.0,-45,45,2202,-1,-1
"{'cat': 'II', 'resp': 'button'}",55,330,Right,75.74763749096283,45.37260445766187,3.7873818745481413,0.7127112041921302,Right,Correct,0.0,0.0,-45,45,689,-1,-1
"{'cat': 'II', 'resp': 'button'}",55,331,Left,66.45752333322697,89.40234434193438,3.3228761666613487,1.40432874099163,Left,Correct,0.0,0.0,-45,45,1066,-1,-1
"{'cat': 'II', 'resp': 'button'}",55,332,Left,14.783655945950851,33.17226642515999,0.7391827972975427,0.5210687425210297,Left,Correct,0.0,0.0,-45,45,661,-1,-1
"{'cat': 'II', 'resp': 'button'}",55,333,Left,24.97167325263981,37.85512919077156,1.2485836626319906,0.5946269788321022,Left,Correct,0.0,0.0,-45,45,782,-1,-1
"{'cat': 'II', 'resp': 'button'}",55,334,Right,86.81113024129303,59.101103679360236,4.340556512064651,0.928357965690634,Right,Correct,0.0,0.0,-45,45,1030,-1,-1
"{'cat': 'II', 'resp': 'button'}",55,335,Right,37.49340739876962,21.361805641444672,1.874670369938481,0.3355504583528779,Left,Incorrect,0.0,0.0,-45,45,774,-1,-1
"{'cat': 'II', 'resp': 'button'}",55,336,Left,62.86197225899785,80.78880027001105,3.143098612949893,1.269027507102999,Right,Incorrect,0.0,0.0,-45,45,790,-1,-1
"{'cat': 'II', 'resp': 'button'}",55,337,Left,36.98730364387056,69.25258323573256,1.8493651821935282,1.0878170336774653,Left,Correct,0.0,0.0,-45,45,1785,-1,-1
"{'cat': 'II', 'resp': 'button'}",55,338,Left,20.139254517012393,33.36533425425263,1.0069627258506195,0.5241014448886396,Left,Correct,0.0,0.0,-45,45,599,-1,-1
"{'cat': 'II', 'resp': 'button'}",55,339,Left,14.584854719996617,40.79803086565744,0.7292427359998308,0.6408539702423951,Left,Correct,0.0,0.0,-45,45,465,-1,-1
"{'cat': 'II', 'resp': 'button'}",55,340,Left,29.31839401770022,38.65873447563628,1.4659197008850111,0.607249981128687,Left,Correct,0.0,0.0,-45,45,1200,-1,-1
"{'cat': 'II', 'resp': 'button'}",55,341,Left,35.97789073912515,62.83192129844641,1.7988945369562575,0.9869615118106564,Right,Incorrect,0.0,0.0,-45,45,1822,-1,-1
"{'cat': 'II', 'resp': 'button'}",55,342,Left,27.65985246591892,40.45514291301751,1.382992623295946,0.635467898877305,Left,Correct,0.0,0.0,-45,45,521,-1,-1
"{'cat': 'II', 'resp': 'button'}",55,343,Right,58.674146838262374,41.90969294813718,2.9337073419131183,0.6583159174003586,Right,Correct,0.0,0.0,-45,45,920,-1,-1
"{'cat': 'II', 'resp': 'button'}",55,344,Right,50.91567600217278,26.091682697066123,2.545783800108639,0.40984719340449427,Right,Correct,0.0,0.0,-45,45,691,-1,-1
"{'cat': 'II', 'resp': 'button'}",55,345,Left,60.17303462670561,73.98962396335085,3.0086517313352807,1.162226295425672,Right,Incorrect,0.0,0.0,-45,45,975,-1,-1
"{'cat': 'II', 'resp': 'button'}",55,346,Right,66.80107796746385,36.64772398329808,3.340053898373193,0.5756611021835786,Right,Correct,0.0,0.0,-45,45,714,-1,-1
"{'cat': 'II', 'resp': 'button'}",55,347,Left,61.788408988589985,82.51183002243545,3.089420449429499,1.2960927951636645,Left,Correct,0.0,0.0,-45,45,791,-1,-1
"{'cat': 'II', 'resp': 'button'}",55,348,Left,28.122156305585214,58.57014909442059,1.4061078152792605,0.9200177505734531,Right,Incorrect,0.0,0.0,-45,45,2512,-1,-1
"{'cat': 'II', 'resp': 'button'}",55,349,Right,73.31187884079924,60.33159362767155,3.665593942039962,0.9476864566002886,Right,Correct,0.0,0.0,-45,45,537,-1,-1
"{'cat': 'II', 'resp': 'button'}",55,350,Right,88.31453342079902,67.25730731195239,4.415726671039951,1.0564753127573034,Right,Correct,0.0,0.0,-45,45,717,-1,-1
"{'cat': 'II', 'resp': 'button'}",55,351,Right,39.88667734542906,26.12333881523631,1.994333867271453,0.41034444654591745,Right,Correct,0.0,0.0,-45,45,876,-1,-1
"{'cat': 'II', 'resp': 'button'}",55,352,Right,74.1838064175252,63.39491981839134,3.70919032087626,0.9958050718818608,Right,Correct,0.0,0.0,-45,45,1168,-1,-1
"{'cat': 'II', 'resp': 'button'}",55,353,Right,39.99491330425775,24.405971466574517,1.9997456652128875,0.38336810331556304,Right,Correct,0.0,0.0,-45,45,740,-1,-1
"{'cat': 'II', 'resp': 'button'}",55,354,Left,62.55981508479045,84.00351888174208,3.127990754239523,1.319524188972862,Left,Correct,0.0,0.0,-45,45,728,-1,-1
"{'cat': 'II', 'resp': 'button'}",55,355,Left,33.83141279799134,42.309960959337246,1.691570639899567,0.6646033126176242,Right,Incorrect,0.0,0.0,-45,45,760,-1,-1
"{'cat': 'II', 'resp': 'button'}",55,356,Right,88.54489979638406,62.63052136063115,4.4272449898192034,0.9837979289852871,Right,Correct,0.0,0.0,-45,45,703,-1,-1
"{'cat': 'II', 'resp': 'button'}",55,357,Right,42.802718228806015,34.616022483308555,2.140135911440301,0.5437472096503064,Right,Correct,0.0,0.0,-45,45,859,-1,-1
"{'cat': 'II', 'resp': 'button'}",55,358,Left,34.59417203619817,49.016980628457745,1.7297086018099082,0.7699569312175802,Right,Incorrect,0.0,0.0,-45,45,743,-1,-1
"{'cat': 'II', 'resp': 'button'}",55,359,Right,66.4143378143459,46.684658936479096,3.320716890717295,0.7333209077509389,Right,Correct,0.0,0.0,-45,45,514,-1,-1
"{'cat': 'II', 'resp': 'button'}",55,360,Right,78.41855992893646,50.06122689997113,3.920927996446823,0.7863599132932052,Right,Correct,0.0,0.0,-45,45,716,-1,-1
"{'cat': 'II', 'resp': 'button'}",55,361,Right,63.88049767175827,35.32937887796619,3.1940248835879133,0.554952585694545,Right,Correct,0.0,0.0,-45,45,1018,-1,-1
"{'cat': 'II', 'resp': 'button'}",55,362,Right,83.84024899109761,56.700436615535025,4.1920124495548805,0.8906483756334928,Right,Correct,0.0,0.0,-45,45,585,-1,-1
"{'cat': 'II', 'resp': 'button'}",55,363,Left,22.285110800502004,38.27885875232091,1.1142555400251002,0.6012829072204635,Left,Correct,0.0,0.0,-45,45,834,-1,-1
"{'cat': 'II', 'resp': 'button'}",55,364,Right,88.72888379432813,64.49095794359837,4.436444189716406,1.0130215984928848,Right,Correct,0.0,0.0,-45,45,588,-1,-1
"{'cat': 'II', 'resp': 'button'}",55,365,Left,30.446934742863327,56.87102096924529,1.5223467371431665,0.8933279083956605,Right,Incorrect,0.0,0.0,-45,45,895,-1,-1
"{'cat': 'II', 'resp': 'button'}",55,366,Right,86.81724945252559,66.76505445972487,4.340862472626279,1.0487430230359707,Right,Correct,0.0,0.0,-45,45,617,-1,-1
"{'cat': 'II', 'resp': 'button'}",55,367,Left,55.333385280823556,82.55795202660369,2.7666692640411776,1.2968172779109837,Right,Incorrect,0.0,0.0,-45,45,904,-1,-1
"{'cat': 'II', 'resp': 'button'}",55,368,Left,37.8710041917782,61.7622391577343,1.8935502095889098,0.9701589840359696,Right,Incorrect,0.0,0.0,-45,45,520,-1,-1
"{'cat': 'II', 'resp': 'button'}",55,369,Right,61.04143365404998,44.1418290154979,3.0520716827024987,0.6933782287555249,Right,Correct,0.0,0.0,-45,45,569,-1,-1
"{'cat': 'II', 'resp': 'button'}",55,370,Right,74.64157077275809,63.83487895143223,3.7320785386379045,1.002715933783066,Right,Correct,0.0,0.0,-45,45,908,-1,-1
"{'cat': 'II', 'resp': 'button'}",55,371,Right,82.47199915855319,54.835863806258274,4.123599957927659,0.8613597344349572,Right,Correct,0.0,0.0,-45,45,800,-1,-1
"{'cat': 'II', 'resp': 'button'}",55,372,Left,33.52584416201013,66.12120113443612,1.6762922081005065,1.0386293986523882,Right,Incorrect,0.0,0.0,-45,45,2396,-1,-1
"{'cat': 'II', 'resp': 'button'}",55,373,Left,43.6709267441333,55.86612838955326,2.1835463372066646,0.8775430926656236,Right,Incorrect,0.0,0.0,-45,45,535,-1,-1
"{'cat': 'II', 'resp': 'button'}",55,374,Right,63.55048311247427,48.89810639851579,3.177524155623713,0.7680896591801465,Right,Correct,0.0,0.0,-45,45,533,-1,-1
"{'cat': 'II', 'resp': 'button'}",55,375,Right,52.097973492269105,35.31116607407431,2.6048986746134553,0.5546664996400049,Right,Correct,0.0,0.0,-45,45,831,-1,-1
"{'cat': 'II', 'resp': 'button'}",55,376,Left,15.599912172719534,43.41904473032465,0.7799956086359768,0.6820247597533727,Left,Correct,0.0,0.0,-45,45,787,-1,-1
"{'cat': 'II', 'resp': 'button'}",55,377,Left,30.310527082964235,61.997398123363546,1.5155263541482116,0.9738528524302028,Left,Correct,0.0,0.0,-45,45,1422,-1,-1
"{'cat': 'II', 'resp': 'button'}",55,378,Left,25.574852977010668,37.99243990613952,1.2787426488505333,0.5967838505053981,Left,Correct,0.0,0.0,-45,45,574,-1,-1
"{'cat': 'II', 'resp': 'button'}",55,379,Left,22.480468600684855,36.219235584974015,1.1240234300342429,0.5689304221619619,Left,Correct,0.0,0.0,-45,45,646,-1,-1
"{'cat': 'II', 'resp': 'button'}",55,380,Right,76.97658491908767,52.47018317924585,3.8488292459543834,0.8241997100421474,Right,Correct,0.0,0.0,-45,45,567,-1,-1
"{'cat': 'II', 'resp': 'button'}",55,381,Left,28.414642415750173,61.442772316117065,1.4207321207875085,0.9651408106225184,Left,Correct,0.0,0.0,-45,45,1029,-1,-1
"{'cat': 'II', 'resp': 'button'}",55,382,Left,20.815642909381538,47.26266969993355,1.0407821454690769,0.7424002795917607,Left,Correct,0.0,0.0,-45,45,946,-1,-1
"{'cat': 'II', 'resp': 'button'}",55,383,Left,46.10006796648293,69.7589808667168,2.3050033983241467,1.095771509063942,Right,Incorrect,0.0,0.0,-45,45,631,-1,-1
"{'cat': 'II', 'resp': 'button'}",55,384,Left,47.97445411169087,74.75210625236033,2.3987227055845435,1.1742033392138944,Left,Correct,0.0,0.0,-45,45,1436,-1,-1
"{'cat': 'II', 'resp': 'button'}",55,385,Left,17.505299724519986,31.691423570159422,0.8752649862259994,0.49780771734907625,Left,Correct,0.0,0.0,-45,45,609,-1,-1
"{'cat': 'II', 'resp': 'button'}",55,386,Right,67.28565816533909,47.3694610688567,3.3642829082669543,0.7440777544921395,Right,Correct,0.0,0.0,-45,45,637,-1,-1
"{'cat': 'II', 'resp': 'button'}",55,387,Right,53.25566327196074,28.106877002533068,2.6627831635980375,0.44150179153254904,Right,Correct,0.0,0.0,-45,45,805,-1,-1
"{'cat': 'II', 'resp': 'button'}",55,388,Right,75.83248841129586,48.72240635592111,3.791624420564793,0.7653297693648918,Right,Correct,0.0,0.0,-45,45,710,-1,-1
"{'cat': 'II', 'resp': 'button'}",55,389,Right,75.11899194735162,56.94127385285311,3.755949597367581,0.8944314381108396,Right,Correct,0.0,0.0,-45,45,623,-1,-1
"{'cat': 'II', 'resp': 'button'}",55,390,Right,42.20650080301208,26.66660231890771,2.110325040150604,0.418878009706405,Right,Correct,0.0,0.0,-45,45,505,-1,-1
"{'cat': 'II', 'resp': 'button'}",55,391,Left,69.93064916301574,87.73517828542421,3.4965324581507873,1.378140957814397,Left,Correct,0.0,0.0,-45,45,986,-1,-1
"{'cat': 'II', 'resp': 'button'}",55,392,Left,17.179441660476424,37.35210781094645,0.8589720830238212,0.5867255374748165,Left,Correct,0.0,0.0,-45,45,696,-1,-1
"{'cat': 'II', 'resp': 'button'}",55,393,Left,40.06047232048834,54.86820890696034,2.003023616024417,0.8618678100886833,Left,Correct,0.0,0.0,-45,45,853,-1,-1
"{'cat': 'II', 'resp': 'button'}",55,394,Left,37.118041968006295,47.79394877134073,1.855902098400315,0.7507455917304549,Right,Incorrect,0.0,0.0,-45,45,2527,-1,-1
"{'cat': 'II', 'resp': 'button'}",55,395,Right,36.75841021875623,25.166823993216454,1.8379205109378116,0.39531954685638077,Left,Incorrect,0.0,0.0,-45,45,562,-1,-1
"{'cat': 'II', 'resp': 'button'}",55,396,Left,33.33054491784202,53.550924189303366,1.666527245892101,0.841175950130297,Left,Correct,0.0,0.0,-45,45,595,-1,-1
"{'cat': 'II', 'resp': 'button'}",55,397,Right,38.263120701246876,26.526326938883372,1.9131560350623438,0.4166745691895852,Right,Correct,0.0,0.0,-45,45,997,-1,-1
"{'cat': 'II', 'resp': 'button'}",55,398,Right,83.93336257929343,68.0989052782654,4.196668128964672,1.0696951026985289,Right,Correct,0.0,0.0,-45,45,681,-1,-1
"{'cat': 'II', 'resp': 'button'}",55,399,Right,74.33223163841257,59.87068761435356,3.7166115819206285,0.9404465618731126,Right,Correct,0.0,0.0,-45,45,557,-1,-1
