condition,subject,trial,cat,x,y,xt,yt,resp,fb,rotation,su,target_angle_left,target_angle_right,rt,mt,ep
"{'cat': 'II', 'resp': 'button'}",63,0,Left,54.18422805125046,81.3196751224748,2.7092114025625227,1.2773664697853775,Right,Incorrect,0.0,0.0,-45,45,15220,-1,-1
"{'cat': 'II', 'resp': 'button'}",63,1,Right,48.99205167798749,37.142174096105165,2.4496025838993747,0.5834279063933855,Right,Correct,0.0,0.0,-45,45,2741,-1,-1
"{'cat': 'II', 'resp': 'button'}",63,2,Left,41.660267012413954,49.16692823367252,2.0830133506206976,0.7723123026924108,Right,Incorrect,0.0,0.0,-45,45,1494,-1,-1
"{'cat': 'II', 'resp': 'button'}",63,3,Left,61.769500590941504,71.01614411034362,3.0884750295470753,1.1155189831166479,Left,Correct,0.0,0.0,-45,45,2539,-1,-1
"{'cat': 'II', 'resp': 'button'}",63,4,Right,59.785383188920356,48.48217172704457,2.989269159446018,0.76155617263881,Left,Incorrect,0.0,0.0,-45,45,1276,-1,-1
"{'cat': 'II', 'resp': 'button'}",63,5,Right,50.088770041820894,25.16271732791825,2.5044385020910447,0.39525503950872276,Right,Correct,0.0,0.0,-45,45,1949,-1,-1
"{'cat': 'II', 'resp': 'button'}",63,6,Right,51.202447393109786,38.037391767404884,2.5601223696554896,0.5974899526909804,Right,Correct,0.0,0.0,-45,45,1627,-1,-1
"{'cat': 'II', 'resp': 'button'}",63,7,Left,40.984074134303086,51.81880195073055,2.0492037067151543,0.8139678376311977,Left,Correct,0.0,0.0,-45,45,1797,-1,-1
"{'cat': 'II', 'resp': 'button'}",63,8,Right,61.091932464294246,48.0119216718379,3.0545966232147124,0.7541695020448727,Right,Correct,0.0,0.0,-45,45,1896,-1,-1
"{'cat': 'II', 'resp': 'button'}",63,9,Left,52.97632326304972,77.33271256250974,2.6488161631524862,1.2147394083427585,Right,Incorrect,0.0,0.0,-45,45,1751,-1,-1
"{'cat': 'II', 'resp': 'button'}",63,10,Left,57.34247487799124,86.18806233445477,2.8671237438995623,1.3538389172853114,Left,Correct,0.0,0.0,-45,45,903,-1,-1
"{'cat': 'II', 'resp': 'button'}",63,11,Right,31.857123284248686,13.813468415001154,1.5928561642124344,0.21698145446581132,Right,Correct,0.0,0.0,-45,45,1051,-1,-1
"{'cat': 'II', 'resp': 'button'}",63,12,Right,64.3246402135531,45.544045215360796,3.216232010677655,0.7154041893166941,Right,Correct,0.0,0.0,-45,45,1282,-1,-1
"{'cat': 'II', 'resp': 'button'}",63,13,Left,28.274336669205063,50.920735819622735,1.4137168334602532,0.7998610478315672,Right,Incorrect,0.0,0.0,-45,45,1221,-1,-1
"{'cat': 'II', 'resp': 'button'}",63,14,Right,55.525882908189296,36.691359210954715,2.7762941454094645,0.5763465227367975,Right,Correct,0.0,0.0,-45,45,1047,-1,-1
"{'cat': 'II', 'resp': 'button'}",63,15,Left,20.86312017722983,50.12638849903562,1.0431560088614915,0.787383469297791,Left,Correct,0.0,0.0,-45,45,768,-1,-1
"{'cat': 'II', 'resp': 'button'}",63,16,Right,35.881157780140185,17.178848028064788,1.7940578890070094,0.26984471381051917,Right,Correct,0.0,0.0,-45,45,2520,-1,-1
"{'cat': 'II', 'resp': 'button'}",63,17,Left,15.480363478926357,30.596877705214794,0.7740181739463179,0.4806146311074406,Left,Correct,0.0,0.0,-45,45,715,-1,-1
"{'cat': 'II', 'resp': 'button'}",63,18,Right,55.01801015873876,23.745195840793038,2.7509005079369384,0.3729886640574316,Right,Correct,0.0,0.0,-45,45,641,-1,-1
"{'cat': 'II', 'resp': 'button'}",63,19,Left,66.58382256642025,79.26231100719212,3.3291911283210127,1.245049469833721,Right,Incorrect,0.0,0.0,-45,45,1355,-1,-1
"{'cat': 'II', 'resp': 'button'}",63,20,Right,42.00927706162852,24.13008872201692,2.100463853081426,0.37903454729779135,Left,Incorrect,0.0,0.0,-45,45,913,-1,-1
"{'cat': 'II', 'resp': 'button'}",63,21,Right,70.47067230935473,40.55919559110429,3.523533615467736,0.6371023545226239,Right,Correct,0.0,0.0,-45,45,1067,-1,-1
"{'cat': 'II', 'resp': 'button'}",63,22,Left,31.234132954563435,55.810968624679745,1.5617066477281718,0.8766766451051216,Left,Correct,0.0,0.0,-45,45,1256,-1,-1
"{'cat': 'II', 'resp': 'button'}",63,23,Right,73.48176321244375,59.050997843001404,3.674088160622188,0.9275709050535997,Right,Correct,0.0,0.0,-45,45,1039,-1,-1
"{'cat': 'II', 'resp': 'button'}",63,24,Left,23.07414146594174,47.304030629240884,1.1537070732970869,0.7430499755500487,Left,Correct,0.0,0.0,-45,45,1483,-1,-1
"{'cat': 'II', 'resp': 'button'}",63,25,Left,41.227540512870455,67.0938751765702,2.0613770256435227,1.0539081267779176,Right,Incorrect,0.0,0.0,-45,45,1355,-1,-1
"{'cat': 'II', 'resp': 'button'}",63,26,Left,51.24963411025539,71.96830554556325,2.56248170551277,1.1304754999662354,Right,Incorrect,0.0,0.0,-45,45,2695,-1,-1
"{'cat': 'II', 'resp': 'button'}",63,27,Right,35.19234616097421,20.90405158174283,1.7596173080487105,0.3283600743973269,Right,Correct,0.0,0.0,-45,45,1130,-1,-1
"{'cat': 'II', 'resp': 'button'}",63,28,Right,65.38860070494559,44.62076503954716,3.2694300352472796,0.700901338228988,Left,Incorrect,0.0,0.0,-45,45,845,-1,-1
"{'cat': 'II', 'resp': 'button'}",63,29,Left,56.24456994364235,64.23916022432658,2.812228497182117,1.00906636916761,Right,Incorrect,0.0,0.0,-45,45,2594,-1,-1
"{'cat': 'II', 'resp': 'button'}",63,30,Right,66.92053898053912,45.52851895042662,3.346026949026956,0.7151603033174199,Right,Correct,0.0,0.0,-45,45,1556,-1,-1
"{'cat': 'II', 'resp': 'button'}",63,31,Left,37.036808000691366,63.21672360767361,1.8518404000345683,0.9930059723494193,Left,Correct,0.0,0.0,-45,45,1363,-1,-1
"{'cat': 'II', 'resp': 'button'}",63,32,Left,59.853580616531616,76.31161401578164,2.992679030826581,1.1987000298777974,Right,Incorrect,0.0,0.0,-45,45,1182,-1,-1
"{'cat': 'II', 'resp': 'button'}",63,33,Left,48.796999329478,71.24296404977004,2.4398499664739,1.1190818623935965,Left,Correct,0.0,0.0,-45,45,2327,-1,-1
"{'cat': 'II', 'resp': 'button'}",63,34,Right,87.24371943873601,69.38404727673833,4.3621859719368,1.0898820660046402,Right,Correct,0.0,0.0,-45,45,1832,-1,-1
"{'cat': 'II', 'resp': 'button'}",63,35,Right,54.008706645463015,30.496151692966322,2.700435332273151,0.4790324306069146,Left,Incorrect,0.0,0.0,-45,45,4421,-1,-1
"{'cat': 'II', 'resp': 'button'}",63,36,Right,77.55775181441356,47.4401814593278,3.877887590720678,0.7451886277879548,Right,Correct,0.0,0.0,-45,45,583,-1,-1
"{'cat': 'II', 'resp': 'button'}",63,37,Right,44.23004762620219,35.7679150710569,2.2115023813101096,0.56184109610728,Right,Correct,0.0,0.0,-45,45,1179,-1,-1
"{'cat': 'II', 'resp': 'button'}",63,38,Left,40.616805697193946,55.62453178534968,2.030840284859697,0.8737481020811324,Right,Incorrect,0.0,0.0,-45,45,1882,-1,-1
"{'cat': 'II', 'resp': 'button'}",63,39,Left,11.96858121966335,39.33177777451341,0.5984290609831675,0.6178221205451883,Left,Correct,0.0,0.0,-45,45,1000,-1,-1
"{'cat': 'II', 'resp': 'button'}",63,40,Left,42.20901184824501,56.31727263685002,2.1104505924122505,0.8846296499307076,Left,Correct,0.0,0.0,-45,45,1479,-1,-1
"{'cat': 'II', 'resp': 'button'}",63,41,Right,33.312412914244696,21.512138108236257,1.665620645712235,0.33791187521922034,Right,Correct,0.0,0.0,-45,45,1891,-1,-1
"{'cat': 'II', 'resp': 'button'}",63,42,Left,37.098487739993146,67.77406711929814,1.8549243869996572,1.0645925568294428,Left,Correct,0.0,0.0,-45,45,866,-1,-1
"{'cat': 'II', 'resp': 'button'}",63,43,Right,45.36900982479422,30.03949392360922,2.2684504912397108,0.4718592671398298,Right,Correct,0.0,0.0,-45,45,1182,-1,-1
"{'cat': 'II', 'resp': 'button'}",63,44,Right,75.2369980886648,62.66831371052031,3.76184990443324,0.9843915698291555,Left,Incorrect,0.0,0.0,-45,45,959,-1,-1
"{'cat': 'II', 'resp': 'button'}",63,45,Right,72.42816388039886,59.78933801087824,3.621408194019943,0.9391687252898602,Right,Correct,0.0,0.0,-45,45,917,-1,-1
"{'cat': 'II', 'resp': 'button'}",63,46,Right,67.86628557210243,52.50690330866459,3.3933142786051214,0.8247765084862514,Right,Correct,0.0,0.0,-45,45,990,-1,-1
"{'cat': 'II', 'resp': 'button'}",63,47,Left,31.960617224664354,44.2456517446511,1.5980308612332177,0.6950090723714415,Left,Correct,0.0,0.0,-45,45,551,-1,-1
"{'cat': 'II', 'resp': 'button'}",63,48,Right,50.51465137116854,36.58212746503969,2.525732568558427,0.5746307144842705,Right,Correct,0.0,0.0,-45,45,693,-1,-1
"{'cat': 'II', 'resp': 'button'}",63,49,Left,32.860291267959276,47.75233380453388,1.6430145633979638,0.7500919053604559,Left,Correct,0.0,0.0,-45,45,692,-1,-1
"{'cat': 'II', 'resp': 'button'}",63,50,Left,63.45950241331295,73.5533856390059,3.172975120665648,1.1553738798507895,Right,Incorrect,0.0,0.0,-45,45,704,-1,-1
"{'cat': 'II', 'resp': 'button'}",63,51,Right,77.41142254186161,47.59492904242289,3.8705711270930805,0.7476193971390163,Right,Correct,0.0,0.0,-45,45,926,-1,-1
"{'cat': 'II', 'resp': 'button'}",63,52,Right,30.231252997888088,14.322198059705375,1.5115626498944044,0.22497256103814195,Left,Incorrect,0.0,0.0,-45,45,719,-1,-1
"{'cat': 'II', 'resp': 'button'}",63,53,Left,43.98758782477695,72.14941562172038,2.1993793912388475,1.1333203703899668,Right,Incorrect,0.0,0.0,-45,45,1262,-1,-1
"{'cat': 'II', 'resp': 'button'}",63,54,Left,64.56722419168105,87.03396977097727,3.2283612095840524,1.3671264002262915,Left,Correct,0.0,0.0,-45,45,2019,-1,-1
"{'cat': 'II', 'resp': 'button'}",63,55,Right,76.99400898978075,54.74280976715099,3.8497004494890374,0.8598980450067256,Left,Incorrect,0.0,0.0,-45,45,1316,-1,-1
"{'cat': 'II', 'resp': 'button'}",63,56,Left,37.24600698385543,59.935100829913495,1.8623003491927717,0.9414583622970988,Right,Incorrect,0.0,0.0,-45,45,735,-1,-1
"{'cat': 'II', 'resp': 'button'}",63,57,Left,19.430217627857576,32.222656893427825,0.9715108813928788,0.5061523108776869,Left,Correct,0.0,0.0,-45,45,887,-1,-1
"{'cat': 'II', 'resp': 'button'}",63,58,Right,81.62680581658155,63.71753066544305,4.081340290829078,1.0008726312171914,Right,Correct,0.0,0.0,-45,45,1970,-1,-1
"{'cat': 'II', 'resp': 'button'}",63,59,Left,38.856141629285815,67.13987037301662,1.9428070814642908,1.0546306176342002,Right,Incorrect,0.0,0.0,-45,45,1426,-1,-1
"{'cat': 'II', 'resp': 'button'}",63,60,Left,53.36357482645222,79.48693250594073,2.6681787413226115,1.2485778160852554,Left,Correct,0.0,0.0,-45,45,579,-1,-1
"{'cat': 'II', 'resp': 'button'}",63,61,Right,78.13558399202887,64.05092433879128,3.906779199601443,1.0061095667919118,Left,Incorrect,0.0,0.0,-45,45,885,-1,-1
"{'cat': 'II', 'resp': 'button'}",63,62,Left,49.69727372305387,77.85306320796568,2.484863686152693,1.2229130571680338,Right,Incorrect,0.0,0.0,-45,45,808,-1,-1
"{'cat': 'II', 'resp': 'button'}",63,63,Left,30.11473450085385,39.36481969275871,1.5057367250426923,0.6183411417832878,Left,Correct,0.0,0.0,-45,45,1626,-1,-1
"{'cat': 'II', 'resp': 'button'}",63,64,Right,47.39232391692902,35.7350295525228,2.3696161958464512,0.561324531590099,Right,Correct,0.0,0.0,-45,45,1078,-1,-1
"{'cat': 'II', 'resp': 'button'}",63,65,Right,43.839032270739295,28.94735172942933,2.1919516135369648,0.4547039376702749,Left,Incorrect,0.0,0.0,-45,45,1971,-1,-1
"{'cat': 'II', 'resp': 'button'}",63,66,Left,55.89744159071319,82.21415777418362,2.7948720795356596,1.291416970422237,Right,Incorrect,0.0,0.0,-45,45,508,-1,-1
"{'cat': 'II', 'resp': 'button'}",63,67,Left,50.301622442342776,65.25446973124139,2.5150811221171385,1.0250148136078272,Right,Incorrect,0.0,0.0,-45,45,1617,-1,-1
"{'cat': 'II', 'resp': 'button'}",63,68,Right,51.996466343575996,36.08754578896224,2.5998233171787994,0.5668618436834453,Right,Correct,0.0,0.0,-45,45,653,-1,-1
"{'cat': 'II', 'resp': 'button'}",63,69,Left,27.76883761174205,37.26378544822297,1.3884418805871024,0.5853381730454176,Left,Correct,0.0,0.0,-45,45,719,-1,-1
"{'cat': 'II', 'resp': 'button'}",63,70,Right,68.1207042758158,39.503656303523876,3.4060352137907897,0.6205219821654336,Right,Correct,0.0,0.0,-45,45,2993,-1,-1
"{'cat': 'II', 'resp': 'button'}",63,71,Left,13.691459644666068,41.4373812218906,0.6845729822333034,0.6508968621534557,Left,Correct,0.0,0.0,-45,45,2172,-1,-1
"{'cat': 'II', 'resp': 'button'}",63,72,Left,12.734172000896894,32.94625151949903,0.6367086000448446,0.5175185086848985,Left,Correct,0.0,0.0,-45,45,874,-1,-1
"{'cat': 'II', 'resp': 'button'}",63,73,Left,43.192685198181685,55.49980474920643,2.1596342599090845,0.8717888943788743,Left,Correct,0.0,0.0,-45,45,2207,-1,-1
"{'cat': 'II', 'resp': 'button'}",63,74,Left,39.08870332786916,51.49591000917696,1.954435166393458,0.808895862873757,Left,Correct,0.0,0.0,-45,45,1271,-1,-1
"{'cat': 'II', 'resp': 'button'}",63,75,Left,20.00046604566215,47.97774290104702,1.0000233022831075,0.753632623168746,Left,Correct,0.0,0.0,-45,45,695,-1,-1
"{'cat': 'II', 'resp': 'button'}",63,76,Left,62.52574021002385,81.51697174054564,3.1262870105011924,1.2804655978149249,Left,Correct,0.0,0.0,-45,45,1864,-1,-1
"{'cat': 'II', 'resp': 'button'}",63,77,Right,49.9551761862468,37.9845580970577,2.49775880931234,0.5966600433378558,Left,Incorrect,0.0,0.0,-45,45,1754,-1,-1
"{'cat': 'II', 'resp': 'button'}",63,78,Right,75.0436480057338,47.53711723927871,3.7521824002866904,0.7467112914587735,Right,Correct,0.0,0.0,-45,45,1071,-1,-1
"{'cat': 'II', 'resp': 'button'}",63,79,Left,44.14634159404986,74.23218458700035,2.207317079702493,1.1660364287922087,Left,Correct,0.0,0.0,-45,45,1921,-1,-1
"{'cat': 'II', 'resp': 'button'}",63,80,Right,55.96134107936184,36.354454997569135,2.798067053968092,0.5710544437281198,Right,Correct,0.0,0.0,-45,45,617,-1,-1
"{'cat': 'II', 'resp': 'button'}",63,81,Right,49.973806144345744,27.215048476910727,2.4986903072172875,0.4274929818107641,Right,Correct,0.0,0.0,-45,45,1711,-1,-1
"{'cat': 'II', 'resp': 'button'}",63,82,Left,63.48892160554512,74.60242072143338,3.174446080277256,1.1718520843923501,Right,Incorrect,0.0,0.0,-45,45,1569,-1,-1
"{'cat': 'II', 'resp': 'button'}",63,83,Right,61.15882198791065,33.69411264611158,3.0579410993955327,0.5292658837912553,Left,Incorrect,0.0,0.0,-45,45,1866,-1,-1
"{'cat': 'II', 'resp': 'button'}",63,84,Left,52.03114665259763,72.84752972163365,2.601557332629881,1.144286321028242,Right,Incorrect,0.0,0.0,-45,45,4595,-1,-1
"{'cat': 'II', 'resp': 'button'}",63,85,Left,32.94485488190681,57.13350222093031,1.64724274409534,0.897450954255654,Left,Correct,0.0,0.0,-45,45,542,-1,-1
"{'cat': 'II', 'resp': 'button'}",63,86,Right,77.08208406729312,51.07154782760783,3.854104203364656,0.8022299973133625,Right,Correct,0.0,0.0,-45,45,1653,-1,-1
"{'cat': 'II', 'resp': 'button'}",63,87,Right,36.12216988797661,10.972249038213253,1.8061084943988306,0.17235168485904215,Left,Incorrect,0.0,0.0,-45,45,839,-1,-1
"{'cat': 'II', 'resp': 'button'}",63,88,Left,30.161595743628922,58.847546953544615,1.5080797871814462,0.9243751059551809,Left,Correct,0.0,0.0,-45,45,613,-1,-1
"{'cat': 'II', 'resp': 'button'}",63,89,Left,21.025244151528725,45.29250108493092,1.0512622075764362,0.7114529433556336,Left,Correct,0.0,0.0,-45,45,662,-1,-1
"{'cat': 'II', 'resp': 'button'}",63,90,Right,60.17748522866398,47.42925049964913,3.0088742614331987,0.7450169246748386,Right,Correct,0.0,0.0,-45,45,809,-1,-1
"{'cat': 'II', 'resp': 'button'}",63,91,Left,26.82921481879294,55.37202317153247,1.341460740939647,0.869781706050451,Left,Correct,0.0,0.0,-45,45,776,-1,-1
"{'cat': 'II', 'resp': 'button'}",63,92,Right,43.58770375296412,30.182999996880795,2.1793851876482058,0.4741134552675073,Right,Correct,0.0,0.0,-45,45,975,-1,-1
"{'cat': 'II', 'resp': 'button'}",63,93,Left,41.078405097745026,56.525974016076475,2.053920254887251,0.8879079235295669,Right,Incorrect,0.0,0.0,-45,45,885,-1,-1
"{'cat': 'II', 'resp': 'button'}",63,94,Right,59.29090666641698,44.85913768747213,2.964545333320849,0.7046456870266773,Right,Correct,0.0,0.0,-45,45,575,-1,-1
"{'cat': 'II', 'resp': 'button'}",63,95,Left,56.298733433283005,81.70835678944691,2.8149366716641504,1.2834718671331007,Left,Correct,0.0,0.0,-45,45,1300,-1,-1
"{'cat': 'II', 'resp': 'button'}",63,96,Right,61.11115130053141,44.64365904576962,3.0555575650265707,0.7012609564377867,Left,Incorrect,0.0,0.0,-45,45,848,-1,-1
"{'cat': 'II', 'resp': 'button'}",63,97,Right,34.10751064226069,21.728296101992697,1.7053755321130348,0.34130727704522,Left,Incorrect,0.0,0.0,-45,45,855,-1,-1
"{'cat': 'II', 'resp': 'button'}",63,98,Left,41.034787958875405,53.79850225238019,2.0517393979437704,0.8450648972510578,Right,Incorrect,0.0,0.0,-45,45,981,-1,-1
"{'cat': 'II', 'resp': 'button'}",63,99,Right,58.541723852292165,31.291404356408034,2.9270861926146083,0.49152423023299563,Left,Incorrect,0.0,0.0,-45,45,1301,-1,-1
"{'cat': 'II', 'resp': 'button'}",63,100,Right,61.45463228932608,37.799153809077815,3.072731614466304,0.5937477195925476,Right,Correct,0.0,0.0,-45,45,663,-1,-1
"{'cat': 'II', 'resp': 'button'}",63,101,Left,60.59918585630932,87.39883471010269,3.029959292815466,1.372857685287836,Right,Incorrect,0.0,0.0,-45,45,726,-1,-1
"{'cat': 'II', 'resp': 'button'}",63,102,Left,57.45022545396576,80.59789729163403,2.8725112726982878,1.2660288101309107,Left,Correct,0.0,0.0,-45,45,377,-1,-1
"{'cat': 'II', 'resp': 'button'}",63,103,Left,41.84391359081739,54.20795346955997,2.092195679540869,0.8514965419305346,Left,Correct,0.0,0.0,-45,45,469,-1,-1
"{'cat': 'II', 'resp': 'button'}",63,104,Left,37.26450944814068,56.46449390600896,1.8632254724070338,0.8869421962189169,Left,Correct,0.0,0.0,-45,45,564,-1,-1
"{'cat': 'II', 'resp': 'button'}",63,105,Left,33.165760397496534,62.964488145888,1.6582880198748269,0.9890438669808167,Left,Correct,0.0,0.0,-45,45,579,-1,-1
"{'cat': 'II', 'resp': 'button'}",63,106,Left,37.147410115964014,60.18570394148674,1.8573705057982008,0.945394826768525,Left,Correct,0.0,0.0,-45,45,511,-1,-1
"{'cat': 'II', 'resp': 'button'}",63,107,Right,64.72518001641141,45.137790086165595,3.2362590008205707,0.7090227486698801,Right,Correct,0.0,0.0,-45,45,1868,-1,-1
"{'cat': 'II', 'resp': 'button'}",63,108,Right,63.57942666170417,38.038975716210096,3.1789713330852085,0.5975148333006309,Right,Correct,0.0,0.0,-45,45,726,-1,-1
"{'cat': 'II', 'resp': 'button'}",63,109,Right,70.85655074322352,45.25893646950993,3.542827537161176,0.7109257116094979,Right,Correct,0.0,0.0,-45,45,713,-1,-1
"{'cat': 'II', 'resp': 'button'}",63,110,Left,55.82055550754152,80.35251266115435,2.791027775377076,1.2621743173688167,Left,Correct,0.0,0.0,-45,45,1830,-1,-1
"{'cat': 'II', 'resp': 'button'}",63,111,Right,51.25730605088576,20.07871304831784,2.562865302544288,0.31539568703066423,Right,Correct,0.0,0.0,-45,45,557,-1,-1
"{'cat': 'II', 'resp': 'button'}",63,112,Right,42.63604944967969,22.099789261248613,2.1318024724839844,0.3471426779451062,Left,Incorrect,0.0,0.0,-45,45,1679,-1,-1
"{'cat': 'II', 'resp': 'button'}",63,113,Right,37.95788598375363,11.514650518828578,1.8978942991876813,0.1808717073930288,Left,Incorrect,0.0,0.0,-45,45,575,-1,-1
"{'cat': 'II', 'resp': 'button'}",63,114,Right,71.69618053262398,51.44111007284798,3.5848090266311994,0.8080350674868155,Right,Correct,0.0,0.0,-45,45,691,-1,-1
"{'cat': 'II', 'resp': 'button'}",63,115,Left,16.48203777331927,38.28100151751093,0.8241018886659635,0.6013165656973603,Left,Correct,0.0,0.0,-45,45,702,-1,-1
"{'cat': 'II', 'resp': 'button'}",63,116,Left,20.167156749680164,38.63328811163666,1.008357837484008,0.606850270577678,Left,Correct,0.0,0.0,-45,45,1182,-1,-1
"{'cat': 'II', 'resp': 'button'}",63,117,Right,74.80406968056897,56.682794832235466,3.740203484028449,0.890371259149442,Right,Correct,0.0,0.0,-45,45,778,-1,-1
"{'cat': 'II', 'resp': 'button'}",63,118,Left,31.862428331913165,55.817913188825806,1.5931214165956584,0.8767857300636398,Left,Correct,0.0,0.0,-45,45,650,-1,-1
"{'cat': 'II', 'resp': 'button'}",63,119,Right,49.54138285974325,31.749402554390244,2.4770691429871623,0.49871844910368707,Right,Correct,0.0,0.0,-45,45,1206,-1,-1
"{'cat': 'II', 'resp': 'button'}",63,120,Right,77.38535107685114,50.33569821072612,3.8692675538425565,0.7906712985606503,Right,Correct,0.0,0.0,-45,45,575,-1,-1
"{'cat': 'II', 'resp': 'button'}",63,121,Right,61.95509395602683,37.49295971067435,3.0977546978013413,0.5889380339419632,Right,Correct,0.0,0.0,-45,45,638,-1,-1
"{'cat': 'II', 'resp': 'button'}",63,122,Left,16.93981948773174,46.28120766690009,0.846990974386587,0.7269835100279848,Left,Correct,0.0,0.0,-45,45,505,-1,-1
"{'cat': 'II', 'resp': 'button'}",63,123,Left,50.74797075799643,63.248535917557724,2.537398537899821,0.9935056789445477,Right,Incorrect,0.0,0.0,-45,45,1719,-1,-1
"{'cat': 'II', 'resp': 'button'}",63,124,Left,44.116928885335646,76.64098225514658,2.2058464442667822,1.2038737340833712,Left,Correct,0.0,0.0,-45,45,672,-1,-1
"{'cat': 'II', 'resp': 'button'}",63,125,Right,74.27730602411572,42.35124970297226,3.713865301205786,0.6652518746860228,Right,Correct,0.0,0.0,-45,45,663,-1,-1
"{'cat': 'II', 'resp': 'button'}",63,126,Right,68.39373026947976,37.56077208629058,3.419686513473988,0.5900032282472553,Right,Correct,0.0,0.0,-45,45,593,-1,-1
"{'cat': 'II', 'resp': 'button'}",63,127,Left,39.630960062428045,52.92258495547389,1.9815480031214023,0.8313060205254925,Left,Correct,0.0,0.0,-45,45,806,-1,-1
"{'cat': 'II', 'resp': 'button'}",63,128,Right,70.41460123804112,40.71506801437461,3.5207300619020554,0.6395507928218402,Right,Correct,0.0,0.0,-45,45,480,-1,-1
"{'cat': 'II', 'resp': 'button'}",63,129,Left,22.644808511801106,48.06675203135529,1.1322404255900553,0.7550307753181401,Left,Correct,0.0,0.0,-45,45,553,-1,-1
"{'cat': 'II', 'resp': 'button'}",63,130,Right,34.10261181937444,20.49725906872481,1.7051305909687218,0.3219701925451631,Left,Incorrect,0.0,0.0,-45,45,913,-1,-1
"{'cat': 'II', 'resp': 'button'}",63,131,Right,76.50996624480996,57.70685424793366,3.825498312240498,0.9064571468354268,Right,Correct,0.0,0.0,-45,45,442,-1,-1
"{'cat': 'II', 'resp': 'button'}",63,132,Left,33.154249286406106,44.09308975010792,1.6577124643203052,0.6926126341650722,Left,Correct,0.0,0.0,-45,45,502,-1,-1
"{'cat': 'II', 'resp': 'button'}",63,133,Right,43.107749165284105,16.522776586369602,2.1553874582642054,0.2595391677032209,Left,Incorrect,0.0,0.0,-45,45,1364,-1,-1
"{'cat': 'II', 'resp': 'button'}",63,134,Right,35.534635899355145,18.106176071664144,1.7767317949677572,0.2844111486567169,Left,Incorrect,0.0,0.0,-45,45,933,-1,-1
"{'cat': 'II', 'resp': 'button'}",63,135,Right,71.25491228864573,54.53361644078406,3.5627456144322864,0.8566120439202537,Right,Correct,0.0,0.0,-45,45,664,-1,-1
"{'cat': 'II', 'resp': 'button'}",63,136,Left,43.37957948739163,59.97008319920469,2.1689789743695815,0.9420078640689505,Left,Correct,0.0,0.0,-45,45,602,-1,-1
"{'cat': 'II', 'resp': 'button'}",63,137,Left,62.68497458767176,88.42891552974315,3.134248729383588,1.3890381569657675,Right,Incorrect,0.0,0.0,-45,45,825,-1,-1
"{'cat': 'II', 'resp': 'button'}",63,138,Right,42.390568706429505,23.55859256319116,2.1195284353214756,0.37005750662718234,Right,Correct,0.0,0.0,-45,45,518,-1,-1
"{'cat': 'II', 'resp': 'button'}",63,139,Right,40.55181773126701,20.631780077514104,2.0275908865633507,0.3240832436099928,Right,Correct,0.0,0.0,-45,45,1223,-1,-1
"{'cat': 'II', 'resp': 'button'}",63,140,Left,49.185400295877955,77.92520282081993,2.4592700147938977,1.2240462235569125,Left,Correct,0.0,0.0,-45,45,664,-1,-1
"{'cat': 'II', 'resp': 'button'}",63,141,Left,45.90718967845171,67.24555340369758,2.2953594839225855,1.0562906827981822,Right,Incorrect,0.0,0.0,-45,45,814,-1,-1
"{'cat': 'II', 'resp': 'button'}",63,142,Left,59.02018486064081,84.34034791691948,2.9510092430320407,1.3248150870850075,Left,Correct,0.0,0.0,-45,45,481,-1,-1
"{'cat': 'II', 'resp': 'button'}",63,143,Right,83.29788269144963,53.24956689600358,4.1648941345724815,0.8364422408366154,Right,Correct,0.0,0.0,-45,45,1108,-1,-1
"{'cat': 'II', 'resp': 'button'}",63,144,Right,53.023435024247256,29.233846715983862,2.651171751212363,0.459204190395525,Right,Correct,0.0,0.0,-45,45,655,-1,-1
"{'cat': 'II', 'resp': 'button'}",63,145,Right,76.37814631324383,56.08048737264991,3.8189073156621918,0.8809102356982607,Right,Correct,0.0,0.0,-45,45,1081,-1,-1
"{'cat': 'II', 'resp': 'button'}",63,146,Left,20.833541386272596,46.412908614273135,1.04167706931363,0.7290522636716744,Left,Correct,0.0,0.0,-45,45,511,-1,-1
"{'cat': 'II', 'resp': 'button'}",63,147,Left,31.425435224739545,46.14192513196875,1.5712717612369773,0.7247956650854163,Left,Correct,0.0,0.0,-45,45,535,-1,-1
"{'cat': 'II', 'resp': 'button'}",63,148,Right,60.84240636430779,34.14707251592123,3.0421203182153898,0.5363809607880804,Right,Correct,0.0,0.0,-45,45,589,-1,-1
"{'cat': 'II', 'resp': 'button'}",63,149,Right,71.46920405322356,41.38370811678297,3.5734602026611784,0.6500537669899482,Right,Correct,0.0,0.0,-45,45,1052,-1,-1
"{'cat': 'II', 'resp': 'button'}",63,150,Left,20.60657590045578,38.6312379805269,1.030328795022789,0.6068180671935115,Left,Correct,0.0,0.0,-45,45,709,-1,-1
"{'cat': 'II', 'resp': 'button'}",63,151,Right,68.69911820722612,47.9998611850037,3.434955910361306,0.7539800563606873,Right,Correct,0.0,0.0,-45,45,566,-1,-1
"{'cat': 'II', 'resp': 'button'}",63,152,Left,19.44589422443042,47.16203454701517,0.9722947112215209,0.7408195063062544,Left,Correct,0.0,0.0,-45,45,608,-1,-1
"{'cat': 'II', 'resp': 'button'}",63,153,Left,29.309983346211244,42.16164816237608,1.4654991673105622,0.6622736206507914,Left,Correct,0.0,0.0,-45,45,515,-1,-1
"{'cat': 'II', 'resp': 'button'}",63,154,Right,72.64656242092862,48.46471772875062,3.632328121046431,0.7612820058747297,Right,Correct,0.0,0.0,-45,45,683,-1,-1
"{'cat': 'II', 'resp': 'button'}",63,155,Right,36.37480539573674,13.152019430998497,1.8187402697868373,0.20659143812147546,Left,Incorrect,0.0,0.0,-45,45,621,-1,-1
"{'cat': 'II', 'resp': 'button'}",63,156,Right,37.242132113858894,25.525055753113882,1.8621066056929447,0.40094663818226234,Right,Correct,0.0,0.0,-45,45,1424,-1,-1
"{'cat': 'II', 'resp': 'button'}",63,157,Left,25.585086643357975,39.44982955287746,1.2792543321678989,0.6196764735434467,Left,Correct,0.0,0.0,-45,45,640,-1,-1
"{'cat': 'II', 'resp': 'button'}",63,158,Right,66.43941860039482,51.766885596475646,3.3219709300197406,0.8131523374455559,Right,Correct,0.0,0.0,-45,45,428,-1,-1
"{'cat': 'II', 'resp': 'button'}",63,159,Left,19.410008169305748,43.92717157679988,0.9705004084652873,0.6900063975932644,Left,Correct,0.0,0.0,-45,45,556,-1,-1
"{'cat': 'II', 'resp': 'button'}",63,160,Left,15.846885675814075,43.23310483769802,0.7923442837907038,0.6791040227499472,Left,Correct,0.0,0.0,-45,45,574,-1,-1
"{'cat': 'II', 'resp': 'button'}",63,161,Right,48.73189435821952,40.84566761400732,2.436594717910976,0.6416022465356797,Left,Incorrect,0.0,0.0,-45,45,504,-1,-1
"{'cat': 'II', 'resp': 'button'}",63,162,Left,49.85229674137417,62.47428076912982,2.4926148370687087,0.9813437075130216,Right,Incorrect,0.0,0.0,-45,45,793,-1,-1
"{'cat': 'II', 'resp': 'button'}",63,163,Left,46.67816375199908,72.60808386005691,2.333908187599954,1.140525114229932,Left,Correct,0.0,0.0,-45,45,559,-1,-1
"{'cat': 'II', 'resp': 'button'}",63,164,Left,54.27388514365643,66.51200399172232,2.7136942571828215,1.0447681155796493,Right,Incorrect,0.0,0.0,-45,45,643,-1,-1
"{'cat': 'II', 'resp': 'button'}",63,165,Left,64.13056854033334,87.9937250129214,3.206528427016667,1.3822022003129715,Left,Correct,0.0,0.0,-45,45,1127,-1,-1
"{'cat': 'II', 'resp': 'button'}",63,166,Right,53.8187585514355,29.549774125043108,2.690937927571775,0.4641667665323658,Right,Correct,0.0,0.0,-45,45,1819,-1,-1
"{'cat': 'II', 'resp': 'button'}",63,167,Left,33.600320253144396,47.86144617190442,1.6800160126572197,0.7518058384191912,Left,Correct,0.0,0.0,-45,45,724,-1,-1
"{'cat': 'II', 'resp': 'button'}",63,168,Right,36.12698217118478,25.024730895363856,1.806349108559239,0.3930875536946831,Left,Incorrect,0.0,0.0,-45,45,1465,-1,-1
"{'cat': 'II', 'resp': 'button'}",63,169,Left,38.766389355236875,67.99152502065294,1.9383194677618436,1.0680083775562497,Left,Correct,0.0,0.0,-45,45,872,-1,-1
"{'cat': 'II', 'resp': 'button'}",63,170,Right,54.52340301480886,36.031861520746176,2.7261701507404434,0.5659871572437046,Left,Incorrect,0.0,0.0,-45,45,381,-1,-1
"{'cat': 'II', 'resp': 'button'}",63,171,Left,38.30831748437532,70.21024515794751,1.9154158742187661,1.1028599519747313,Left,Correct,0.0,0.0,-45,45,1149,-1,-1
"{'cat': 'II', 'resp': 'button'}",63,172,Left,19.17241221266893,42.08569311794915,0.9586206106334465,0.6610805216029177,Left,Correct,0.0,0.0,-45,45,826,-1,-1
"{'cat': 'II', 'resp': 'button'}",63,173,Left,40.407221939067945,69.5135700062678,2.020361096953397,1.0919166042824535,Left,Correct,0.0,0.0,-45,45,735,-1,-1
"{'cat': 'II', 'resp': 'button'}",63,174,Left,36.98085806521197,57.9157041664956,1.8490429032605986,0.9097377536847118,Left,Correct,0.0,0.0,-45,45,435,-1,-1
"{'cat': 'II', 'resp': 'button'}",63,175,Left,66.69942289782264,81.89494009638541,3.334971144891132,1.286402710864903,Left,Correct,0.0,0.0,-45,45,407,-1,-1
"{'cat': 'II', 'resp': 'button'}",63,176,Left,47.905548706382724,75.61554288971061,2.395277435319136,1.1877661701975937,Left,Correct,0.0,0.0,-45,45,437,-1,-1
"{'cat': 'II', 'resp': 'button'}",63,177,Right,71.27563158819106,54.7621129340453,3.563781579409553,0.8602012584432563,Right,Correct,0.0,0.0,-45,45,791,-1,-1
"{'cat': 'II', 'resp': 'button'}",63,178,Right,78.39419956954572,50.47240531974768,3.919709978477286,0.7928186888076284,Right,Correct,0.0,0.0,-45,45,524,-1,-1
"{'cat': 'II', 'resp': 'button'}",63,179,Left,42.09017622390492,59.918837957842015,2.1045088111952457,0.9412029056999686,Left,Correct,0.0,0.0,-45,45,549,-1,-1
"{'cat': 'II', 'resp': 'button'}",63,180,Right,30.464992052183785,11.58094945579457,1.523249602609189,0.18191312865959466,Right,Correct,0.0,0.0,-45,45,1596,-1,-1
"{'cat': 'II', 'resp': 'button'}",63,181,Left,13.709535461672019,42.26196094847734,0.6854767730836009,0.6638493302101756,Left,Correct,0.0,0.0,-45,45,538,-1,-1
"{'cat': 'II', 'resp': 'button'}",63,182,Right,76.66080338924536,50.483622230593205,3.8330401694622678,0.79299488363117,Right,Correct,0.0,0.0,-45,45,895,-1,-1
"{'cat': 'II', 'resp': 'button'}",63,183,Left,12.972026265161102,30.075787138245115,0.6486013132580551,0.4724293596222062,Left,Correct,0.0,0.0,-45,45,531,-1,-1
"{'cat': 'II', 'resp': 'button'}",63,184,Left,40.87941431588311,50.525011188295004,2.0439707157941553,0.7936450198584484,Left,Correct,0.0,0.0,-45,45,1051,-1,-1
"{'cat': 'II', 'resp': 'button'}",63,185,Left,59.118519393054534,83.43583868431688,2.9559259696527267,1.310607089283765,100,Incorrect,0.0,0.0,-45,45,520,-1,-1
"{'cat': 'II', 'resp': 'button'}",63,186,Right,44.063902925472306,31.285314940144247,2.203195146273615,0.4914285779060008,Right,Correct,0.0,0.0,-45,45,1121,-1,-1
"{'cat': 'II', 'resp': 'button'}",63,187,Right,78.77368033514094,48.17618014442554,3.938684016757047,0.7567496680987287,Right,Correct,0.0,0.0,-45,45,540,-1,-1
"{'cat': 'II', 'resp': 'button'}",63,188,Left,41.41024208573634,51.90876624413085,2.0705121042868173,0.8153809934473567,Left,Correct,0.0,0.0,-45,45,769,-1,-1
"{'cat': 'II', 'resp': 'button'}",63,189,Right,46.879795170404535,26.946102159189017,2.3439897585202267,0.4232683829309414,Right,Correct,0.0,0.0,-45,45,920,-1,-1
"{'cat': 'II', 'resp': 'button'}",63,190,Right,58.14168576401575,28.01036085226455,2.907084288200787,0.43998571938936726,Right,Correct,0.0,0.0,-45,45,1527,-1,-1
"{'cat': 'II', 'resp': 'button'}",63,191,Left,29.809788364502296,52.56104107483398,1.490489418225115,0.825626902528649,Left,Correct,0.0,0.0,-45,45,605,-1,-1
"{'cat': 'II', 'resp': 'button'}",63,192,Right,46.12887878985396,23.10043479493086,2.3064439394926977,0.3628607812324241,Right,Correct,0.0,0.0,-45,45,743,-1,-1
"{'cat': 'II', 'resp': 'button'}",63,193,Left,42.45784106256859,60.348346847009104,2.12289205312843,0.9479496155542629,Left,Correct,0.0,0.0,-45,45,479,-1,-1
"{'cat': 'II', 'resp': 'button'}",63,194,Left,38.31790926936849,45.755705517037214,1.9158954634684247,0.7187289415607105,Right,Incorrect,0.0,0.0,-45,45,772,-1,-1
"{'cat': 'II', 'resp': 'button'}",63,195,Left,35.01521802255996,50.96102771723509,1.7507609011279979,0.800493951479258,Left,Correct,0.0,0.0,-45,45,558,-1,-1
"{'cat': 'II', 'resp': 'button'}",63,196,Right,48.4983245868104,17.961313858323702,2.4249162293405195,0.28213565833065146,Right,Correct,0.0,0.0,-45,45,493,-1,-1
"{'cat': 'II', 'resp': 'button'}",63,197,Right,55.884423346814195,34.66781734162352,2.79422116734071,0.5445608013821864,Right,Correct,0.0,0.0,-45,45,630,-1,-1
"{'cat': 'II', 'resp': 'button'}",63,198,Left,35.2049521088982,50.2866303302605,1.7602476054449099,0.7899005420966603,Left,Correct,0.0,0.0,-45,45,780,-1,-1
"{'cat': 'II', 'resp': 'button'}",63,199,Right,62.86978905806759,43.3622027256012,3.1434894529033794,0.6811318876311002,Right,Correct,0.0,0.0,-45,45,409,-1,-1
"{'cat': 'II', 'resp': 'button'}",63,200,Left,29.58908822009642,59.98361756177743,1.479454411004821,0.9422204613390982,Left,Correct,0.0,0.0,-45,45,425,-1,-1
"{'cat': 'II', 'resp': 'button'}",63,201,Right,58.455062584993,39.32875565866779,2.9227531292496503,0.6177746492604936,Right,Correct,0.0,0.0,-45,45,360,-1,-1
"{'cat': 'II', 'resp': 'button'}",63,202,Left,39.67295458857895,59.87286910883393,1.9836477294289478,0.9404808287082796,Left,Correct,0.0,0.0,-45,45,321,-1,-1
"{'cat': 'II', 'resp': 'button'}",63,203,Left,19.9492628772252,35.86303742509159,0.9974631438612599,0.5633352745504178,Right,Incorrect,0.0,0.0,-45,45,361,-1,-1
"{'cat': 'II', 'resp': 'button'}",63,204,Right,67.41513462505024,58.3410992370744,3.3707567312525124,0.9164198438277302,Right,Correct,0.0,0.0,-45,45,633,-1,-1
"{'cat': 'II', 'resp': 'button'}",63,205,Right,36.287237300393784,24.389807972995087,1.814361865019689,0.3831142077521356,Left,Incorrect,0.0,0.0,-45,45,524,-1,-1
"{'cat': 'II', 'resp': 'button'}",63,206,Left,47.8228743177931,74.2564898841958,2.391143715889655,1.1664182155077716,Left,Correct,0.0,0.0,-45,45,1044,-1,-1
"{'cat': 'II', 'resp': 'button'}",63,207,Left,36.95757504838227,50.21562970237511,1.8478787524191134,0.7887852668418354,Right,Incorrect,0.0,0.0,-45,45,665,-1,-1
"{'cat': 'II', 'resp': 'button'}",63,208,Right,75.56817527911343,59.6777881302067,3.778408763955672,0.9374165038617278,Right,Correct,0.0,0.0,-45,45,473,-1,-1
"{'cat': 'II', 'resp': 'button'}",63,209,Right,61.71057564605412,45.917271951403144,3.085528782302706,0.721266821177064,Right,Correct,0.0,0.0,-45,45,562,-1,-1
"{'cat': 'II', 'resp': 'button'}",63,210,Left,59.988084169855966,86.76460509608833,2.999404208492798,1.362895229807453,Left,Correct,0.0,0.0,-45,45,766,-1,-1
"{'cat': 'II', 'resp': 'button'}",63,211,Right,40.663412604363955,22.092992060778435,2.0331706302181978,0.3470359077697958,Left,Incorrect,0.0,0.0,-45,45,1032,-1,-1
"{'cat': 'II', 'resp': 'button'}",63,212,Left,48.73079935541821,67.82896871805997,2.4365399677709108,1.0654549491261456,Left,Correct,0.0,0.0,-45,45,586,-1,-1
"{'cat': 'II', 'resp': 'button'}",63,213,Left,56.21752849162144,73.00704880384659,2.810876424581072,1.1467920409121797,Left,Correct,0.0,0.0,-45,45,765,-1,-1
"{'cat': 'II', 'resp': 'button'}",63,214,Right,40.07018473656811,26.203581744825748,2.0035092368284055,0.41160489953642093,Right,Correct,0.0,0.0,-45,45,524,-1,-1
"{'cat': 'II', 'resp': 'button'}",63,215,Right,43.38726488899803,14.658507244802529,2.169363244449902,0.23025529336432193,Right,Correct,0.0,0.0,-45,45,594,-1,-1
"{'cat': 'II', 'resp': 'button'}",63,216,Left,31.87213060772422,55.658053490837716,1.593606530386211,0.8742746597996175,Left,Correct,0.0,0.0,-45,45,575,-1,-1
"{'cat': 'II', 'resp': 'button'}",63,217,Right,58.10937374391361,42.82242984331156,2.9054686871956803,0.6726531550230596,Right,Correct,0.0,0.0,-45,45,392,-1,-1
"{'cat': 'II', 'resp': 'button'}",63,218,Right,82.37882133515312,63.17639358636774,4.118941066757656,0.992372469856151,Left,Incorrect,0.0,0.0,-45,45,1030,-1,-1
"{'cat': 'II', 'resp': 'button'}",63,219,Right,87.42606324643833,59.70463111369489,4.371303162321917,0.9378381524603623,Right,Correct,0.0,0.0,-45,45,706,-1,-1
"{'cat': 'II', 'resp': 'button'}",63,220,Left,50.626008677306906,68.68750217146754,2.5313004338653453,1.078940761076577,Right,Incorrect,0.0,0.0,-45,45,549,-1,-1
"{'cat': 'II', 'resp': 'button'}",63,221,Right,37.954165435531564,16.046482099433394,1.8977082717765783,0.25205755139770036,Right,Correct,0.0,0.0,-45,45,706,-1,-1
"{'cat': 'II', 'resp': 'button'}",63,222,Left,32.039999082810176,48.82086029189783,1.6019999541405088,0.7668762801747995,Left,Correct,0.0,0.0,-45,45,661,-1,-1
"{'cat': 'II', 'resp': 'button'}",63,223,Left,24.15212950871666,49.67525677150198,1.2076064754358329,0.7802971086926863,Right,Incorrect,0.0,0.0,-45,45,409,-1,-1
"{'cat': 'II', 'resp': 'button'}",63,224,Left,35.01015543424052,65.97136984155486,1.7505077717120259,1.03627585420742,Left,Correct,0.0,0.0,-45,45,692,-1,-1
"{'cat': 'II', 'resp': 'button'}",63,225,Right,35.45129834074832,11.17026899795302,1.7725649170374163,0.17546217511295512,Right,Correct,0.0,0.0,-45,45,722,-1,-1
"{'cat': 'II', 'resp': 'button'}",63,226,Left,38.118130380633836,66.27684062058884,1.9059065190316917,1.0410741779839177,Left,Correct,0.0,0.0,-45,45,462,-1,-1
"{'cat': 'II', 'resp': 'button'}",63,227,Left,54.59633092180555,69.9763198393999,2.729816546090278,1.099185461663542,Right,Incorrect,0.0,0.0,-45,45,468,-1,-1
"{'cat': 'II', 'resp': 'button'}",63,228,Left,47.08663096719765,64.50665302765599,2.3543315483598826,1.0132681362967493,Left,Correct,0.0,0.0,-45,45,496,-1,-1
"{'cat': 'II', 'resp': 'button'}",63,229,Left,53.05384929693525,80.37721592393892,2.652692464846762,1.2625623553132352,Left,Correct,0.0,0.0,-45,45,335,-1,-1
"{'cat': 'II', 'resp': 'button'}",63,230,Left,31.146663019552157,41.193411863567235,1.557333150977608,0.6470646004344073,Left,Correct,0.0,0.0,-45,45,613,-1,-1
"{'cat': 'II', 'resp': 'button'}",63,231,Right,54.16275372902061,30.07347604312598,2.7081376864510305,0.47239305702496603,Left,Incorrect,0.0,0.0,-45,45,614,-1,-1
"{'cat': 'II', 'resp': 'button'}",63,232,Right,46.82467501118814,27.885957723239166,2.341233750559407,0.43803159960821864,Right,Correct,0.0,0.0,-45,45,433,-1,-1
"{'cat': 'II', 'resp': 'button'}",63,233,Left,38.3759500104731,71.20851405402827,1.918797500523655,1.1185407231259037,Left,Correct,0.0,0.0,-45,45,384,-1,-1
"{'cat': 'II', 'resp': 'button'}",63,234,Right,78.75352815346957,48.03356891107327,3.9376764076734787,0.7545095360836342,Right,Correct,0.0,0.0,-45,45,844,-1,-1
"{'cat': 'II', 'resp': 'button'}",63,235,Left,45.881828130687644,72.13840741410405,2.294091406534382,1.1331474538690836,Left,Correct,0.0,0.0,-45,45,558,-1,-1
"{'cat': 'II', 'resp': 'button'}",63,236,Left,46.567174572764955,71.30369375812026,2.3283587286382477,1.120035802421635,Right,Incorrect,0.0,0.0,-45,45,762,-1,-1
"{'cat': 'II', 'resp': 'button'}",63,237,Right,73.7050296412873,48.94984566272063,3.685251482064365,0.7689023776417866,Right,Correct,0.0,0.0,-45,45,439,-1,-1
"{'cat': 'II', 'resp': 'button'}",63,238,Left,26.18563646909392,58.66098619062033,1.3092818234546961,0.9214446163439256,Left,Correct,0.0,0.0,-45,45,610,-1,-1
"{'cat': 'II', 'resp': 'button'}",63,239,Right,42.90975205016349,32.99737619995499,2.1454876025081746,0.5183215732875864,Right,Correct,0.0,0.0,-45,45,671,-1,-1
"{'cat': 'II', 'resp': 'button'}",63,240,Right,66.19008464621044,42.55849769602937,3.309504232310522,0.66850731854832,Left,Incorrect,0.0,0.0,-45,45,491,-1,-1
"{'cat': 'II', 'resp': 'button'}",63,241,Left,17.62118125330043,47.43021815264794,0.8810590626650217,0.7450321245326001,Left,Correct,0.0,0.0,-45,45,323,-1,-1
"{'cat': 'II', 'resp': 'button'}",63,242,Left,17.395592873748516,46.33884760109257,0.8697796436874258,0.7278889159970471,Left,Correct,0.0,0.0,-45,45,547,-1,-1
"{'cat': 'II', 'resp': 'button'}",63,243,Left,55.747218621810795,76.75774515260544,2.78736093109054,1.205707841387714,Left,Correct,0.0,0.0,-45,45,681,-1,-1
"{'cat': 'II', 'resp': 'button'}",63,244,Left,40.34114790587033,48.38785255462046,2.0170573952935165,0.7600746105429088,Left,Correct,0.0,0.0,-45,45,507,-1,-1
"{'cat': 'II', 'resp': 'button'}",63,245,Left,39.567584346957915,60.08312438321761,1.9783792173478958,0.9437835108351911,Left,Correct,0.0,0.0,-45,45,682,-1,-1
"{'cat': 'II', 'resp': 'button'}",63,246,Right,34.34812068280415,15.174750490586547,1.7174060341402078,0.23836442330642404,Right,Correct,0.0,0.0,-45,45,1115,-1,-1
"{'cat': 'II', 'resp': 'button'}",63,247,Right,52.8277063642842,31.63003208689789,2.64138531821421,0.4968433821850392,Right,Correct,0.0,0.0,-45,45,393,-1,-1
"{'cat': 'II', 'resp': 'button'}",63,248,Right,65.6826286056212,46.11271608411124,3.28413143028106,0.724336850434579,Right,Correct,0.0,0.0,-45,45,298,-1,-1
"{'cat': 'II', 'resp': 'button'}",63,249,Right,50.31664675979044,25.0053269397907,2.5158323379895218,0.392782757073287,Right,Correct,0.0,0.0,-45,45,274,-1,-1
"{'cat': 'II', 'resp': 'button'}",63,250,Left,50.32396621696731,78.16131045692008,2.5161983108483654,1.227754993632056,Left,Correct,0.0,0.0,-45,45,680,-1,-1
"{'cat': 'II', 'resp': 'button'}",63,251,Left,28.74577716722625,47.03554832866271,1.4372888583613126,0.7388326654344722,Left,Correct,0.0,0.0,-45,45,520,-1,-1
"{'cat': 'II', 'resp': 'button'}",63,252,Left,46.607657209888295,66.621445380163,2.3303828604944146,1.0464872168892685,Left,Correct,0.0,0.0,-45,45,464,-1,-1
"{'cat': 'II', 'resp': 'button'}",63,253,Right,50.06101424554248,29.56276087338935,2.503050712277124,0.46437076189835885,Right,Correct,0.0,0.0,-45,45,616,-1,-1
"{'cat': 'II', 'resp': 'button'}",63,254,Left,32.16347575125212,46.12472288365366,1.608173787562606,0.7245254528007568,Left,Correct,0.0,0.0,-45,45,1089,-1,-1
"{'cat': 'II', 'resp': 'button'}",63,255,Right,72.83817774757307,57.1676909191938,3.6419088873786536,0.8979879890721558,Right,Correct,0.0,0.0,-45,45,425,-1,-1
"{'cat': 'II', 'resp': 'button'}",63,256,Left,44.98832827348653,60.890542429518185,2.2494164136743264,0.9564664038483596,Right,Incorrect,0.0,0.0,-45,45,717,-1,-1
"{'cat': 'II', 'resp': 'button'}",63,257,Left,55.894539793749644,78.12688094501478,2.794726989687482,1.227214176123714,Left,Correct,0.0,0.0,-45,45,612,-1,-1
"{'cat': 'II', 'resp': 'button'}",63,258,Right,48.85850888171435,34.598883364343095,2.4429254440857178,0.5434779889991519,Left,Incorrect,0.0,0.0,-45,45,292,-1,-1
"{'cat': 'II', 'resp': 'button'}",63,259,Right,54.019769393141175,45.956015931472926,2.7009884696570587,0.7218754101928542,Right,Correct,0.0,0.0,-45,45,710,-1,-1
"{'cat': 'II', 'resp': 'button'}",63,260,Right,82.39733264469537,51.73426285131565,4.119866632234769,0.8126399005628828,Right,Correct,0.0,0.0,-45,45,481,-1,-1
"{'cat': 'II', 'resp': 'button'}",63,261,Right,89.12312365648755,65.72803928220907,4.456156182824378,1.0324536267192468,Right,Correct,0.0,0.0,-45,45,496,-1,-1
"{'cat': 'II', 'resp': 'button'}",63,262,Right,84.141032359793,59.89032983811074,4.20705161798965,0.9407551012023913,Right,Correct,0.0,0.0,-45,45,527,-1,-1
"{'cat': 'II', 'resp': 'button'}",63,263,Right,32.07322138356189,15.982420068180243,1.6036610691780941,0.25105126736390565,Left,Incorrect,0.0,0.0,-45,45,571,-1,-1
"{'cat': 'II', 'resp': 'button'}",63,264,Right,57.050818375425735,39.14762720110313,2.8525409187712865,0.6149294901022877,Right,Correct,0.0,0.0,-45,45,455,-1,-1
"{'cat': 'II', 'resp': 'button'}",63,265,Left,52.339651294939294,61.63815836236247,2.6169825647469644,0.968209927460011,Right,Incorrect,0.0,0.0,-45,45,283,-1,-1
"{'cat': 'II', 'resp': 'button'}",63,266,Left,58.4535900104342,71.848721021243,2.92267950052171,1.1285970706507975,Left,Correct,0.0,0.0,-45,45,637,-1,-1
"{'cat': 'II', 'resp': 'button'}",63,267,Left,49.28859957915814,57.01283262055743,2.4644299789579067,0.8955554806054387,Left,Correct,0.0,0.0,-45,45,488,-1,-1
"{'cat': 'II', 'resp': 'button'}",63,268,Right,37.4815712519425,28.280496510859347,1.874078562597125,0.44422900039193747,Left,Incorrect,0.0,0.0,-45,45,882,-1,-1
"{'cat': 'II', 'resp': 'button'}",63,269,Left,24.99289334863115,47.383782637288185,1.2496446674315576,0.7443027171630007,Right,Incorrect,0.0,0.0,-45,45,471,-1,-1
"{'cat': 'II', 'resp': 'button'}",63,270,Left,10.88983389559051,31.843573197260522,0.5444916947795255,0.5001976781028125,Left,Correct,0.0,0.0,-45,45,337,-1,-1
"{'cat': 'II', 'resp': 'button'}",63,271,Right,55.752436424060164,48.7410195376577,2.7876218212030084,0.76562214453991,Left,Incorrect,0.0,0.0,-45,45,331,-1,-1
"{'cat': 'II', 'resp': 'button'}",63,272,Right,59.44408687776239,40.466726974075804,2.9722043438881194,0.6356498608829023,Right,Correct,0.0,0.0,-45,45,470,-1,-1
"{'cat': 'II', 'resp': 'button'}",63,273,Left,61.955221930856425,79.73005726277103,3.097761096542821,1.2523968108350751,Right,Incorrect,0.0,0.0,-45,45,870,-1,-1
"{'cat': 'II', 'resp': 'button'}",63,274,Right,53.15858737775198,27.073776657054516,2.657929368887599,0.42527388925366644,Left,Incorrect,0.0,0.0,-45,45,1101,-1,-1
"{'cat': 'II', 'resp': 'button'}",63,275,Left,13.575339361035773,30.374506462864673,0.6787669680517887,0.4771216318007567,Left,Correct,0.0,0.0,-45,45,751,-1,-1
"{'cat': 'II', 'resp': 'button'}",63,276,Left,51.958348266525896,68.86113927504499,2.5979174133262948,1.0816682463215246,Right,Incorrect,0.0,0.0,-45,45,809,-1,-1
"{'cat': 'II', 'resp': 'button'}",63,277,Right,83.8168126222102,57.765726210853536,4.190840631110509,0.9073819054664841,Left,Incorrect,0.0,0.0,-45,45,835,-1,-1
"{'cat': 'II', 'resp': 'button'}",63,278,Left,56.87914810329913,80.84097116307402,2.8439574051649568,1.2698470055748883,Right,Incorrect,0.0,0.0,-45,45,439,-1,-1
"{'cat': 'II', 'resp': 'button'}",63,279,Left,26.567275022166402,47.11566048294287,1.3283637511083202,0.7400910642112213,Left,Correct,0.0,0.0,-45,45,525,-1,-1
"{'cat': 'II', 'resp': 'button'}",63,280,Right,50.78326227774379,34.831074606133,2.5391631138871897,0.5471252404963272,Left,Incorrect,0.0,0.0,-45,45,849,-1,-1
"{'cat': 'II', 'resp': 'button'}",63,281,Left,34.81232170705111,48.59879762033236,1.7406160853525556,0.7633881278866662,Left,Correct,0.0,0.0,-45,45,452,-1,-1
"{'cat': 'II', 'resp': 'button'}",63,282,Right,33.60938751988293,21.55067324755628,1.6804693759941467,0.3385171837721845,Left,Incorrect,0.0,0.0,-45,45,1163,-1,-1
"{'cat': 'II', 'resp': 'button'}",63,283,Right,46.54182267729051,16.70888198140986,2.3270911338645255,0.26246250441248037,Right,Correct,0.0,0.0,-45,45,509,-1,-1
"{'cat': 'II', 'resp': 'button'}",63,284,Right,45.5872468168198,35.87261491508661,2.27936234084099,0.5634857174114587,Right,Correct,0.0,0.0,-45,45,360,-1,-1
"{'cat': 'II', 'resp': 'button'}",63,285,Right,45.24589779903181,20.682455297973032,2.2622948899515904,0.3248792481115569,Right,Correct,0.0,0.0,-45,45,368,-1,-1
"{'cat': 'II', 'resp': 'button'}",63,286,Left,13.372232233544228,35.590877778326785,0.6686116116772114,0.5590602008160183,Left,Correct,0.0,0.0,-45,45,612,-1,-1
"{'cat': 'II', 'resp': 'button'}",63,287,Left,43.43526877578351,52.68633790086594,2.171763438789176,0.8275950604695496,Right,Incorrect,0.0,0.0,-45,45,1004,-1,-1
"{'cat': 'II', 'resp': 'button'}",63,288,Left,25.62836944200688,44.31336589491328,1.281418472100344,0.6960727237564802,Left,Correct,0.0,0.0,-45,45,732,-1,-1
"{'cat': 'II', 'resp': 'button'}",63,289,Right,40.57744240509777,28.011544973049325,2.0288721202548885,0.44000431951515934,Left,Incorrect,0.0,0.0,-45,45,594,-1,-1
"{'cat': 'II', 'resp': 'button'}",63,290,Left,34.979212258334876,58.66117222665653,1.7489606129167439,0.9214475385911489,Right,Incorrect,0.0,0.0,-45,45,896,-1,-1
"{'cat': 'II', 'resp': 'button'}",63,291,Right,34.10259269486552,15.698311904609003,1.7051296347432758,0.24658850676640418,Left,Incorrect,0.0,0.0,-45,45,551,-1,-1
"{'cat': 'II', 'resp': 'button'}",63,292,Right,51.866512281156105,37.24896757271144,2.5933256140578056,0.5851054144011735,Right,Correct,0.0,0.0,-45,45,792,-1,-1
"{'cat': 'II', 'resp': 'button'}",63,293,Left,58.77563203992259,69.95188223659876,2.93878160199613,1.098801596696385,Right,Incorrect,0.0,0.0,-45,45,532,-1,-1
"{'cat': 'II', 'resp': 'button'}",63,294,Left,14.617928592943866,38.144087896386594,0.7308964296471934,0.5991659315658573,Left,Correct,0.0,0.0,-45,45,881,-1,-1
"{'cat': 'II', 'resp': 'button'}",63,295,Right,42.02246957794867,13.450488068257847,2.1011234788974336,0.21127977251218014,Right,Correct,0.0,0.0,-45,45,673,-1,-1
"{'cat': 'II', 'resp': 'button'}",63,296,Right,61.09953073594886,51.10391761968034,3.054976536797443,0.8027384608182286,Right,Correct,0.0,0.0,-45,45,417,-1,-1
"{'cat': 'II', 'resp': 'button'}",63,297,Left,39.72312550593883,56.60891603028709,1.9861562752969417,0.889210773642157,Left,Correct,0.0,0.0,-45,45,961,-1,-1
"{'cat': 'II', 'resp': 'button'}",63,298,Right,31.89168549960131,13.9071702532897,1.5945842749800654,0.2184533194997871,Right,Correct,0.0,0.0,-45,45,647,-1,-1
"{'cat': 'II', 'resp': 'button'}",63,299,Right,38.463846891736964,17.108504486753542,1.9231923445868484,0.2687397600474647,Right,Correct,0.0,0.0,-45,45,428,-1,-1
"{'cat': 'II', 'resp': 'button'}",63,300,Right,60.89909506855996,41.19862137672935,3.044954753427998,0.6471464312758016,Right,Correct,0.0,0.0,-45,45,646,-1,-1
"{'cat': 'II', 'resp': 'button'}",63,301,Right,48.11971751826278,24.564271073797954,2.405985875913139,0.38585466773115956,Right,Correct,0.0,0.0,-45,45,934,-1,-1
"{'cat': 'II', 'resp': 'button'}",63,302,Left,18.376959206587536,40.33124835616768,0.9188479603293769,0.633521767729209,Left,Correct,0.0,0.0,-45,45,608,-1,-1
"{'cat': 'II', 'resp': 'button'}",63,303,Right,70.39698269619127,46.50084720333563,3.5198491348095637,0.7304335997985035,Right,Correct,0.0,0.0,-45,45,854,-1,-1
"{'cat': 'II', 'resp': 'button'}",63,304,Right,41.99101741027626,31.511314506227492,2.099550870513813,0.49497857078860885,Right,Correct,0.0,0.0,-45,45,1436,-1,-1
"{'cat': 'II', 'resp': 'button'}",63,305,Right,80.31499672504654,66.95108091068208,4.0157498362523265,1.0516651196944733,Right,Correct,0.0,0.0,-45,45,664,-1,-1
"{'cat': 'II', 'resp': 'button'}",63,306,Right,60.828237851351254,41.86631002220152,3.0414118925675626,0.657634459993305,Right,Correct,0.0,0.0,-45,45,585,-1,-1
"{'cat': 'II', 'resp': 'button'}",63,307,Right,60.9892691530804,31.27232712136385,3.04946345765402,0.49122456572566764,Right,Correct,0.0,0.0,-45,45,655,-1,-1
"{'cat': 'II', 'resp': 'button'}",63,308,Left,28.368428342427308,46.646185521122405,1.4184214171213654,0.7327165687557238,Left,Correct,0.0,0.0,-45,45,676,-1,-1
"{'cat': 'II', 'resp': 'button'}",63,309,Right,69.08481819030347,58.16480353582057,3.454240909515173,0.9136505974281376,Right,Correct,0.0,0.0,-45,45,586,-1,-1
"{'cat': 'II', 'resp': 'button'}",63,310,Right,41.978787299184496,19.014243697984192,2.0989393649592247,0.2986750415757658,Right,Correct,0.0,0.0,-45,45,608,-1,-1
"{'cat': 'II', 'resp': 'button'}",63,311,Left,19.678211552156633,35.14425244614962,0.9839105776078315,0.5520446265036438,Left,Correct,0.0,0.0,-45,45,548,-1,-1
"{'cat': 'II', 'resp': 'button'}",63,312,Right,41.800812310131874,23.67387093342761,2.090040615506594,0.3718682950324456,Right,Correct,0.0,0.0,-45,45,373,-1,-1
"{'cat': 'II', 'resp': 'button'}",63,313,Left,35.75015650741722,64.32538630670228,1.7875078253708612,1.010420805302307,Right,Incorrect,0.0,0.0,-45,45,659,-1,-1
"{'cat': 'II', 'resp': 'button'}",63,314,Left,41.47112528702473,62.97079436570333,2.073556264351237,0.9891429248500355,Left,Correct,0.0,0.0,-45,45,397,-1,-1
"{'cat': 'II', 'resp': 'button'}",63,315,Left,16.831041794993595,32.31168627501772,0.8415520897496798,0.5075507811334691,Left,Correct,0.0,0.0,-45,45,560,-1,-1
"{'cat': 'II', 'resp': 'button'}",63,316,Left,47.664620113734365,64.47149155664329,2.3832310056867185,1.0127158212016347,Left,Correct,0.0,0.0,-45,45,501,-1,-1
"{'cat': 'II', 'resp': 'button'}",63,317,Right,64.21229525457554,41.78564837503865,3.210614762728777,0.6563674298025385,Right,Correct,0.0,0.0,-45,45,512,-1,-1
"{'cat': 'II', 'resp': 'button'}",63,318,Right,45.41689678611232,28.796280312309296,2.270844839305616,0.45233091339931636,Right,Correct,0.0,0.0,-45,45,920,-1,-1
"{'cat': 'II', 'resp': 'button'}",63,319,Left,14.751003214795382,38.04476719270504,0.7375501607397692,0.5976058056006807,Left,Correct,0.0,0.0,-45,45,835,-1,-1
"{'cat': 'II', 'resp': 'button'}",63,320,Right,74.70433924924168,64.49961370957521,3.735216962462084,1.013157562946905,Right,Correct,0.0,0.0,-45,45,1046,-1,-1
"{'cat': 'II', 'resp': 'button'}",63,321,Left,17.38726062337813,47.19540583832803,0.8693630311689065,0.741343701324401,Left,Correct,0.0,0.0,-45,45,408,-1,-1
"{'cat': 'II', 'resp': 'button'}",63,322,Right,64.65021098473379,43.938481471254654,3.2325105492366895,0.6901840529999244,Right,Correct,0.0,0.0,-45,45,386,-1,-1
"{'cat': 'II', 'resp': 'button'}",63,323,Left,63.878859387106345,80.3349225105968,3.193942969355317,1.261898011929981,Left,Correct,0.0,0.0,-45,45,973,-1,-1
"{'cat': 'II', 'resp': 'button'}",63,324,Right,62.972636879684266,32.74756405864442,3.148631843984213,0.5143975333479923,Right,Correct,0.0,0.0,-45,45,592,-1,-1
"{'cat': 'II', 'resp': 'button'}",63,325,Right,78.24225769097093,52.89484833215748,3.9121128845485464,0.8308703346652613,Right,Correct,0.0,0.0,-45,45,803,-1,-1
"{'cat': 'II', 'resp': 'button'}",63,326,Left,49.317511726087744,70.85111610777008,2.465875586304387,1.11292672931404,Left,Correct,0.0,0.0,-45,45,974,-1,-1
"{'cat': 'II', 'resp': 'button'}",63,327,Left,57.45885504641768,73.51385727187586,2.872942752320884,1.1547529697118688,Right,Incorrect,0.0,0.0,-45,45,511,-1,-1
"{'cat': 'II', 'resp': 'button'}",63,328,Right,45.42307743584996,34.50077115435682,2.271153871792498,0.5419368460085502,Right,Correct,0.0,0.0,-45,45,712,-1,-1
"{'cat': 'II', 'resp': 'button'}",63,329,Right,41.28341196696386,13.234475257941554,2.064170598348193,0.20788665122232536,Right,Correct,0.0,0.0,-45,45,387,-1,-1
"{'cat': 'II', 'resp': 'button'}",63,330,Left,46.86420405492278,77.44033757418721,2.343210202746139,1.2164299780729009,Left,Correct,0.0,0.0,-45,45,848,-1,-1
"{'cat': 'II', 'resp': 'button'}",63,331,Left,57.150501922900986,82.80744468143136,2.857525096145049,1.3007362993686395,Right,Incorrect,0.0,0.0,-45,45,949,-1,-1
"{'cat': 'II', 'resp': 'button'}",63,332,Right,58.39424363146904,38.86429661469208,2.9197121815734524,0.6104789436582565,Right,Correct,0.0,0.0,-45,45,631,-1,-1
"{'cat': 'II', 'resp': 'button'}",63,333,Right,35.777827746756394,10.726677986432293,1.7888913873378198,0.1684942637979952,Left,Incorrect,0.0,0.0,-45,45,695,-1,-1
"{'cat': 'II', 'resp': 'button'}",63,334,Left,13.171287146689544,33.147890328526124,0.6585643573344772,0.5206858436904891,Left,Correct,0.0,0.0,-45,45,521,-1,-1
"{'cat': 'II', 'resp': 'button'}",63,335,Right,65.31945325326929,43.21535855285002,3.265972662663464,0.6788252647594124,Right,Correct,0.0,0.0,-45,45,447,-1,-1
"{'cat': 'II', 'resp': 'button'}",63,336,Left,59.61438448595345,80.37435935636196,2.9807192242976726,1.262517484454664,Right,Incorrect,0.0,0.0,-45,45,408,-1,-1
"{'cat': 'II', 'resp': 'button'}",63,337,Right,63.53035386212126,55.358044967587375,3.1765176931060632,0.8695621369363297,Right,Correct,0.0,0.0,-45,45,623,-1,-1
"{'cat': 'II', 'resp': 'button'}",63,338,Right,75.62968823155418,60.393866849341634,3.781484411577709,0.9486646420788591,Right,Correct,0.0,0.0,-45,45,554,-1,-1
"{'cat': 'II', 'resp': 'button'}",63,339,Right,71.12770769439248,46.52939576036102,3.5563853847196243,0.7308820394836112,Right,Correct,0.0,0.0,-45,45,486,-1,-1
"{'cat': 'II', 'resp': 'button'}",63,340,Left,25.711237111469494,52.946293329552695,1.2855618555734747,0.8316784307946651,Left,Correct,0.0,0.0,-45,45,596,-1,-1
"{'cat': 'II', 'resp': 'button'}",63,341,Right,57.837670592560755,45.51788085724188,2.891883529628038,0.7149932005404327,Right,Correct,0.0,0.0,-45,45,489,-1,-1
"{'cat': 'II', 'resp': 'button'}",63,342,Right,82.34598910937711,60.08848078495724,4.117299455468856,0.9438676489969656,Right,Correct,0.0,0.0,-45,45,513,-1,-1
"{'cat': 'II', 'resp': 'button'}",63,343,Left,30.673912960823316,42.900346641232005,1.5336956480411659,0.6738770692227501,Left,Correct,0.0,0.0,-45,45,952,-1,-1
"{'cat': 'II', 'resp': 'button'}",63,344,Right,37.79049689527881,20.840068837138947,1.8895248447639403,0.3273550357953065,Left,Incorrect,0.0,0.0,-45,45,734,-1,-1
"{'cat': 'II', 'resp': 'button'}",63,345,Left,58.45034084184144,85.6125427449928,2.922517042092072,1.3447986767140576,Right,Incorrect,0.0,0.0,-45,45,367,-1,-1
"{'cat': 'II', 'resp': 'button'}",63,346,Left,60.590228807181745,72.59578924869373,3.0295114403590873,1.1403319909262457,Right,Incorrect,0.0,0.0,-45,45,649,-1,-1
"{'cat': 'II', 'resp': 'button'}",63,347,Left,64.2694564689381,80.06700355861148,3.2134728234469048,1.2576895508734083,Left,Correct,0.0,0.0,-45,45,679,-1,-1
"{'cat': 'II', 'resp': 'button'}",63,348,Right,71.87762038878463,39.23258909220493,3.5938810194392317,0.6162640683668903,Left,Incorrect,0.0,0.0,-45,45,390,-1,-1
"{'cat': 'II', 'resp': 'button'}",63,349,Right,37.707451758097875,18.647106112102694,1.8853725879048937,0.29290805786245583,Right,Correct,0.0,0.0,-45,45,665,-1,-1
"{'cat': 'II', 'resp': 'button'}",63,350,Right,44.31882518847519,35.36563665507674,2.2159412594237593,0.555522121525575,Right,Correct,0.0,0.0,-45,45,487,-1,-1
"{'cat': 'II', 'resp': 'button'}",63,351,Right,49.826703415214325,40.36074231900973,2.491335170760716,0.6339850578141581,Right,Correct,0.0,0.0,-45,45,442,-1,-1
"{'cat': 'II', 'resp': 'button'}",63,352,Right,67.2305377547645,34.20348404276596,3.3615268877382247,0.5372670709796462,Right,Correct,0.0,0.0,-45,45,486,-1,-1
"{'cat': 'II', 'resp': 'button'}",63,353,Right,44.280776791170936,21.390253312277395,2.2140388395585466,0.33599731332137706,Right,Correct,0.0,0.0,-45,45,589,-1,-1
"{'cat': 'II', 'resp': 'button'}",63,354,Right,80.23781521097777,59.19993363369176,4.011890760548889,0.9299103829830465,Right,Correct,0.0,0.0,-45,45,520,-1,-1
"{'cat': 'II', 'resp': 'button'}",63,355,Left,54.1827474737867,70.34595824898638,2.7091373736893347,1.1049917282237496,Right,Incorrect,0.0,0.0,-45,45,637,-1,-1
"{'cat': 'II', 'resp': 'button'}",63,356,Left,59.99005875581698,74.2896612745454,2.999502937790849,1.1669392704889296,Left,Correct,0.0,0.0,-45,45,635,-1,-1
"{'cat': 'II', 'resp': 'button'}",63,357,Left,63.24818106389091,87.75002592904708,3.1624090531945455,1.3783741840550408,Left,Correct,0.0,0.0,-45,45,721,-1,-1
"{'cat': 'II', 'resp': 'button'}",63,358,Left,21.092674273244626,52.48880166154332,1.0546337136622312,0.8244921684781812,Left,Correct,0.0,0.0,-45,45,542,-1,-1
"{'cat': 'II', 'resp': 'button'}",63,359,Right,69.00940504803697,57.65464316696573,3.4504702524018485,0.9056370170934025,Left,Incorrect,0.0,0.0,-45,45,628,-1,-1
"{'cat': 'II', 'resp': 'button'}",63,360,Right,34.90983201303501,19.922084415501878,1.7454916006517505,0.31293537021968204,Left,Incorrect,0.0,0.0,-45,45,531,-1,-1
"{'cat': 'II', 'resp': 'button'}",63,361,Left,57.18247831361052,81.12509393267547,2.859123915680526,1.2743099956033759,Right,Incorrect,0.0,0.0,-45,45,426,-1,-1
"{'cat': 'II', 'resp': 'button'}",63,362,Left,47.28526562452277,70.65471684182504,2.3642632812261386,1.1098416968587228,Right,Incorrect,0.0,0.0,-45,45,701,-1,-1
"{'cat': 'II', 'resp': 'button'}",63,363,Right,54.152600896853436,37.0621140906789,2.707630044842672,0.5821703267689179,Right,Correct,0.0,0.0,-45,45,667,-1,-1
"{'cat': 'II', 'resp': 'button'}",63,364,Right,79.08240144380213,47.61680445243035,3.9541200721901064,0.7479630152758847,Right,Correct,0.0,0.0,-45,45,631,-1,-1
"{'cat': 'II', 'resp': 'button'}",63,365,Right,85.17577217063027,64.1493419708108,4.258788608531513,1.0076555073405928,Right,Correct,0.0,0.0,-45,45,462,-1,-1
"{'cat': 'II', 'resp': 'button'}",63,366,Left,14.349715294687169,33.86286270247764,0.7174857647343584,0.5319166034781178,Left,Correct,0.0,0.0,-45,45,689,-1,-1
"{'cat': 'II', 'resp': 'button'}",63,367,Right,64.26949374119205,31.671476224511128,3.2134746870596023,0.49749438517633976,Right,Correct,0.0,0.0,-45,45,540,-1,-1
"{'cat': 'II', 'resp': 'button'}",63,368,Left,57.147818060376174,71.19713964239233,2.8573909030188087,1.1183620542857318,Right,Incorrect,0.0,0.0,-45,45,1149,-1,-1
"{'cat': 'II', 'resp': 'button'}",63,369,Right,63.93950277479086,53.33765161590449,3.1969751387395426,0.8378258723812866,Right,Correct,0.0,0.0,-45,45,396,-1,-1
"{'cat': 'II', 'resp': 'button'}",63,370,Left,53.66697835096328,64.83523696607591,2.683348917548164,1.0184295207318874,Right,Incorrect,0.0,0.0,-45,45,414,-1,-1
"{'cat': 'II', 'resp': 'button'}",63,371,Left,32.627878319478526,63.16261425831576,1.6313939159739264,0.9921560246772537,Left,Correct,0.0,0.0,-45,45,3398,-1,-1
"{'cat': 'II', 'resp': 'button'}",63,372,Right,69.27608322734238,45.69286454074106,3.4638041613671193,0.7177418378133283,Right,Correct,0.0,0.0,-45,45,2298,-1,-1
"{'cat': 'II', 'resp': 'button'}",63,373,Left,46.78233792108275,71.75172662217034,2.3391168960541378,1.1270734861929677,Left,Correct,0.0,0.0,-45,45,626,-1,-1
"{'cat': 'II', 'resp': 'button'}",63,374,Right,47.68305497399236,23.99039671355867,2.384152748699618,0.3768402703601031,Right,Correct,0.0,0.0,-45,45,586,-1,-1
"{'cat': 'II', 'resp': 'button'}",63,375,Left,16.757003786034975,31.36361638730575,0.8378501893017487,0.49265853416184097,Left,Correct,0.0,0.0,-45,45,651,-1,-1
"{'cat': 'II', 'resp': 'button'}",63,376,Left,38.362703501193586,58.35575164062812,1.9181351750596791,0.9166500032445393,Left,Correct,0.0,0.0,-45,45,594,-1,-1
"{'cat': 'II', 'resp': 'button'}",63,377,Right,85.66225078673286,61.48335306608199,4.283112539336643,0.9657782515523533,Right,Correct,0.0,0.0,-45,45,1243,-1,-1
"{'cat': 'II', 'resp': 'button'}",63,378,Right,53.994699571243785,46.45492643889805,2.6997349785621894,0.729712278117482,Right,Correct,0.0,0.0,-45,45,405,-1,-1
"{'cat': 'II', 'resp': 'button'}",63,379,Left,44.13161825738049,50.99577668597442,2.2065809128690246,0.8010397870038143,Right,Incorrect,0.0,0.0,-45,45,440,-1,-1
"{'cat': 'II', 'resp': 'button'}",63,380,Left,63.47437603374747,83.81232658967754,3.1737188016873734,1.316520947471997,Right,Incorrect,0.0,0.0,-45,45,544,-1,-1
"{'cat': 'II', 'resp': 'button'}",63,381,Right,87.14336469386521,66.5414940084172,4.357168234693261,1.0452313436786635,Right,Correct,0.0,0.0,-45,45,604,-1,-1
"{'cat': 'II', 'resp': 'button'}",63,382,Right,64.79351714812134,43.98202356367179,3.239675857406067,0.6908680105882223,Right,Correct,0.0,0.0,-45,45,487,-1,-1
"{'cat': 'II', 'resp': 'button'}",63,383,Right,76.34937380713265,60.863981109952995,3.8174686903566326,0.9560491796162813,Right,Correct,0.0,0.0,-45,45,487,-1,-1
"{'cat': 'II', 'resp': 'button'}",63,384,Right,54.00609685851296,22.508369153458005,2.700304842925648,0.3535606358839539,Left,Incorrect,0.0,0.0,-45,45,772,-1,-1
"{'cat': 'II', 'resp': 'button'}",63,385,Left,34.85453709475476,57.208512834202075,1.7427268547377381,0.8986292182136331,Left,Correct,0.0,0.0,-45,45,461,-1,-1
"{'cat': 'II', 'resp': 'button'}",63,386,Left,40.27494169425232,64.22645872974553,2.013747084712616,1.008866854557283,Left,Correct,0.0,0.0,-45,45,525,-1,-1
"{'cat': 'II', 'resp': 'button'}",63,387,Right,76.42982257236976,56.84156631158774,3.821491128618488,0.8928652357151055,Right,Correct,0.0,0.0,-45,45,643,-1,-1
"{'cat': 'II', 'resp': 'button'}",63,388,Left,60.781080157157064,72.50501755577474,3.039054007857853,1.1389061525081046,Left,Correct,0.0,0.0,-45,45,1307,-1,-1
"{'cat': 'II', 'resp': 'button'}",63,389,Right,54.021286575529665,29.22567689172184,2.7010643287764835,0.4590758590961115,Right,Correct,0.0,0.0,-45,45,503,-1,-1
"{'cat': 'II', 'resp': 'button'}",63,390,Right,76.46635415130875,53.00599453227116,3.823317707565437,0.8326162150940191,Right,Correct,0.0,0.0,-45,45,350,-1,-1
"{'cat': 'II', 'resp': 'button'}",63,391,Left,35.25354607141947,59.82572362424355,1.7626773035709735,0.9397402691680843,Left,Correct,0.0,0.0,-45,45,620,-1,-1
"{'cat': 'II', 'resp': 'button'}",63,392,Left,34.54216839250976,46.88029416637383,1.7271084196254878,0.7363939387560424,Left,Correct,0.0,0.0,-45,45,534,-1,-1
"{'cat': 'II', 'resp': 'button'}",63,393,Right,35.00827758691975,18.538711373705276,1.7504138793459876,0.2912053972932702,Left,Incorrect,0.0,0.0,-45,45,479,-1,-1
"{'cat': 'II', 'resp': 'button'}",63,394,Right,58.03032102259575,29.174001552629026,2.9015160511297875,0.4582641447677828,Right,Correct,0.0,0.0,-45,45,446,-1,-1
"{'cat': 'II', 'resp': 'button'}",63,395,Left,21.63313855075881,33.25472537866456,1.0816569275379406,0.5223640047337932,Left,Correct,0.0,0.0,-45,45,476,-1,-1
"{'cat': 'II', 'resp': 'button'}",63,396,Left,15.68330142064925,32.08688543262836,0.7841650710324626,0.504019617758613,Left,Correct,0.0,0.0,-45,45,618,-1,-1
"{'cat': 'II', 'resp': 'button'}",63,397,Left,65.16385514850035,88.12382472945961,3.2581927574250176,1.3842458018815245,Left,Correct,0.0,0.0,-45,45,1590,-1,-1
"{'cat': 'II', 'resp': 'button'}",63,398,Left,56.78971262759019,67.64877295367917,2.8394856313795094,1.062624440678212,Right,Incorrect,0.0,0.0,-45,45,696,-1,-1
"{'cat': 'II', 'resp': 'button'}",63,399,Right,44.55168992105378,28.58818655497761,2.227584496052689,0.44906218430286077,Right,Correct,0.0,0.0,-45,45,375,-1,-1
