condition,subject,trial,cat,x,y,xt,yt,resp,fb,rotation,su,target_angle_left,target_angle_right,rt,mt,ep
"{'cat': 'II', 'resp': 'button'}",47,0,Left,31.70349069095988,44.01629395836386,1.5851745345479942,0.6914063286892235,Left,Correct,0.0,0.0,-45,45,7077,-1,-1
"{'cat': 'II', 'resp': 'button'}",47,1,Left,64.00137580717558,87.45749491162601,3.200068790358779,1.373779117578655,Right,Incorrect,0.0,0.0,-45,45,3396,-1,-1
"{'cat': 'II', 'resp': 'button'}",47,2,Left,69.86003405510073,86.64601157041508,3.4930017027550364,1.3610323670623612,Right,Incorrect,0.0,0.0,-45,45,3874,-1,-1
"{'cat': 'II', 'resp': 'button'}",47,3,Left,66.2999948130673,79.86585215922622,3.314999740653365,1.2545298720805682,Right,Incorrect,0.0,0.0,-45,45,7493,-1,-1
"{'cat': 'II', 'resp': 'button'}",47,4,Left,33.651399205827865,59.87674306873346,1.682569960291393,0.9405416807280831,Left,Correct,0.0,0.0,-45,45,1473,-1,-1
"{'cat': 'II', 'resp': 'button'}",47,5,Right,42.81960989591991,18.505553145467182,2.1409804947959956,0.2906845490620759,Left,Incorrect,0.0,0.0,-45,45,4952,-1,-1
"{'cat': 'II', 'resp': 'button'}",47,6,Right,81.7233142358988,50.67469830232939,4.08616571179494,0.7959962995473859,Right,Correct,0.0,0.0,-45,45,8837,-1,-1
"{'cat': 'II', 'resp': 'button'}",47,7,Right,44.806108550940145,34.09563884670612,2.2403054275470073,0.5355730426013136,Left,Incorrect,0.0,0.0,-45,45,2982,-1,-1
"{'cat': 'II', 'resp': 'button'}",47,8,Right,40.109576118462584,23.803186026461752,2.005478805923129,0.37389957176381733,Right,Correct,0.0,0.0,-45,45,11226,-1,-1
"{'cat': 'II', 'resp': 'button'}",47,9,Left,53.5202252369844,64.32676056707349,2.67601126184922,1.0104423921337387,Right,Incorrect,0.0,0.0,-45,45,2718,-1,-1
"{'cat': 'II', 'resp': 'button'}",47,10,Right,68.63492441166953,42.67415567411922,3.431746220583477,0.6703240698198006,Left,Incorrect,0.0,0.0,-45,45,4078,-1,-1
"{'cat': 'II', 'resp': 'button'}",47,11,Right,58.84151679839947,27.91451974375037,2.9420758399199736,0.4384802507772669,Right,Correct,0.0,0.0,-45,45,5610,-1,-1
"{'cat': 'II', 'resp': 'button'}",47,12,Right,47.31072860755074,34.589507180835575,2.3655364303775372,0.5433307082530222,Right,Correct,0.0,0.0,-45,45,1595,-1,-1
"{'cat': 'II', 'resp': 'button'}",47,13,Right,45.552359596730795,30.151649721175268,2.27761797983654,0.47362100628828474,Left,Incorrect,0.0,0.0,-45,45,5260,-1,-1
"{'cat': 'II', 'resp': 'button'}",47,14,Right,54.527671820965494,36.57482773771532,2.726383591048275,0.5745160506355932,Right,Correct,0.0,0.0,-45,45,5856,-1,-1
"{'cat': 'II', 'resp': 'button'}",47,15,Right,49.72829580881704,38.60034248448298,2.4864147904408522,0.6063327618765085,Left,Incorrect,0.0,0.0,-45,45,1256,-1,-1
"{'cat': 'II', 'resp': 'button'}",47,16,Left,52.5553051660333,67.21072865840657,2.627765258301665,1.0557436569783354,Right,Incorrect,0.0,0.0,-45,45,7149,-1,-1
"{'cat': 'II', 'resp': 'button'}",47,17,Right,66.6380594380113,56.5576670586652,3.331902971900565,0.8884057566784003,Right,Correct,0.0,0.0,-45,45,8784,-1,-1
"{'cat': 'II', 'resp': 'button'}",47,18,Right,77.81312833465665,47.032103798325636,3.8906564167328326,0.7387785588784621,Left,Incorrect,0.0,0.0,-45,45,1598,-1,-1
"{'cat': 'II', 'resp': 'button'}",47,19,Right,36.47074677183164,13.61402139174324,1.823537338591582,0.21384854795057429,Right,Correct,0.0,0.0,-45,45,4064,-1,-1
"{'cat': 'II', 'resp': 'button'}",47,20,Left,61.14584168334665,82.79006757207623,3.057292084167333,1.300463340373186,Left,Correct,0.0,0.0,-45,45,4213,-1,-1
"{'cat': 'II', 'resp': 'button'}",47,21,Left,69.14103660665293,83.36200748286039,3.457051830332647,1.309447351483258,Left,Correct,0.0,0.0,-45,45,1535,-1,-1
"{'cat': 'II', 'resp': 'button'}",47,22,Right,58.88795125364787,41.39498209153889,2.9443975626823935,0.6502308581712981,Left,Incorrect,0.0,0.0,-45,45,1334,-1,-1
"{'cat': 'II', 'resp': 'button'}",47,23,Right,62.960598848288484,52.14690896082926,3.1480299424144245,0.8191217304937848,Right,Correct,0.0,0.0,-45,45,1683,-1,-1
"{'cat': 'II', 'resp': 'button'}",47,24,Right,58.71518932442448,39.17625368119599,2.935759466221224,0.615379153800077,Right,Correct,0.0,0.0,-45,45,2877,-1,-1
"{'cat': 'II', 'resp': 'button'}",47,25,Right,56.65068457961176,38.605371080337626,2.832534228980588,0.6064117508754828,Left,Incorrect,0.0,0.0,-45,45,4277,-1,-1
"{'cat': 'II', 'resp': 'button'}",47,26,Right,56.325775054770794,36.30585435618597,2.8162887527385396,0.5702910266384742,Right,Correct,0.0,0.0,-45,45,305,-1,-1
"{'cat': 'II', 'resp': 'button'}",47,27,Left,62.32292016154044,74.68542282886288,3.116146008077022,1.1731558784470153,Right,Incorrect,0.0,0.0,-45,45,5727,-1,-1
"{'cat': 'II', 'resp': 'button'}",47,28,Left,45.33380135563128,55.53351726377597,2.266690067781564,0.8723184493194026,Left,Correct,0.0,0.0,-45,45,515,-1,-1
"{'cat': 'II', 'resp': 'button'}",47,29,Left,64.69405901241473,76.96290759537432,3.2347029506207368,1.2089305255026903,Left,Correct,0.0,0.0,-45,45,3494,-1,-1
"{'cat': 'II', 'resp': 'button'}",47,30,Right,68.10776563719162,52.80500290638356,3.405388281859581,0.8294590460174114,Right,Correct,0.0,0.0,-45,45,1423,-1,-1
"{'cat': 'II', 'resp': 'button'}",47,31,Left,40.26900174244631,68.79829424695033,2.0134500871223153,1.0806810789286405,Right,Incorrect,0.0,0.0,-45,45,585,-1,-1
"{'cat': 'II', 'resp': 'button'}",47,32,Right,34.50372173886446,15.395913086006189,1.7251860869432232,0.24183843723152,Left,Incorrect,0.0,0.0,-45,45,1349,-1,-1
"{'cat': 'II', 'resp': 'button'}",47,33,Left,23.674563893135588,34.88901634081874,1.1837281946567793,0.5480353871364521,Right,Incorrect,0.0,0.0,-45,45,11272,-1,-1
"{'cat': 'II', 'resp': 'button'}",47,34,Right,86.45938555820348,68.25072049215932,4.3229692779101745,1.0720798105018903,Left,Incorrect,0.0,0.0,-45,45,8680,-1,-1
"{'cat': 'II', 'resp': 'button'}",47,35,Right,64.32950643172205,48.31766423847239,3.2164753215861026,0.7589720950510156,Right,Correct,0.0,0.0,-45,45,3639,-1,-1
"{'cat': 'II', 'resp': 'button'}",47,36,Left,50.357480551512666,74.19534456844463,2.5178740275756333,1.1654577471339451,Right,Incorrect,0.0,0.0,-45,45,4637,-1,-1
"{'cat': 'II', 'resp': 'button'}",47,37,Left,40.87218774616821,61.57136535460751,2.0436093873084102,0.9671607453476402,Left,Correct,0.0,0.0,-45,45,3632,-1,-1
"{'cat': 'II', 'resp': 'button'}",47,38,Left,49.9431882694481,62.78850232630528,2.497159413472405,0.9862794881911314,Left,Correct,0.0,0.0,-45,45,4938,-1,-1
"{'cat': 'II', 'resp': 'button'}",47,39,Left,59.01125457177264,79.38310537854747,2.9505627285886318,1.2469469033819456,Right,Incorrect,0.0,0.0,-45,45,3275,-1,-1
"{'cat': 'II', 'resp': 'button'}",47,40,Left,38.062448900859366,63.51878078978366,1.9031224450429682,0.9977506754708241,Left,Correct,0.0,0.0,-45,45,1215,-1,-1
"{'cat': 'II', 'resp': 'button'}",47,41,Right,67.91876328620887,49.97783018790998,3.395938164310444,0.7850499208034809,Right,Correct,0.0,0.0,-45,45,1683,-1,-1
"{'cat': 'II', 'resp': 'button'}",47,42,Left,48.04244849017674,59.314406201849756,2.4021224245088373,0.9317085138788603,Left,Correct,0.0,0.0,-45,45,835,-1,-1
"{'cat': 'II', 'resp': 'button'}",47,43,Left,57.6639723594035,82.14845357524268,2.8831986179701747,1.290384891278723,Left,Correct,0.0,0.0,-45,45,1822,-1,-1
"{'cat': 'II', 'resp': 'button'}",47,44,Right,44.55909462147963,24.857390054611404,2.2279547310739813,0.39045896991491585,Right,Correct,0.0,0.0,-45,45,2086,-1,-1
"{'cat': 'II', 'resp': 'button'}",47,45,Left,24.8867344627544,39.57334073412571,1.24433672313772,0.6216165826416753,Left,Correct,0.0,0.0,-45,45,755,-1,-1
"{'cat': 'II', 'resp': 'button'}",47,46,Right,75.77075683617204,53.85904492514243,3.788537841808602,0.8460158993309504,Left,Incorrect,0.0,0.0,-45,45,2139,-1,-1
"{'cat': 'II', 'resp': 'button'}",47,47,Right,31.698699616229515,16.669423480789344,1.5849349808114759,0.261842691734125,Left,Incorrect,0.0,0.0,-45,45,1504,-1,-1
"{'cat': 'II', 'resp': 'button'}",47,48,Right,73.74958425000052,51.205292967992904,3.687479212500026,0.804330861065798,Right,Correct,0.0,0.0,-45,45,1099,-1,-1
"{'cat': 'II', 'resp': 'button'}",47,49,Right,40.69820396580973,12.997805633609353,2.0349101982904867,0.20416905345667583,Left,Incorrect,0.0,0.0,-45,45,1127,-1,-1
"{'cat': 'II', 'resp': 'button'}",47,50,Left,22.08864674184645,45.89453476898585,1.1044323370923224,0.7209096663508363,Left,Correct,0.0,0.0,-45,45,1041,-1,-1
"{'cat': 'II', 'resp': 'button'}",47,51,Left,26.52498901437247,36.817750447544896,1.3262494507186235,0.5783318716385468,Left,Correct,0.0,0.0,-45,45,1160,-1,-1
"{'cat': 'II', 'resp': 'button'}",47,52,Right,31.006470962388654,11.369982464340623,1.5503235481194326,0.17859926690708636,Left,Incorrect,0.0,0.0,-45,45,3356,-1,-1
"{'cat': 'II', 'resp': 'button'}",47,53,Left,30.563540246421873,51.11217970357679,1.5281770123210936,0.8028682413285908,Left,Correct,0.0,0.0,-45,45,1205,-1,-1
"{'cat': 'II', 'resp': 'button'}",47,54,Right,82.22654796942032,52.962464007824636,4.111327398471016,0.8319324392149786,Right,Correct,0.0,0.0,-45,45,1916,-1,-1
"{'cat': 'II', 'resp': 'button'}",47,55,Right,39.18133539370537,18.71600243251544,1.9590667696852682,0.293990278732796,Left,Incorrect,0.0,0.0,-45,45,1031,-1,-1
"{'cat': 'II', 'resp': 'button'}",47,56,Left,17.003897822482212,47.18243484826783,0.8501948911241106,0.7411399534889864,Left,Correct,0.0,0.0,-45,45,596,-1,-1
"{'cat': 'II', 'resp': 'button'}",47,57,Left,22.919894687527737,48.20492483159636,1.145994734376387,0.7572011885889565,Right,Incorrect,0.0,0.0,-45,45,1547,-1,-1
"{'cat': 'II', 'resp': 'button'}",47,58,Right,83.38020721795814,65.43286913019276,4.169010360897907,1.0278171048135798,Right,Correct,0.0,0.0,-45,45,1868,-1,-1
"{'cat': 'II', 'resp': 'button'}",47,59,Right,57.834979321282724,27.103697221733647,2.891748966064136,0.42574388038460254,Left,Incorrect,0.0,0.0,-45,45,1596,-1,-1
"{'cat': 'II', 'resp': 'button'}",47,60,Right,69.38753174383427,56.56878548670823,3.469376587191714,0.8885804045376975,Right,Correct,0.0,0.0,-45,45,1428,-1,-1
"{'cat': 'II', 'resp': 'button'}",47,61,Right,55.894164526199354,35.787584069604236,2.794708226309968,0.5621500560139788,Right,Correct,0.0,0.0,-45,45,4683,-1,-1
"{'cat': 'II', 'resp': 'button'}",47,62,Right,66.55324054293395,42.013587846630706,3.3276620271466975,0.6599478946496222,Right,Correct,0.0,0.0,-45,45,2445,-1,-1
"{'cat': 'II', 'resp': 'button'}",47,63,Right,69.55845091739776,60.94038192911839,3.477922545869888,0.9572492808773725,Left,Incorrect,0.0,0.0,-45,45,984,-1,-1
"{'cat': 'II', 'resp': 'button'}",47,64,Right,66.42663775330558,51.391855792424074,3.3213318876652793,0.8072613830591276,Right,Correct,0.0,0.0,-45,45,3207,-1,-1
"{'cat': 'II', 'resp': 'button'}",47,65,Left,14.907002942794147,41.70559525127088,0.7453501471397074,0.6551099582749097,Left,Correct,0.0,0.0,-45,45,1014,-1,-1
"{'cat': 'II', 'resp': 'button'}",47,66,Right,55.72605295388003,48.85483499217416,2.786302647694001,0.7674099535187796,Right,Correct,0.0,0.0,-45,45,3004,-1,-1
"{'cat': 'II', 'resp': 'button'}",47,67,Right,81.01758216978291,51.9841361380944,4.050879108489146,0.8165649009732451,Right,Correct,0.0,0.0,-45,45,3511,-1,-1
"{'cat': 'II', 'resp': 'button'}",47,68,Left,33.90850562547618,67.02836260513999,1.695425281273809,1.052879057712303,Left,Correct,0.0,0.0,-45,45,1603,-1,-1
"{'cat': 'II', 'resp': 'button'}",47,69,Right,45.511833127374544,26.289404499401,2.275591656368727,0.4129530002128432,Right,Correct,0.0,0.0,-45,45,2853,-1,-1
"{'cat': 'II', 'resp': 'button'}",47,70,Left,18.24904073506747,41.553171053908514,0.9124520367533735,0.6527156845815951,Left,Correct,0.0,0.0,-45,45,801,-1,-1
"{'cat': 'II', 'resp': 'button'}",47,71,Right,84.89692695518947,68.42980919914694,4.244846347759474,1.0748929293329563,Right,Correct,0.0,0.0,-45,45,954,-1,-1
"{'cat': 'II', 'resp': 'button'}",47,72,Left,23.023381602997535,44.33025847771616,1.1511690801498766,0.6963380718266486,Left,Correct,0.0,0.0,-45,45,668,-1,-1
"{'cat': 'II', 'resp': 'button'}",47,73,Right,72.19854611364923,57.58140126713711,3.6099273056824615,0.9044865360212198,Right,Correct,0.0,0.0,-45,45,863,-1,-1
"{'cat': 'II', 'resp': 'button'}",47,74,Left,14.936098533529691,39.43202915567308,0.7468049266764845,0.6193968655580053,Left,Correct,0.0,0.0,-45,45,551,-1,-1
"{'cat': 'II', 'resp': 'button'}",47,75,Right,45.061923667891904,19.811285528651894,2.2530961833945953,0.3111949453749128,Right,Correct,0.0,0.0,-45,45,561,-1,-1
"{'cat': 'II', 'resp': 'button'}",47,76,Left,56.45161619335444,81.99227580495118,2.8225808096677216,1.2879316565997136,Left,Correct,0.0,0.0,-45,45,552,-1,-1
"{'cat': 'II', 'resp': 'button'}",47,77,Left,23.437681313465024,53.03578914471559,1.1718840656732512,0.8330842277718788,Right,Incorrect,0.0,0.0,-45,45,604,-1,-1
"{'cat': 'II', 'resp': 'button'}",47,78,Left,62.9056181941217,75.65153135316105,3.145280909706085,1.1883314756595431,Right,Incorrect,0.0,0.0,-45,45,1263,-1,-1
"{'cat': 'II', 'resp': 'button'}",47,79,Left,58.00411421445935,81.48148339181878,2.9002057107229677,1.279908148136683,Left,Correct,0.0,0.0,-45,45,331,-1,-1
"{'cat': 'II', 'resp': 'button'}",47,80,Right,50.4769798709747,25.61459983034923,2.523848993548735,0.40235319325833757,Right,Correct,0.0,0.0,-45,45,3964,-1,-1
"{'cat': 'II', 'resp': 'button'}",47,81,Right,47.04097171231718,36.162611792305675,2.352048585615859,0.5680409777066356,Left,Incorrect,0.0,0.0,-45,45,2103,-1,-1
"{'cat': 'II', 'resp': 'button'}",47,82,Right,40.642695690068365,30.90373237213268,2.0321347845034183,0.48543469294398545,Left,Incorrect,0.0,0.0,-45,45,1756,-1,-1
"{'cat': 'II', 'resp': 'button'}",47,83,Right,44.20905376981159,31.720563444637325,2.2104526884905793,0.49826544542700774,Right,Correct,0.0,0.0,-45,45,389,-1,-1
"{'cat': 'II', 'resp': 'button'}",47,84,Right,49.31465281873368,22.305960204143954,2.465732640936684,0.35038120354302466,Left,Incorrect,0.0,0.0,-45,45,340,-1,-1
"{'cat': 'II', 'resp': 'button'}",47,85,Right,84.96710886767315,64.58500475714627,4.248355443383657,1.0144988823855627,Right,Correct,0.0,0.0,-45,45,372,-1,-1
"{'cat': 'II', 'resp': 'button'}",47,86,Left,31.445764450205036,58.06294244542485,1.5722882225102517,0.9120505671617685,Left,Correct,0.0,0.0,-45,45,1209,-1,-1
"{'cat': 'II', 'resp': 'button'}",47,87,Right,52.17308447557162,40.150674852861876,2.608654223778581,0.6306853257721166,Left,Incorrect,0.0,0.0,-45,45,381,-1,-1
"{'cat': 'II', 'resp': 'button'}",47,88,Left,22.395313249222742,43.045802413431275,1.119765662461137,0.6761618831495674,Right,Incorrect,0.0,0.0,-45,45,1093,-1,-1
"{'cat': 'II', 'resp': 'button'}",47,89,Left,39.59607178816619,50.28671815414275,1.9798035894083097,0.7899019216309766,Right,Incorrect,0.0,0.0,-45,45,663,-1,-1
"{'cat': 'II', 'resp': 'button'}",47,90,Right,35.04111714227564,11.864922978474027,1.752055857113782,0.1863737743229137,Left,Incorrect,0.0,0.0,-45,45,6850,-1,-1
"{'cat': 'II', 'resp': 'button'}",47,91,Left,47.63537840792895,54.418317195990966,2.3817689203964476,0.8548009276182217,Right,Incorrect,0.0,0.0,-45,45,1697,-1,-1
"{'cat': 'II', 'resp': 'button'}",47,92,Right,73.22455494004052,47.31448214587494,3.6612277470020262,0.7432141475894307,Right,Correct,0.0,0.0,-45,45,1728,-1,-1
"{'cat': 'II', 'resp': 'button'}",47,93,Right,50.85163541947084,33.09939162460988,2.5425817709735417,0.5199240278308297,Right,Correct,0.0,0.0,-45,45,1368,-1,-1
"{'cat': 'II', 'resp': 'button'}",47,94,Left,50.85118098833033,78.26596742594222,2.5425590494165164,1.2293989414571909,Left,Correct,0.0,0.0,-45,45,1770,-1,-1
"{'cat': 'II', 'resp': 'button'}",47,95,Right,37.09416501653047,21.967088113689673,1.8547082508265234,0.3450582131936357,Left,Incorrect,0.0,0.0,-45,45,2150,-1,-1
"{'cat': 'II', 'resp': 'button'}",47,96,Right,67.44785153238517,57.10302383029939,3.3723925766192586,0.8969722008151574,Right,Correct,0.0,0.0,-45,45,6682,-1,-1
"{'cat': 'II', 'resp': 'button'}",47,97,Left,15.345843466846443,35.94317981439768,0.7672921733423221,0.5645941482578436,Left,Correct,0.0,0.0,-45,45,2541,-1,-1
"{'cat': 'II', 'resp': 'button'}",47,98,Right,65.0365018148798,45.98475796085369,3.25182509074399,0.7223268889346136,Left,Incorrect,0.0,0.0,-45,45,2703,-1,-1
"{'cat': 'II', 'resp': 'button'}",47,99,Left,43.08717793898146,63.50115219283255,2.154358896949073,0.9974737661174505,Left,Correct,0.0,0.0,-45,45,2298,-1,-1
"{'cat': 'II', 'resp': 'button'}",47,100,Right,82.4497986146921,58.010169071746034,4.122489930734605,0.9112216049464958,Right,Correct,0.0,0.0,-45,45,1600,-1,-1
"{'cat': 'II', 'resp': 'button'}",47,101,Left,42.750556328283906,69.56263577444864,2.1375278164141953,1.0926873275667517,Right,Incorrect,0.0,0.0,-45,45,1272,-1,-1
"{'cat': 'II', 'resp': 'button'}",47,102,Left,54.121545511424856,71.10062194305453,2.706077275571243,1.1168459578098269,Left,Correct,0.0,0.0,-45,45,959,-1,-1
"{'cat': 'II', 'resp': 'button'}",47,103,Right,65.5954921364994,32.64367801352137,3.27977460682497,0.5127656951671469,Right,Correct,0.0,0.0,-45,45,2516,-1,-1
"{'cat': 'II', 'resp': 'button'}",47,104,Right,75.37940966306681,47.378878799575176,3.7689704831533404,0.7442256878603329,Left,Incorrect,0.0,0.0,-45,45,979,-1,-1
"{'cat': 'II', 'resp': 'button'}",47,105,Left,25.05714611670622,51.47059603954969,1.252857305835311,0.8084982319686862,Right,Incorrect,0.0,0.0,-45,45,1663,-1,-1
"{'cat': 'II', 'resp': 'button'}",47,106,Left,38.097255251396675,56.984833077783854,1.9048627625698338,0.8951156648160321,Left,Correct,0.0,0.0,-45,45,1740,-1,-1
"{'cat': 'II', 'resp': 'button'}",47,107,Right,31.03821421645336,14.924256767018836,1.551910710822668,0.23442967709777066,Left,Incorrect,0.0,0.0,-45,45,1442,-1,-1
"{'cat': 'II', 'resp': 'button'}",47,108,Left,49.267673778366685,64.37225830195038,2.4633836889183343,1.0111570688819593,Right,Incorrect,0.0,0.0,-45,45,1408,-1,-1
"{'cat': 'II', 'resp': 'button'}",47,109,Right,87.70696170568004,67.71691688588254,4.3853480852840026,1.063694843062196,Left,Incorrect,0.0,0.0,-45,45,942,-1,-1
"{'cat': 'II', 'resp': 'button'}",47,110,Right,61.58478323701192,34.80405003006814,3.0792391618505963,0.5467007394481684,Right,Correct,0.0,0.0,-45,45,7178,-1,-1
"{'cat': 'II', 'resp': 'button'}",47,111,Right,63.530066957414945,50.10193105578111,3.176503347870747,0.7869992926775211,Left,Incorrect,0.0,0.0,-45,45,7548,-1,-1
"{'cat': 'II', 'resp': 'button'}",47,112,Right,76.13210594015584,43.83985650808005,3.806605297007792,0.6886348557010749,Right,Correct,0.0,0.0,-45,45,1262,-1,-1
"{'cat': 'II', 'resp': 'button'}",47,113,Left,63.29936936356111,72.85223740820715,3.164968468178056,1.1443602691960155,Right,Incorrect,0.0,0.0,-45,45,3592,-1,-1
"{'cat': 'II', 'resp': 'button'}",47,114,Right,86.39191427480921,63.37066555336014,4.31959571374046,0.9954240867776598,Left,Incorrect,0.0,0.0,-45,45,910,-1,-1
"{'cat': 'II', 'resp': 'button'}",47,115,Left,35.58484280693281,51.00034340624194,1.7792421403466405,0.8011115208780317,Right,Incorrect,0.0,0.0,-45,45,938,-1,-1
"{'cat': 'II', 'resp': 'button'}",47,116,Right,55.356872560772246,43.97376632071102,2.767843628038612,0.6907383061191,Right,Correct,0.0,0.0,-45,45,1406,-1,-1
"{'cat': 'II', 'resp': 'button'}",47,117,Right,76.41315997222205,63.013227528542174,3.8206579986111024,0.9898094634132509,Right,Correct,0.0,0.0,-45,45,2801,-1,-1
"{'cat': 'II', 'resp': 'button'}",47,118,Right,40.790798690380726,24.96325604996099,2.039539934519036,0.392121909081192,Left,Incorrect,0.0,0.0,-45,45,4979,-1,-1
"{'cat': 'II', 'resp': 'button'}",47,119,Left,33.589251687159454,61.44308678492554,1.6794625843579727,0.9651457502870108,Left,Correct,0.0,0.0,-45,45,2298,-1,-1
"{'cat': 'II', 'resp': 'button'}",47,120,Left,16.67213364440509,43.42516268463628,0.8336066822202546,0.6821208603549748,Left,Correct,0.0,0.0,-45,45,1216,-1,-1
"{'cat': 'II', 'resp': 'button'}",47,121,Right,84.58096591950336,68.68518401195479,4.229048295975168,1.0789043475121014,Left,Incorrect,0.0,0.0,-45,45,1050,-1,-1
"{'cat': 'II', 'resp': 'button'}",47,122,Left,28.831105796785224,46.975100652103315,1.441555289839261,0.7378831555514445,Right,Incorrect,0.0,0.0,-45,45,2677,-1,-1
"{'cat': 'II', 'resp': 'button'}",47,123,Right,59.25770925500904,26.873328116210033,2.9628854627504517,0.4221252509369674,Left,Incorrect,0.0,0.0,-45,45,3152,-1,-1
"{'cat': 'II', 'resp': 'button'}",47,124,Left,38.81534097403029,70.67780162535863,1.9407670487015145,1.110204311790517,Right,Incorrect,0.0,0.0,-45,45,2595,-1,-1
"{'cat': 'II', 'resp': 'button'}",47,125,Left,38.21003516537644,61.561446930929826,1.910501758268822,0.9670049471128352,Right,Incorrect,0.0,0.0,-45,45,1426,-1,-1
"{'cat': 'II', 'resp': 'button'}",47,126,Left,20.294876370200154,35.83917576686527,1.0147438185100077,0.5629604564994863,Left,Correct,0.0,0.0,-45,45,554,-1,-1
"{'cat': 'II', 'resp': 'button'}",47,127,Right,48.48929089941443,32.80844579401812,2.4244645449707214,0.5153538614109313,Right,Correct,0.0,0.0,-45,45,1367,-1,-1
"{'cat': 'II', 'resp': 'button'}",47,128,Right,39.702188542229365,13.649028213220294,1.9851094271114682,0.21439843381646348,Left,Incorrect,0.0,0.0,-45,45,1124,-1,-1
"{'cat': 'II', 'resp': 'button'}",47,129,Left,18.609378719246823,39.15889739621687,0.9304689359623411,0.6151065219131571,Left,Correct,0.0,0.0,-45,45,1665,-1,-1
"{'cat': 'II', 'resp': 'button'}",47,130,Left,39.947223354955504,70.68975423672649,1.9973611677477752,1.1103920629708395,Right,Incorrect,0.0,0.0,-45,45,3934,-1,-1
"{'cat': 'II', 'resp': 'button'}",47,131,Left,35.21581832522468,46.88300546689281,1.760790916261234,0.7364365277650028,Left,Correct,0.0,0.0,-45,45,1908,-1,-1
"{'cat': 'II', 'resp': 'button'}",47,132,Left,62.24499663584456,75.0270110504366,3.1122498317922282,1.1785215336842592,Right,Incorrect,0.0,0.0,-45,45,3453,-1,-1
"{'cat': 'II', 'resp': 'button'}",47,133,Left,62.8773507492176,83.61503969116228,3.14386753746088,1.3134219721168718,Left,Correct,0.0,0.0,-45,45,2085,-1,-1
"{'cat': 'II', 'resp': 'button'}",47,134,Left,14.8002755777473,36.454197495611794,0.740013778887365,0.5726211952236273,Left,Correct,0.0,0.0,-45,45,1832,-1,-1
"{'cat': 'II', 'resp': 'button'}",47,135,Right,82.7967155410419,68.71604638736835,4.139835777052095,1.0793891325714593,Right,Correct,0.0,0.0,-45,45,1747,-1,-1
"{'cat': 'II', 'resp': 'button'}",47,136,Right,67.58387336437407,36.91389781027392,3.379193668218704,0.5798421508806046,Left,Incorrect,0.0,0.0,-45,45,3122,-1,-1
"{'cat': 'II', 'resp': 'button'}",47,137,Left,17.62384818001212,46.004672237254326,0.881192409000606,0.7226397016568223,Left,Correct,0.0,0.0,-45,45,1227,-1,-1
"{'cat': 'II', 'resp': 'button'}",47,138,Right,37.81728297077542,14.714159426383304,1.890864148538771,0.23112947578837395,Left,Incorrect,0.0,0.0,-45,45,1272,-1,-1
"{'cat': 'II', 'resp': 'button'}",47,139,Left,32.67538405632884,47.50824060875335,1.6337692028164417,0.7462576984071789,Right,Incorrect,0.0,0.0,-45,45,2194,-1,-1
"{'cat': 'II', 'resp': 'button'}",47,140,Left,27.590295102490558,41.86203593876438,1.379514755124528,0.6575673228476703,Left,Correct,0.0,0.0,-45,45,1325,-1,-1
"{'cat': 'II', 'resp': 'button'}",47,141,Left,27.071714032722063,44.011250048407,1.3535857016361033,0.6913270991368943,Left,Correct,0.0,0.0,-45,45,2268,-1,-1
"{'cat': 'II', 'resp': 'button'}",47,142,Left,33.806447657204316,52.74162247289287,1.6903223828602159,0.8284634684962329,Right,Incorrect,0.0,0.0,-45,45,5916,-1,-1
"{'cat': 'II', 'resp': 'button'}",47,143,Left,45.94797424695653,55.9180594552774,2.2973987123478263,0.8783588239384836,Left,Correct,0.0,0.0,-45,45,2381,-1,-1
"{'cat': 'II', 'resp': 'button'}",47,144,Right,52.12550832875585,36.770005960750275,2.6062754164377924,0.5775819029937297,Left,Incorrect,0.0,0.0,-45,45,3028,-1,-1
"{'cat': 'II', 'resp': 'button'}",47,145,Right,55.07636626916607,45.289397556891714,2.753818313458304,0.7114041932511928,Left,Incorrect,0.0,0.0,-45,45,3048,-1,-1
"{'cat': 'II', 'resp': 'button'}",47,146,Right,47.409420825661385,18.444823183799002,2.370471041283069,0.28973060505492826,Right,Correct,0.0,0.0,-45,45,4776,-1,-1
"{'cat': 'II', 'resp': 'button'}",47,147,Left,18.503913724624784,35.87107221327517,0.9251956862312392,0.5634614847080711,Left,Correct,0.0,0.0,-45,45,913,-1,-1
"{'cat': 'II', 'resp': 'button'}",47,148,Right,77.30054110834405,45.98023458480801,3.865027055417203,0.722255835909841,Right,Correct,0.0,0.0,-45,45,1436,-1,-1
"{'cat': 'II', 'resp': 'button'}",47,149,Right,59.577135705750514,40.894109414482706,2.9788567852875256,0.6423631685581803,Left,Incorrect,0.0,0.0,-45,45,5913,-1,-1
"{'cat': 'II', 'resp': 'button'}",47,150,Left,19.16742302751601,44.95285990993619,0.9583711513758004,0.7061178722545333,Left,Correct,0.0,0.0,-45,45,2251,-1,-1
"{'cat': 'II', 'resp': 'button'}",47,151,Left,27.75245209613553,60.72507386058847,1.3876226048067766,0.9538672296456114,Right,Incorrect,0.0,0.0,-45,45,7732,-1,-1
"{'cat': 'II', 'resp': 'button'}",47,152,Right,45.87729481073975,37.48432578957727,2.2938647405369874,0.5888024126265119,Left,Incorrect,0.0,0.0,-45,45,5374,-1,-1
"{'cat': 'II', 'resp': 'button'}",47,153,Right,35.96876783913581,18.112516762248486,1.7984383919567903,0.28451074799150916,Right,Correct,0.0,0.0,-45,45,5944,-1,-1
"{'cat': 'II', 'resp': 'button'}",47,154,Right,45.39098387349992,30.1779448028629,2.269549193674996,0.4740340484655618,Right,Correct,0.0,0.0,-45,45,3455,-1,-1
"{'cat': 'II', 'resp': 'button'}",47,155,Right,60.747359291162006,45.60986176509468,3.0373679645581,0.7164380332623371,Left,Incorrect,0.0,0.0,-45,45,1978,-1,-1
"{'cat': 'II', 'resp': 'button'}",47,156,Left,26.257862169921122,56.63222442648393,1.3128931084960562,0.8895769010734517,Left,Correct,0.0,0.0,-45,45,836,-1,-1
"{'cat': 'II', 'resp': 'button'}",47,157,Right,78.4694576747502,65.07024241906922,3.9234728837375097,1.022120977755274,Left,Incorrect,0.0,0.0,-45,45,2235,-1,-1
"{'cat': 'II', 'resp': 'button'}",47,158,Left,44.94675307134768,76.03477636643798,2.2473376535673837,1.194351474250722,Left,Correct,0.0,0.0,-45,45,4240,-1,-1
"{'cat': 'II', 'resp': 'button'}",47,159,Left,61.196704540750034,77.33618046663054,3.0598352270375018,1.2147938820533046,Right,Incorrect,0.0,0.0,-45,45,4562,-1,-1
"{'cat': 'II', 'resp': 'button'}",47,160,Right,60.25446521046929,27.363922590719305,3.0127232605234644,0.42983149092201783,Right,Correct,0.0,0.0,-45,45,3260,-1,-1
"{'cat': 'II', 'resp': 'button'}",47,161,Left,30.641817824192696,48.953872020016114,1.532090891209635,0.7689656235142879,Left,Correct,0.0,0.0,-45,45,1385,-1,-1
"{'cat': 'II', 'resp': 'button'}",47,162,Right,77.77818485460591,64.40514414844615,3.8889092427302954,1.0116736385507505,Right,Correct,0.0,0.0,-45,45,5883,-1,-1
"{'cat': 'II', 'resp': 'button'}",47,163,Right,74.47099194947404,46.96973196956159,3.7235495974737023,0.7377988244832816,Left,Incorrect,0.0,0.0,-45,45,4477,-1,-1
"{'cat': 'II', 'resp': 'button'}",47,164,Left,22.395293688471057,33.73710815148403,1.119764684423553,0.5299412556103328,Left,Correct,0.0,0.0,-45,45,738,-1,-1
"{'cat': 'II', 'resp': 'button'}",47,165,Right,67.76621461567052,45.92184517062042,3.388310730783526,0.7213386571365452,Right,Correct,0.0,0.0,-45,45,2950,-1,-1
"{'cat': 'II', 'resp': 'button'}",47,166,Left,59.5369028976658,69.83983746346986,2.97684514488329,1.0970416015157105,Right,Incorrect,0.0,0.0,-45,45,3058,-1,-1
"{'cat': 'II', 'resp': 'button'}",47,167,Left,32.82503309400226,59.617581548398164,1.641251654700113,0.9364707810861904,Left,Correct,0.0,0.0,-45,45,717,-1,-1
"{'cat': 'II', 'resp': 'button'}",47,168,Right,66.63747532643954,44.02975266483024,3.331873766321977,0.6916177375560315,Right,Correct,0.0,0.0,-45,45,8240,-1,-1
"{'cat': 'II', 'resp': 'button'}",47,169,Right,58.7507309582623,27.912741155581642,2.9375365479131155,0.43845231277964375,Left,Incorrect,0.0,0.0,-45,45,6468,-1,-1
"{'cat': 'II', 'resp': 'button'}",47,170,Left,34.205370132218,60.432002068932015,1.7102685066109,0.9492636687074,Left,Correct,0.0,0.0,-45,45,1113,-1,-1
"{'cat': 'II', 'resp': 'button'}",47,171,Right,41.56644048458068,13.738743220970097,2.078322024229034,0.21580767386278113,Right,Correct,0.0,0.0,-45,45,3101,-1,-1
"{'cat': 'II', 'resp': 'button'}",47,172,Left,54.39842339281596,78.43866124828817,2.719921169640798,1.2321116096752025,Left,Correct,0.0,0.0,-45,45,2809,-1,-1
"{'cat': 'II', 'resp': 'button'}",47,173,Right,67.98538911094076,42.35229771909905,3.399269455547038,0.6652683368848465,Right,Correct,0.0,0.0,-45,45,1470,-1,-1
"{'cat': 'II', 'resp': 'button'}",47,174,Left,26.343933479922523,48.252797760182915,1.317196673996126,0.7579531747927234,Left,Correct,0.0,0.0,-45,45,622,-1,-1
"{'cat': 'II', 'resp': 'button'}",47,175,Right,53.994380840427155,40.72498554583068,2.6997190420213575,0.6397065770416609,Left,Incorrect,0.0,0.0,-45,45,5552,-1,-1
"{'cat': 'II', 'resp': 'button'}",47,176,Left,50.47541358155879,58.959093339651474,2.5237706790779395,0.9261272724908198,Right,Incorrect,0.0,0.0,-45,45,1639,-1,-1
"{'cat': 'II', 'resp': 'button'}",47,177,Left,41.85964943067756,55.15082962923451,2.092982471533878,0.8663072060129273,Left,Correct,0.0,0.0,-45,45,689,-1,-1
"{'cat': 'II', 'resp': 'button'}",47,178,Right,53.073838860762244,30.23072357529504,2.6536919430381123,0.4748630954842533,Left,Incorrect,0.0,0.0,-45,45,977,-1,-1
"{'cat': 'II', 'resp': 'button'}",47,179,Right,82.04380347245521,65.61436856434769,4.102190173622761,1.0306680912584387,Right,Correct,0.0,0.0,-45,45,1232,-1,-1
"{'cat': 'II', 'resp': 'button'}",47,180,Left,25.825368882040934,57.45747416226146,1.2912684441020468,0.9025398936099298,Left,Correct,0.0,0.0,-45,45,598,-1,-1
"{'cat': 'II', 'resp': 'button'}",47,181,Left,45.498244076427795,54.97054146230902,2.2749122038213896,0.8634752461092158,Right,Incorrect,0.0,0.0,-45,45,502,-1,-1
"{'cat': 'II', 'resp': 'button'}",47,182,Left,41.86998670716501,58.15543139810531,2.093499335358251,0.9135033802331642,Left,Correct,0.0,0.0,-45,45,1946,-1,-1
"{'cat': 'II', 'resp': 'button'}",47,183,Right,73.58943339328914,44.158736539902165,3.679471669664457,0.693643811527819,Right,Correct,0.0,0.0,-45,45,821,-1,-1
"{'cat': 'II', 'resp': 'button'}",47,184,Left,35.49012534379456,53.346197460082905,1.7745062671897278,0.8379601101877346,Left,Correct,0.0,0.0,-45,45,581,-1,-1
"{'cat': 'II', 'resp': 'button'}",47,185,Left,30.196443028114256,47.71294656636068,1.5098221514057126,0.7494732120700053,Left,Correct,0.0,0.0,-45,45,1462,-1,-1
"{'cat': 'II', 'resp': 'button'}",47,186,Left,32.74711758186375,54.556789892336816,1.6373558790931872,0.8569760516460362,Left,Correct,0.0,0.0,-45,45,861,-1,-1
"{'cat': 'II', 'resp': 'button'}",47,187,Left,52.15516773830587,82.08016116628403,2.6077583869152936,1.2893121566273207,Right,Incorrect,0.0,0.0,-45,45,2256,-1,-1
"{'cat': 'II', 'resp': 'button'}",47,188,Right,83.0399441884341,66.10267746893534,4.1519972094217055,1.038338429595114,Right,Correct,0.0,0.0,-45,45,1880,-1,-1
"{'cat': 'II', 'resp': 'button'}",47,189,Right,81.74053201734155,60.51755813830367,4.087026600867078,0.9506075803024402,Left,Incorrect,0.0,0.0,-45,45,9151,-1,-1
"{'cat': 'II', 'resp': 'button'}",47,190,Left,48.95474567206095,61.57213703186408,2.4477372836030473,0.9671728668256411,Right,Incorrect,0.0,0.0,-45,45,3554,-1,-1
"{'cat': 'II', 'resp': 'button'}",47,191,Right,86.80049464189301,63.7919003583455,4.34002473209465,1.0020408276215516,Right,Correct,0.0,0.0,-45,45,2662,-1,-1
"{'cat': 'II', 'resp': 'button'}",47,192,Right,67.7138730947895,39.66288344368621,3.3856936547394754,0.6230231162343641,Left,Incorrect,0.0,0.0,-45,45,4700,-1,-1
"{'cat': 'II', 'resp': 'button'}",47,193,Left,44.75077896072849,59.99040865829149,2.2375389480364247,0.9423271356336904,Left,Correct,0.0,0.0,-45,45,2329,-1,-1
"{'cat': 'II', 'resp': 'button'}",47,194,Left,40.222976390731986,58.87764130074639,2.0111488195365994,0.9248478268555993,Left,Correct,0.0,0.0,-45,45,1051,-1,-1
"{'cat': 'II', 'resp': 'button'}",47,195,Right,66.87058970954347,44.58037872352896,3.3435294854771733,0.7002669514604465,Right,Correct,0.0,0.0,-45,45,7034,-1,-1
"{'cat': 'II', 'resp': 'button'}",47,196,Left,58.33088166421486,72.56891179675475,2.916544083210743,1.1399098008984518,Right,Incorrect,0.0,0.0,-45,45,9230,-1,-1
"{'cat': 'II', 'resp': 'button'}",47,197,Left,31.147930713003497,47.66259828432797,1.5573965356501747,0.7486823431052312,Left,Correct,0.0,0.0,-45,45,744,-1,-1
"{'cat': 'II', 'resp': 'button'}",47,198,Left,46.06262985711804,71.93649280201893,2.3031314928559024,1.1299757865591886,Right,Incorrect,0.0,0.0,-45,45,948,-1,-1
"{'cat': 'II', 'resp': 'button'}",47,199,Right,42.917398558087605,34.34200974240293,2.1458699279043802,0.5394430275812107,Right,Correct,0.0,0.0,-45,45,1555,-1,-1
"{'cat': 'II', 'resp': 'button'}",47,200,Right,52.50194815918787,38.10651709858921,2.6250974079593936,0.5985757708541084,Left,Incorrect,0.0,0.0,-45,45,3661,-1,-1
"{'cat': 'II', 'resp': 'button'}",47,201,Right,60.608050094163154,41.25062514152793,3.0304025047081575,0.6479633045030527,Right,Correct,0.0,0.0,-45,45,1563,-1,-1
"{'cat': 'II', 'resp': 'button'}",47,202,Left,57.59919296635582,72.57212085338833,2.8799596483177914,1.139960208642177,Left,Correct,0.0,0.0,-45,45,4636,-1,-1
"{'cat': 'II', 'resp': 'button'}",47,203,Right,36.56418969430426,18.89581968306694,1.8282094847152133,0.29681484149940257,Left,Incorrect,0.0,0.0,-45,45,894,-1,-1
"{'cat': 'II', 'resp': 'button'}",47,204,Right,43.3024061983555,15.36877765157542,2.165120309917775,0.24141219482422166,Left,Incorrect,0.0,0.0,-45,45,1399,-1,-1
"{'cat': 'II', 'resp': 'button'}",47,205,Right,57.56536715458909,31.360207168819166,2.8782683577294548,0.4926049822830813,Right,Correct,0.0,0.0,-45,45,1663,-1,-1
"{'cat': 'II', 'resp': 'button'}",47,206,Right,57.107771964177964,27.78088053003995,2.855388598208898,0.4363810509171461,Left,Incorrect,0.0,0.0,-45,45,1765,-1,-1
"{'cat': 'II', 'resp': 'button'}",47,207,Right,57.20689156757446,31.1405583458412,2.860344578378723,0.48915474663989517,Right,Correct,0.0,0.0,-45,45,1029,-1,-1
"{'cat': 'II', 'resp': 'button'}",47,208,Right,64.15625964254045,48.02176798992788,3.2078129821270225,0.7543241676477545,Left,Incorrect,0.0,0.0,-45,45,2167,-1,-1
"{'cat': 'II', 'resp': 'button'}",47,209,Right,79.45304640684617,54.70170287609166,3.9726523203423083,0.8592523394719062,Right,Correct,0.0,0.0,-45,45,685,-1,-1
"{'cat': 'II', 'resp': 'button'}",47,210,Left,33.94326102532082,44.17909516820487,1.6971630512660412,0.6939636041133836,Left,Correct,0.0,0.0,-45,45,722,-1,-1
"{'cat': 'II', 'resp': 'button'}",47,211,Right,67.66650214994193,48.26524469444247,3.3833251074970967,0.758148690778871,Right,Correct,0.0,0.0,-45,45,986,-1,-1
"{'cat': 'II', 'resp': 'button'}",47,212,Right,75.60570952591777,60.101156182495075,3.7802854762958886,0.9440667536758965,Left,Incorrect,0.0,0.0,-45,45,834,-1,-1
"{'cat': 'II', 'resp': 'button'}",47,213,Left,28.832465191488392,55.66185783984135,1.4416232595744196,0.8743344183740251,Left,Correct,0.0,0.0,-45,45,938,-1,-1
"{'cat': 'II', 'resp': 'button'}",47,214,Right,37.276659485966576,26.062200163689123,1.8638329742983288,0.40938408285316225,Right,Correct,0.0,0.0,-45,45,1155,-1,-1
"{'cat': 'II', 'resp': 'button'}",47,215,Right,52.74402039507173,45.77610779477989,2.6372010197535865,0.7190494197900749,Right,Correct,0.0,0.0,-45,45,826,-1,-1
"{'cat': 'II', 'resp': 'button'}",47,216,Right,66.81019138232939,43.85537041101834,3.3405095691164695,0.688878547518572,Left,Incorrect,0.0,0.0,-45,45,1031,-1,-1
"{'cat': 'II', 'resp': 'button'}",47,217,Left,24.015711424515725,40.7096453873052,1.2007855712257862,0.639465614395018,Left,Correct,0.0,0.0,-45,45,619,-1,-1
"{'cat': 'II', 'resp': 'button'}",47,218,Left,37.66757615862616,53.63028299287146,1.883378807931308,0.8424225153017328,Right,Incorrect,0.0,0.0,-45,45,877,-1,-1
"{'cat': 'II', 'resp': 'button'}",47,219,Right,73.29070215542342,50.430501521267814,3.664535107771171,0.7921604654803193,Left,Incorrect,0.0,0.0,-45,45,9051,-1,-1
"{'cat': 'II', 'resp': 'button'}",47,220,Left,41.85441012286145,56.03262426256262,2.0927205061430727,0.8801584037231197,Left,Correct,0.0,0.0,-45,45,5154,-1,-1
"{'cat': 'II', 'resp': 'button'}",47,221,Left,42.374223278799825,59.994372371609735,2.118711163939991,0.942389397496898,Right,Incorrect,0.0,0.0,-45,45,1938,-1,-1
"{'cat': 'II', 'resp': 'button'}",47,222,Right,52.205232637298046,40.87944864137185,2.6102616318649026,0.6421328776726754,Left,Incorrect,0.0,0.0,-45,45,1657,-1,-1
"{'cat': 'II', 'resp': 'button'}",47,223,Left,69.40628293440139,88.33149056705619,3.470314146720069,1.387507809230499,Right,Incorrect,0.0,0.0,-45,45,1252,-1,-1
"{'cat': 'II', 'resp': 'button'}",47,224,Left,68.8351877436398,86.96910442241071,3.4417593871819907,1.3661074977136456,Right,Incorrect,0.0,0.0,-45,45,1485,-1,-1
"{'cat': 'II', 'resp': 'button'}",47,225,Right,67.66023628752181,36.47469478186605,3.3830118143760903,0.5729431658432017,Right,Correct,0.0,0.0,-45,45,1809,-1,-1
"{'cat': 'II', 'resp': 'button'}",47,226,Left,15.102029439416537,34.26068904933159,0.7551014719708269,0.538165645121522,Left,Correct,0.0,0.0,-45,45,577,-1,-1
"{'cat': 'II', 'resp': 'button'}",47,227,Right,54.0044062971151,27.812159511216187,2.700220314855755,0.4368723800045214,Right,Correct,0.0,0.0,-45,45,639,-1,-1
"{'cat': 'II', 'resp': 'button'}",47,228,Right,57.53188437795549,43.53772244036523,2.876594218897775,0.6838889448634144,Left,Incorrect,0.0,0.0,-45,45,6940,-1,-1
"{'cat': 'II', 'resp': 'button'}",47,229,Left,50.59483777735605,77.92070438245867,2.5297418888678025,1.2239755622523705,Right,Incorrect,0.0,0.0,-45,45,1155,-1,-1
"{'cat': 'II', 'resp': 'button'}",47,230,Left,24.714826770890404,44.031160370693726,1.2357413385445202,0.6916398497480272,Left,Correct,0.0,0.0,-45,45,713,-1,-1
"{'cat': 'II', 'resp': 'button'}",47,231,Left,14.456383930036587,31.003681153807293,0.7228191965018295,0.4870046847352066,Left,Correct,0.0,0.0,-45,45,1566,-1,-1
"{'cat': 'II', 'resp': 'button'}",47,232,Right,84.21768521333956,69.01785615936271,4.210884260666978,1.0841299493838545,Right,Correct,0.0,0.0,-45,45,7032,-1,-1
"{'cat': 'II', 'resp': 'button'}",47,233,Right,64.21523383169645,40.16297917951943,3.2107616915848225,0.6308786016832902,Left,Incorrect,0.0,0.0,-45,45,2668,-1,-1
"{'cat': 'II', 'resp': 'button'}",47,234,Left,41.13863109591749,66.40585478873588,2.0569315547958746,1.043100727798216,Right,Incorrect,0.0,0.0,-45,45,1292,-1,-1
"{'cat': 'II', 'resp': 'button'}",47,235,Right,35.757551868558366,19.916127702735746,1.7878775934279185,0.3128418023943539,Left,Incorrect,0.0,0.0,-45,45,756,-1,-1
"{'cat': 'II', 'resp': 'button'}",47,236,Left,24.814834883223234,36.596511182855,1.2407417441611617,0.5748566533953697,Left,Correct,0.0,0.0,-45,45,1196,-1,-1
"{'cat': 'II', 'resp': 'button'}",47,237,Right,35.52566409794274,14.809536120587477,1.776283204897137,0.23262764939755148,Left,Incorrect,0.0,0.0,-45,45,10888,-1,-1
"{'cat': 'II', 'resp': 'button'}",47,238,Right,46.201503728258,26.16845744399473,2.3100751864128997,0.4110531683091549,Right,Correct,0.0,0.0,-45,45,1231,-1,-1
"{'cat': 'II', 'resp': 'button'}",47,239,Right,85.722038473228,63.303958552283746,4.2861019236614,0.9943762556550368,Left,Incorrect,0.0,0.0,-45,45,9610,-1,-1
"{'cat': 'II', 'resp': 'button'}",47,240,Right,46.23522664413524,37.4493485423705,2.3117613322067623,0.5882529913121739,Right,Correct,0.0,0.0,-45,45,2782,-1,-1
"{'cat': 'II', 'resp': 'button'}",47,241,Left,65.80116608356883,87.73340184214423,3.2900583041784417,1.3781130535086077,Right,Incorrect,0.0,0.0,-45,45,9014,-1,-1
"{'cat': 'II', 'resp': 'button'}",47,242,Right,66.17356540900006,34.24551848129303,3.308678270450003,0.5379273463960185,Left,Incorrect,0.0,0.0,-45,45,3023,-1,-1
"{'cat': 'II', 'resp': 'button'}",47,243,Left,33.30659168855905,46.11767900847106,1.6653295844279525,0.7244148078681244,Left,Correct,0.0,0.0,-45,45,843,-1,-1
"{'cat': 'II', 'resp': 'button'}",47,244,Left,29.86350921233219,44.592043895785,1.4931754606166094,0.7004501875577586,Left,Correct,0.0,0.0,-45,45,815,-1,-1
"{'cat': 'II', 'resp': 'button'}",47,245,Right,70.92711546966368,57.74218567099928,3.546355773483184,0.9070121315311457,Right,Correct,0.0,0.0,-45,45,799,-1,-1
"{'cat': 'II', 'resp': 'button'}",47,246,Right,42.16785859536238,25.45684374470062,2.108392929768119,0.39987516645967375,Left,Incorrect,0.0,0.0,-45,45,1248,-1,-1
"{'cat': 'II', 'resp': 'button'}",47,247,Left,69.40402273983946,85.00983187602374,3.4702011369919727,1.335331316523098,Right,Incorrect,0.0,0.0,-45,45,1318,-1,-1
"{'cat': 'II', 'resp': 'button'}",47,248,Left,63.53331259161692,83.8298567972497,3.1766656295808455,1.3167963113286203,Left,Correct,0.0,0.0,-45,45,2484,-1,-1
"{'cat': 'II', 'resp': 'button'}",47,249,Right,59.60114634702921,52.123900433395384,2.98005731735146,0.8187603133900039,Right,Correct,0.0,0.0,-45,45,11974,-1,-1
"{'cat': 'II', 'resp': 'button'}",47,250,Left,37.26619135730071,69.33574321092819,1.8633095678650358,1.0891233075132019,Right,Incorrect,0.0,0.0,-45,45,2572,-1,-1
"{'cat': 'II', 'resp': 'button'}",47,251,Right,55.49158602800064,39.73692437477775,2.774579301400032,0.6241861484602749,Right,Correct,0.0,0.0,-45,45,1529,-1,-1
"{'cat': 'II', 'resp': 'button'}",47,252,Left,63.4939792336534,88.77908310044842,3.1746989616826697,1.3945385763040326,Left,Correct,0.0,0.0,-45,45,1034,-1,-1
"{'cat': 'II', 'resp': 'button'}",47,253,Left,50.14486019927035,60.60535620447473,2.5072430099635175,0.9519867091008519,Right,Incorrect,0.0,0.0,-45,45,1143,-1,-1
"{'cat': 'II', 'resp': 'button'}",47,254,Left,30.306681690429542,57.47507021154183,1.515334084521477,0.9028162917056869,Left,Correct,0.0,0.0,-45,45,748,-1,-1
"{'cat': 'II', 'resp': 'button'}",47,255,Right,42.68120577793252,27.84830458139796,2.134060288896626,0.437440145439254,Left,Incorrect,0.0,0.0,-45,45,3473,-1,-1
"{'cat': 'II', 'resp': 'button'}",47,256,Left,21.160962383140347,46.9401421418533,1.0580481191570172,0.737334028556535,Left,Correct,0.0,0.0,-45,45,772,-1,-1
"{'cat': 'II', 'resp': 'button'}",47,257,Left,21.896364699354418,35.781782767313175,1.094818234967721,0.5620589293706846,Left,Correct,0.0,0.0,-45,45,590,-1,-1
"{'cat': 'II', 'resp': 'button'}",47,258,Left,67.59300886193829,84.60653317230691,3.3796504430969145,1.3289963152991027,Right,Incorrect,0.0,0.0,-45,45,1327,-1,-1
"{'cat': 'II', 'resp': 'button'}",47,259,Left,53.52319954332668,68.93073648338577,2.676159977166334,1.0827614767136933,Left,Correct,0.0,0.0,-45,45,1591,-1,-1
"{'cat': 'II', 'resp': 'button'}",47,260,Right,79.96666561759591,58.4402875340517,3.9983332808797956,0.9179778899532599,Right,Correct,0.0,0.0,-45,45,1887,-1,-1
"{'cat': 'II', 'resp': 'button'}",47,261,Right,41.777939302406494,33.596624789151,2.0888969651203246,0.5277345481150475,Left,Incorrect,0.0,0.0,-45,45,4521,-1,-1
"{'cat': 'II', 'resp': 'button'}",47,262,Left,50.287624173025364,76.40945716534807,2.514381208651268,1.2002369464772076,Right,Incorrect,0.0,0.0,-45,45,1542,-1,-1
"{'cat': 'II', 'resp': 'button'}",47,263,Left,59.19380475494563,80.31238062812407,2.9596902377472816,1.261543924868109,Left,Correct,0.0,0.0,-45,45,5011,-1,-1
"{'cat': 'II', 'resp': 'button'}",47,264,Left,22.3947412853887,39.07754476800413,1.119737064269435,0.6138286378174401,Left,Correct,0.0,0.0,-45,45,765,-1,-1
"{'cat': 'II', 'resp': 'button'}",47,265,Right,32.93371046783475,18.103045616089396,1.6466855233917375,0.28436197557553683,Right,Correct,0.0,0.0,-45,45,19716,-1,-1
"{'cat': 'II', 'resp': 'button'}",47,266,Right,38.36635233532208,25.009331415263024,1.9183176167661038,0.39284565922691367,Left,Incorrect,0.0,0.0,-45,45,1978,-1,-1
"{'cat': 'II', 'resp': 'button'}",47,267,Right,35.75965285079312,20.752527104331715,1.7879826425396559,0.32597993347195786,Right,Correct,0.0,0.0,-45,45,2860,-1,-1
"{'cat': 'II', 'resp': 'button'}",47,268,Right,58.99998632121106,47.58346390245358,2.9499993160605533,0.7474393031415164,Right,Correct,0.0,0.0,-45,45,2374,-1,-1
"{'cat': 'II', 'resp': 'button'}",47,269,Right,83.24020302306668,66.71507378255632,4.162010151153334,1.0479579283948997,Left,Incorrect,0.0,0.0,-45,45,2740,-1,-1
"{'cat': 'II', 'resp': 'button'}",47,270,Right,54.58213393153592,42.92875548229536,2.729106696576796,0.6743233142546584,Right,Correct,0.0,0.0,-45,45,2693,-1,-1
"{'cat': 'II', 'resp': 'button'}",47,271,Left,35.08540071136537,51.67831383974283,1.7542700355682683,0.8117610555442188,Left,Correct,0.0,0.0,-45,45,766,-1,-1
"{'cat': 'II', 'resp': 'button'}",47,272,Right,73.85568057767338,60.486690638465994,3.6927840288836693,0.9501227147488164,Right,Correct,0.0,0.0,-45,45,1949,-1,-1
"{'cat': 'II', 'resp': 'button'}",47,273,Left,49.30019782305937,62.69645242361489,2.4650098911529685,0.9848335717008527,Right,Incorrect,0.0,0.0,-45,45,5973,-1,-1
"{'cat': 'II', 'resp': 'button'}",47,274,Left,59.9011815739107,72.69796390614651,2.995059078695535,1.141936946692429,Left,Correct,0.0,0.0,-45,45,5689,-1,-1
"{'cat': 'II', 'resp': 'button'}",47,275,Right,46.694764313416336,35.94229160328151,2.3347382156708165,0.5645801962702566,Left,Incorrect,0.0,0.0,-45,45,8912,-1,-1
"{'cat': 'II', 'resp': 'button'}",47,276,Right,70.48597562606574,54.027367616735845,3.524298781303287,0.8486599059876619,Right,Correct,0.0,0.0,-45,45,1644,-1,-1
"{'cat': 'II', 'resp': 'button'}",47,277,Right,47.9196214889779,33.510781277496406,2.395981074448895,0.5263861213871854,Left,Incorrect,0.0,0.0,-45,45,4123,-1,-1
"{'cat': 'II', 'resp': 'button'}",47,278,Left,20.601943699208192,46.86654665767921,1.0300971849604097,0.7361779933944415,Left,Correct,0.0,0.0,-45,45,651,-1,-1
"{'cat': 'II', 'resp': 'button'}",47,279,Left,67.3599524544592,82.16869610925818,3.3679976227229598,1.2907028602594883,Right,Incorrect,0.0,0.0,-45,45,2484,-1,-1
"{'cat': 'II', 'resp': 'button'}",47,280,Left,53.30670384635572,77.31411121236061,2.665335192317786,1.2144472190178817,Left,Correct,0.0,0.0,-45,45,3236,-1,-1
"{'cat': 'II', 'resp': 'button'}",47,281,Right,72.04771348933525,60.59528401322508,3.6023856744667624,0.9518284954906748,Right,Correct,0.0,0.0,-45,45,985,-1,-1
"{'cat': 'II', 'resp': 'button'}",47,282,Right,50.37474026817303,24.50138134193722,2.5187370134086513,0.38486679813315994,Left,Incorrect,0.0,0.0,-45,45,1514,-1,-1
"{'cat': 'II', 'resp': 'button'}",47,283,Right,68.14409563373607,54.50322836895456,3.4072047816868034,0.8561347092041722,Right,Correct,0.0,0.0,-45,45,1311,-1,-1
"{'cat': 'II', 'resp': 'button'}",47,284,Left,41.1247312648392,58.91443533616288,2.05623656324196,0.9254257862124011,Left,Correct,0.0,0.0,-45,45,2050,-1,-1
"{'cat': 'II', 'resp': 'button'}",47,285,Right,43.83258414699188,20.48117295483451,2.1916292073495938,0.3217175124590503,Right,Correct,0.0,0.0,-45,45,1160,-1,-1
"{'cat': 'II', 'resp': 'button'}",47,286,Left,48.44501302534426,62.328684380086585,2.422250651267213,0.9790566847819845,Left,Correct,0.0,0.0,-45,45,2471,-1,-1
"{'cat': 'II', 'resp': 'button'}",47,287,Left,47.82179834807212,55.67434584599698,2.391089917403606,0.8745305795160075,Left,Correct,0.0,0.0,-45,45,4881,-1,-1
"{'cat': 'II', 'resp': 'button'}",47,288,Left,57.95399130905564,75.23745337144517,2.897699565452782,1.1818271539326837,Left,Correct,0.0,0.0,-45,45,2125,-1,-1
"{'cat': 'II', 'resp': 'button'}",47,289,Left,48.61479191382956,70.29134735743364,2.430739595691478,1.104133902345209,Right,Incorrect,0.0,0.0,-45,45,883,-1,-1
"{'cat': 'II', 'resp': 'button'}",47,290,Left,54.49745270936264,68.07999079096157,2.7248726354681323,1.0693979946267282,Left,Correct,0.0,0.0,-45,45,394,-1,-1
"{'cat': 'II', 'resp': 'button'}",47,291,Left,41.70124636946313,71.03837389196485,2.0850623184731565,1.1158681677098088,Left,Correct,0.0,0.0,-45,45,677,-1,-1
"{'cat': 'II', 'resp': 'button'}",47,292,Left,57.57747453235888,79.89939890896967,2.878873726617944,1.2550568231932975,Left,Correct,0.0,0.0,-45,45,728,-1,-1
"{'cat': 'II', 'resp': 'button'}",47,293,Left,33.558538283155734,61.02035251974925,1.6779269141577868,0.9585054559775185,Left,Correct,0.0,0.0,-45,45,776,-1,-1
"{'cat': 'II', 'resp': 'button'}",47,294,Right,67.54984796209804,36.83821754380847,3.377492398104902,0.5786533680348567,Right,Correct,0.0,0.0,-45,45,668,-1,-1
"{'cat': 'II', 'resp': 'button'}",47,295,Right,62.61976562463681,52.69104792239163,3.1309882812318404,0.8276690453146665,Left,Incorrect,0.0,0.0,-45,45,305,-1,-1
"{'cat': 'II', 'resp': 'button'}",47,296,Right,51.44087490540973,35.92117515543119,2.572043745270486,0.5642484998830742,Right,Correct,0.0,0.0,-45,45,333,-1,-1
"{'cat': 'II', 'resp': 'button'}",47,297,Left,29.702035340591934,61.718125598995265,1.4851017670295965,0.9694660498756783,Right,Incorrect,0.0,0.0,-45,45,3130,-1,-1
"{'cat': 'II', 'resp': 'button'}",47,298,Left,67.56397915218288,86.73075209613981,3.378198957609144,1.3623634681277517,Left,Correct,0.0,0.0,-45,45,339,-1,-1
"{'cat': 'II', 'resp': 'button'}",47,299,Left,51.86816637677782,71.97473758456589,2.593408318838891,1.130576534198627,Right,Incorrect,0.0,0.0,-45,45,611,-1,-1
"{'cat': 'II', 'resp': 'button'}",47,300,Left,54.8172687853413,75.25018922874177,2.740863439267065,1.1820272083112846,Left,Correct,0.0,0.0,-45,45,390,-1,-1
"{'cat': 'II', 'resp': 'button'}",47,301,Right,41.328473226596785,20.43495376167615,2.0664236613298392,0.3209915030706445,Right,Correct,0.0,0.0,-45,45,621,-1,-1
"{'cat': 'II', 'resp': 'button'}",47,302,Right,60.280420108112985,36.460944758233495,3.014021005405649,0.5727271809770481,Left,Incorrect,0.0,0.0,-45,45,384,-1,-1
"{'cat': 'II', 'resp': 'button'}",47,303,Right,71.87688968542943,60.91685411173616,3.5938444842714716,0.9568797067861575,Right,Correct,0.0,0.0,-45,45,271,-1,-1
"{'cat': 'II', 'resp': 'button'}",47,304,Right,72.7280610084786,52.20677330259991,3.6364030504239304,0.8200620773753781,Left,Incorrect,0.0,0.0,-45,45,681,-1,-1
"{'cat': 'II', 'resp': 'button'}",47,305,Right,51.137382123231234,34.347568985924,2.556869106161562,0.5395303519742373,Right,Correct,0.0,0.0,-45,45,278,-1,-1
"{'cat': 'II', 'resp': 'button'}",47,306,Right,67.36650326955053,58.829276569831805,3.368325163477527,0.9240881154389287,Left,Incorrect,0.0,0.0,-45,45,642,-1,-1
"{'cat': 'II', 'resp': 'button'}",47,307,Right,60.65532237379066,34.85156115797086,3.032766118689533,0.5474470425000832,Right,Correct,0.0,0.0,-45,45,314,-1,-1
"{'cat': 'II', 'resp': 'button'}",47,308,Left,65.45153969007808,76.4169831949275,3.272576984503904,1.2003551650733946,Right,Incorrect,0.0,0.0,-45,45,1397,-1,-1
"{'cat': 'II', 'resp': 'button'}",47,309,Left,37.62565652676373,51.538111831957146,1.8812828263381862,0.8095587675558288,Left,Correct,0.0,0.0,-45,45,247,-1,-1
"{'cat': 'II', 'resp': 'button'}",47,310,Left,33.66573442060931,58.61840123497976,1.6832867210304656,0.9207756934249562,Left,Correct,0.0,0.0,-45,45,503,-1,-1
"{'cat': 'II', 'resp': 'button'}",47,311,Right,75.64850011756752,50.820130278537825,3.7824250058783764,0.7982807396876532,Right,Correct,0.0,0.0,-45,45,619,-1,-1
"{'cat': 'II', 'resp': 'button'}",47,312,Right,40.588958626501785,24.66560114894652,2.0294479313250893,0.3874463568295318,Left,Incorrect,0.0,0.0,-45,45,626,-1,-1
"{'cat': 'II', 'resp': 'button'}",47,313,Right,39.01590366635409,18.355245137459487,1.9507951833177046,0.28832351639341247,Left,Incorrect,0.0,0.0,-45,45,1081,-1,-1
"{'cat': 'II', 'resp': 'button'}",47,314,Left,11.516939950867418,36.709417495719705,0.5758469975433709,0.5766301816105682,Right,Incorrect,0.0,0.0,-45,45,306,-1,-1
"{'cat': 'II', 'resp': 'button'}",47,315,Left,63.025620666626615,85.4796370132504,3.151281033331331,1.3427109983617482,Right,Incorrect,0.0,0.0,-45,45,994,-1,-1
"{'cat': 'II', 'resp': 'button'}",47,316,Left,44.4869936409136,72.83002640370049,2.22434968204568,1.1440113795530804,Left,Correct,0.0,0.0,-45,45,1720,-1,-1
"{'cat': 'II', 'resp': 'button'}",47,317,Left,42.25649486874619,59.356425060129396,2.1128247434373093,0.932368544561278,Left,Correct,0.0,0.0,-45,45,2519,-1,-1
"{'cat': 'II', 'resp': 'button'}",47,318,Left,49.89073540919579,74.88941380164158,2.49453677045979,1.1763601611544163,Right,Incorrect,0.0,0.0,-45,45,892,-1,-1
"{'cat': 'II', 'resp': 'button'}",47,319,Left,47.943863166048146,77.25781192020105,2.3971931583024073,1.2135628718046276,Left,Correct,0.0,0.0,-45,45,536,-1,-1
"{'cat': 'II', 'resp': 'button'}",47,320,Left,18.62646776980993,32.02654973231958,0.9313233884904966,0.5030718667944167,Left,Correct,0.0,0.0,-45,45,535,-1,-1
"{'cat': 'II', 'resp': 'button'}",47,321,Left,11.01258772135748,35.690006424654584,0.5506293860678739,0.5606173099513369,Left,Correct,0.0,0.0,-45,45,306,-1,-1
"{'cat': 'II', 'resp': 'button'}",47,322,Left,58.56636678611325,68.42071151840653,2.928318339305662,1.0747500232980625,Left,Correct,0.0,0.0,-45,45,1075,-1,-1
"{'cat': 'II', 'resp': 'button'}",47,323,Right,82.28063976956594,61.563392610122335,4.114031988478297,0.9670355097701224,Right,Correct,0.0,0.0,-45,45,695,-1,-1
"{'cat': 'II', 'resp': 'button'}",47,324,Left,33.60664400678364,64.49422514365273,1.680332200339182,1.0130729195513277,Left,Correct,0.0,0.0,-45,45,790,-1,-1
"{'cat': 'II', 'resp': 'button'}",47,325,Left,40.01866214548198,51.609582805289364,2.0009331072740992,0.8106814309796558,Right,Incorrect,0.0,0.0,-45,45,656,-1,-1
"{'cat': 'II', 'resp': 'button'}",47,326,Left,41.454480978004156,53.01630730337567,2.0727240489002074,0.8327782077237195,Left,Correct,0.0,0.0,-45,45,285,-1,-1
"{'cat': 'II', 'resp': 'button'}",47,327,Right,72.55634402656487,46.71907447203644,3.6278172013282437,0.7338615057193206,Left,Incorrect,0.0,0.0,-45,45,336,-1,-1
"{'cat': 'II', 'resp': 'button'}",47,328,Right,38.55966802246046,29.000566099746525,1.927983401123023,0.4555398270445443,Right,Correct,0.0,0.0,-45,45,302,-1,-1
"{'cat': 'II', 'resp': 'button'}",47,329,Left,50.983654826362965,75.71893498589425,2.5491827413181483,1.1893902494466426,Right,Incorrect,0.0,0.0,-45,45,313,-1,-1
"{'cat': 'II', 'resp': 'button'}",47,330,Right,40.08571912337921,20.453050445029685,2.0042859561689603,0.3212757651080336,Left,Incorrect,0.0,0.0,-45,45,411,-1,-1
"{'cat': 'II', 'resp': 'button'}",47,331,Left,48.18539890273773,74.17450832282744,2.4092699451368866,1.1651304521531483,Right,Incorrect,0.0,0.0,-45,45,315,-1,-1
"{'cat': 'II', 'resp': 'button'}",47,332,Left,42.752174273757234,73.01126963825024,2.137608713687862,1.1468583416239524,Left,Correct,0.0,0.0,-45,45,329,-1,-1
"{'cat': 'II', 'resp': 'button'}",47,333,Left,31.987807436193023,48.77855360155194,1.599390371809651,0.7662117282368576,Left,Correct,0.0,0.0,-45,45,401,-1,-1
"{'cat': 'II', 'resp': 'button'}",47,334,Left,30.640349111406174,48.349530216015324,1.5320174555703088,0.7594726446557575,Left,Correct,0.0,0.0,-45,45,586,-1,-1
"{'cat': 'II', 'resp': 'button'}",47,335,Right,70.34541210407934,52.63862504430935,3.5172706052039673,0.8268455886713497,Left,Incorrect,0.0,0.0,-45,45,306,-1,-1
"{'cat': 'II', 'resp': 'button'}",47,336,Right,73.93162065325039,58.659471127175124,3.6965810326625195,0.9214208177829797,Right,Correct,0.0,0.0,-45,45,477,-1,-1
"{'cat': 'II', 'resp': 'button'}",47,337,Left,51.095607080718224,58.906462514858994,2.5547803540359113,0.9253005494282178,Left,Correct,0.0,0.0,-45,45,570,-1,-1
"{'cat': 'II', 'resp': 'button'}",47,338,Left,64.9438622351098,84.9882521411289,3.2471931117554904,1.3349923428400379,Right,Incorrect,0.0,0.0,-45,45,583,-1,-1
"{'cat': 'II', 'resp': 'button'}",47,339,Left,60.05276922171665,82.9632904777439,3.0026384610858328,1.3031843194125812,Left,Correct,0.0,0.0,-45,45,271,-1,-1
"{'cat': 'II', 'resp': 'button'}",47,340,Right,45.26771740574807,22.79997593792374,2.2633858702874035,0.3581411845430264,Right,Correct,0.0,0.0,-45,45,566,-1,-1
"{'cat': 'II', 'resp': 'button'}",47,341,Right,66.52094169988841,56.99110486336134,3.3260470849944204,0.8952141817935076,Left,Incorrect,0.0,0.0,-45,45,386,-1,-1
"{'cat': 'II', 'resp': 'button'}",47,342,Right,65.10644117272344,54.484158419697906,3.2553220586361715,0.855835159141727,Right,Correct,0.0,0.0,-45,45,367,-1,-1
"{'cat': 'II', 'resp': 'button'}",47,343,Left,27.688305057736557,39.38610647575415,1.3844152528868279,0.618675513788673,Left,Correct,0.0,0.0,-45,45,592,-1,-1
"{'cat': 'II', 'resp': 'button'}",47,344,Left,42.69664550008356,58.330090501792604,2.134832275004178,0.916246919018297,Right,Incorrect,0.0,0.0,-45,45,491,-1,-1
"{'cat': 'II', 'resp': 'button'}",47,345,Right,63.7919342540185,49.33617467438754,3.189596712700925,0.7749708195663934,Left,Incorrect,0.0,0.0,-45,45,292,-1,-1
"{'cat': 'II', 'resp': 'button'}",47,346,Left,38.48041617617557,59.18823789212296,1.9240208088087782,0.9297266667040927,Right,Incorrect,0.0,0.0,-45,45,220,-1,-1
"{'cat': 'II', 'resp': 'button'}",47,347,Left,60.43993555468758,72.16839620794978,3.021996777734379,1.1336185167412625,Right,Incorrect,0.0,0.0,-45,45,186,-1,-1
"{'cat': 'II', 'resp': 'button'}",47,348,Left,31.463124226617396,53.29989341409814,1.5731562113308697,0.8372327679342487,Left,Correct,0.0,0.0,-45,45,413,-1,-1
"{'cat': 'II', 'resp': 'button'}",47,349,Right,39.02332057652498,22.357653026338756,1.9511660288262491,0.3511931924952772,Left,Incorrect,0.0,0.0,-45,45,508,-1,-1
"{'cat': 'II', 'resp': 'button'}",47,350,Right,54.703697756069026,32.970730888311586,2.7351848878034515,0.5179030297110289,Right,Correct,0.0,0.0,-45,45,543,-1,-1
"{'cat': 'II', 'resp': 'button'}",47,351,Left,28.985107366276416,53.62214286000035,1.449255368313821,0.8422946503935974,Left,Correct,0.0,0.0,-45,45,388,-1,-1
"{'cat': 'II', 'resp': 'button'}",47,352,Left,40.32164532486163,66.33720720904607,2.0160822662430813,1.042022414138015,Right,Incorrect,0.0,0.0,-45,45,747,-1,-1
"{'cat': 'II', 'resp': 'button'}",47,353,Left,34.94242905068276,66.8035445815933,1.747121452534138,1.0493476244564588,Left,Correct,0.0,0.0,-45,45,499,-1,-1
"{'cat': 'II', 'resp': 'button'}",47,354,Left,66.65480357647095,82.1597953240522,3.332740178823548,1.290563047052417,Left,Correct,0.0,0.0,-45,45,895,-1,-1
"{'cat': 'II', 'resp': 'button'}",47,355,Left,31.96295651520852,43.632263177104704,1.598147825760426,0.6853739872834429,Left,Correct,0.0,0.0,-45,45,520,-1,-1
"{'cat': 'II', 'resp': 'button'}",47,356,Left,24.155968062189892,52.10199062204656,1.2077984031094946,0.8184161548781289,Left,Correct,0.0,0.0,-45,45,449,-1,-1
"{'cat': 'II', 'resp': 'button'}",47,357,Left,40.79825527283597,59.06291559460265,2.039912763641799,0.9277581086579886,Right,Incorrect,0.0,0.0,-45,45,617,-1,-1
"{'cat': 'II', 'resp': 'button'}",47,358,Left,38.03636021164987,68.90744863151372,1.9018180105824936,1.0823956719918977,Left,Correct,0.0,0.0,-45,45,332,-1,-1
"{'cat': 'II', 'resp': 'button'}",47,359,Left,39.94684232782836,50.98134017953424,1.997342116391418,0.8008130188909347,Left,Correct,0.0,0.0,-45,45,426,-1,-1
"{'cat': 'II', 'resp': 'button'}",47,360,Right,59.84778136027491,38.77445778910456,2.992389068013745,0.609067758685892,Left,Incorrect,0.0,0.0,-45,45,1988,-1,-1
"{'cat': 'II', 'resp': 'button'}",47,361,Right,61.87367717763288,39.15308313264246,3.0936838588816435,0.6150151916744999,Right,Correct,0.0,0.0,-45,45,255,-1,-1
"{'cat': 'II', 'resp': 'button'}",47,362,Left,15.117799137631458,40.87615604167224,0.755889956881573,0.6420811576375378,Left,Correct,0.0,0.0,-45,45,463,-1,-1
"{'cat': 'II', 'resp': 'button'}",47,363,Right,42.67285547142362,29.030388052454544,2.133642773571181,0.45600826918226045,Right,Correct,0.0,0.0,-45,45,472,-1,-1
"{'cat': 'II', 'resp': 'button'}",47,364,Left,37.1690242699659,62.386551443438435,1.8584512134982953,0.9799656584875395,Left,Correct,0.0,0.0,-45,45,380,-1,-1
"{'cat': 'II', 'resp': 'button'}",47,365,Right,84.68132215404988,66.81243473542736,4.234066107702494,1.0494872706663305,Right,Correct,0.0,0.0,-45,45,605,-1,-1
"{'cat': 'II', 'resp': 'button'}",47,366,Right,60.75679081680133,37.1034058833555,3.037839540840066,0.5828189367315498,Left,Incorrect,0.0,0.0,-45,45,516,-1,-1
"{'cat': 'II', 'resp': 'button'}",47,367,Right,60.75106541662567,33.91598174438727,3.0375532708312836,0.5327509954372629,Right,Correct,0.0,0.0,-45,45,303,-1,-1
"{'cat': 'II', 'resp': 'button'}",47,368,Right,67.48223147722607,38.32420335727146,3.374111573861303,0.6019951786094264,Right,Correct,0.0,0.0,-45,45,354,-1,-1
"{'cat': 'II', 'resp': 'button'}",47,369,Left,34.86878134198688,54.03759521769179,1.743439067099344,0.8488205607677972,Left,Correct,0.0,0.0,-45,45,315,-1,-1
"{'cat': 'II', 'resp': 'button'}",47,370,Left,25.657216842068546,56.71893248143252,1.2828608421034273,0.8909389080156195,Right,Incorrect,0.0,0.0,-45,45,287,-1,-1
"{'cat': 'II', 'resp': 'button'}",47,371,Right,62.429139031409434,45.526712173132914,3.1214569515704715,0.7151319225260568,Left,Incorrect,0.0,0.0,-45,45,330,-1,-1
"{'cat': 'II', 'resp': 'button'}",47,372,Left,29.736044691707377,47.03083306380178,1.4868022345853689,0.7387585982272381,Left,Correct,0.0,0.0,-45,45,482,-1,-1
"{'cat': 'II', 'resp': 'button'}",47,373,Left,25.41271292554996,43.27753670475441,1.270635646277498,0.6798019568855954,Left,Correct,0.0,0.0,-45,45,493,-1,-1
"{'cat': 'II', 'resp': 'button'}",47,374,Left,16.21701675346014,37.742989577171045,0.810850837673007,0.5928654939007835,Left,Correct,0.0,0.0,-45,45,437,-1,-1
"{'cat': 'II', 'resp': 'button'}",47,375,Left,16.519407852577515,38.67509373173561,0.8259703926288757,0.6075069517225862,Left,Correct,0.0,0.0,-45,45,333,-1,-1
"{'cat': 'II', 'resp': 'button'}",47,376,Right,76.86135190305163,54.22223268248472,3.8430675951525815,0.851720839282652,Right,Correct,0.0,0.0,-45,45,664,-1,-1
"{'cat': 'II', 'resp': 'button'}",47,377,Right,40.839102807323464,12.811992484257956,2.041955140366173,0.2012503073319622,Left,Incorrect,0.0,0.0,-45,45,360,-1,-1
"{'cat': 'II', 'resp': 'button'}",47,378,Right,66.88884099482753,49.869598367594676,3.3444420497413767,0.7833498193455448,Right,Correct,0.0,0.0,-45,45,239,-1,-1
"{'cat': 'II', 'resp': 'button'}",47,379,Left,61.55410579199615,75.69542071755076,3.0777052895998076,1.1890208881832305,Left,Correct,0.0,0.0,-45,45,269,-1,-1
"{'cat': 'II', 'resp': 'button'}",47,380,Left,37.62777424012677,61.31858121606748,1.8813887120063384,0.9631900213847334,Right,Incorrect,0.0,0.0,-45,45,887,-1,-1
"{'cat': 'II', 'resp': 'button'}",47,381,Right,77.08349361137445,63.97024829657701,3.8541746805687227,1.0048423104842066,Left,Incorrect,0.0,0.0,-45,45,361,-1,-1
"{'cat': 'II', 'resp': 'button'}",47,382,Right,72.3047704757796,56.605682306770966,3.6152385237889804,0.8891599784319469,Right,Correct,0.0,0.0,-45,45,791,-1,-1
"{'cat': 'II', 'resp': 'button'}",47,383,Right,65.43677304472787,46.182927354690186,3.2718386522363936,0.7254397264938289,Left,Incorrect,0.0,0.0,-45,45,543,-1,-1
"{'cat': 'II', 'resp': 'button'}",47,384,Left,19.77232364894621,42.211086151994095,0.9886161824473105,0.6630501907757524,Left,Correct,0.0,0.0,-45,45,536,-1,-1
"{'cat': 'II', 'resp': 'button'}",47,385,Right,45.47154105948235,38.11549616072779,2.2735770529741175,0.598716813632362,Right,Correct,0.0,0.0,-45,45,788,-1,-1
"{'cat': 'II', 'resp': 'button'}",47,386,Right,81.45693574494426,66.67889857552571,4.0728467872472125,1.0473896895716523,Left,Incorrect,0.0,0.0,-45,45,667,-1,-1
"{'cat': 'II', 'resp': 'button'}",47,387,Right,54.06799492634344,25.138721079094616,2.703399746317172,0.39487810731363265,Right,Correct,0.0,0.0,-45,45,602,-1,-1
"{'cat': 'II', 'resp': 'button'}",47,388,Right,62.4978954584091,33.48014724688129,3.1248947729204546,0.525904923159534,Left,Incorrect,0.0,0.0,-45,45,316,-1,-1
"{'cat': 'II', 'resp': 'button'}",47,389,Right,34.386384789385495,14.458579059759707,1.7193192394692747,0.22711482877744157,Right,Correct,0.0,0.0,-45,45,305,-1,-1
"{'cat': 'II', 'resp': 'button'}",47,390,Left,47.756889044651906,69.38024399425643,2.3878444522325952,1.0898223241831169,Left,Correct,0.0,0.0,-45,45,376,-1,-1
"{'cat': 'II', 'resp': 'button'}",47,391,Left,35.883933501448006,54.52081462421443,1.7941966750724003,0.8564109534558152,Right,Incorrect,0.0,0.0,-45,45,284,-1,-1
"{'cat': 'II', 'resp': 'button'}",47,392,Left,68.61751098149873,88.38495050307219,3.4308755490749365,1.3883475559417455,Left,Correct,0.0,0.0,-45,45,250,-1,-1
"{'cat': 'II', 'resp': 'button'}",47,393,Right,84.3395439938109,68.76148797971757,4.216977199690546,1.0801029274349179,Right,Correct,0.0,0.0,-45,45,449,-1,-1
"{'cat': 'II', 'resp': 'button'}",47,394,Left,42.99643050753475,60.706182307335744,2.1498215253767374,0.9535704818210432,Left,Correct,0.0,0.0,-45,45,262,-1,-1
"{'cat': 'II', 'resp': 'button'}",47,395,Left,46.946091434806675,63.6861713685792,2.3473045717403336,1.0003800405339451,Right,Incorrect,0.0,0.0,-45,45,430,-1,-1
"{'cat': 'II', 'resp': 'button'}",47,396,Right,88.41195916202865,63.25151049985406,4.420597958101433,0.9935524035739958,107,Incorrect,0.0,0.0,-45,45,261,-1,-1
"{'cat': 'II', 'resp': 'button'}",47,397,Left,34.70081336252791,64.49675770306874,1.7350406681263957,1.0131127009016083,Right,Incorrect,0.0,0.0,-45,45,277,-1,-1
"{'cat': 'II', 'resp': 'button'}",47,398,Right,74.4852319243372,46.07356373913524,3.72426159621686,0.7237218468378419,Left,Incorrect,0.0,0.0,-45,45,277,-1,-1
"{'cat': 'II', 'resp': 'button'}",47,399,Right,51.22725407028849,38.141012024363576,2.5613627035144244,0.5991176158811028,Right,Correct,0.0,0.0,-45,45,219,-1,-1
