condition,subject,trial,cat,x,y,xt,yt,resp,fb,rotation,su,target_angle_left,target_angle_right,rt,mt,ep
"{'cat': 'II', 'resp': 'button'}",27,0,Right,84.89980132379122,66.37215888295596,4.244990066189561,1.0425714337479448,Left,Incorrect,0.0,0.0,-45,45,1469,-1,-1
"{'cat': 'II', 'resp': 'button'}",27,1,Right,32.126412851356164,11.841414199966277,1.6063206425678083,0.18600449929363955,Right,Correct,0.0,0.0,-45,45,3427,-1,-1
"{'cat': 'II', 'resp': 'button'}",27,2,Right,82.54432850613952,56.605090874054866,4.127216425306976,0.889150688228567,Right,Correct,0.0,0.0,-45,45,1786,-1,-1
"{'cat': 'II', 'resp': 'button'}",27,3,Left,64.81750333030044,78.6438761748989,3.240875166515022,1.2353351182044388,Right,Incorrect,0.0,0.0,-45,45,2203,-1,-1
"{'cat': 'II', 'resp': 'button'}",27,4,Left,63.361617527355655,74.31245776074232,3.168080876367783,1.1672973568567493,Left,Correct,0.0,0.0,-45,45,6205,-1,-1
"{'cat': 'II', 'resp': 'button'}",27,5,Left,56.07011431529109,73.83954197925163,2.8035057157645547,1.1598688131322603,Left,Correct,0.0,0.0,-45,45,2198,-1,-1
"{'cat': 'II', 'resp': 'button'}",27,6,Right,36.39038027693611,23.024297997017996,1.8195190138468058,0.3616648272074697,Left,Incorrect,0.0,0.0,-45,45,2610,-1,-1
"{'cat': 'II', 'resp': 'button'}",27,7,Left,54.22218689697273,66.03348552695583,2.7111093448486367,1.037251565112062,Left,Correct,0.0,0.0,-45,45,5929,-1,-1
"{'cat': 'II', 'resp': 'button'}",27,8,Left,36.63581688006822,66.94503739070853,1.8317908440034107,1.0515701883047197,Left,Correct,0.0,0.0,-45,45,3574,-1,-1
"{'cat': 'II', 'resp': 'button'}",27,9,Left,42.94253175715577,60.4248708893236,2.1471265878577883,0.9491516524000541,Left,Correct,0.0,0.0,-45,45,2060,-1,-1
"{'cat': 'II', 'resp': 'button'}",27,10,Right,61.228897506157566,38.82691207094056,3.0614448753078785,0.6098917086182186,Left,Incorrect,0.0,0.0,-45,45,1599,-1,-1
"{'cat': 'II', 'resp': 'button'}",27,11,Right,58.119871409598616,25.56313232926595,2.9059935704799305,0.40154474364182824,Left,Incorrect,0.0,0.0,-45,45,6035,-1,-1
"{'cat': 'II', 'resp': 'button'}",27,12,Left,24.734230689920793,44.447167822249604,1.2367115344960395,0.69817447951626,Right,Incorrect,0.0,0.0,-45,45,7255,-1,-1
"{'cat': 'II', 'resp': 'button'}",27,13,Right,43.67116138848299,29.934023391605095,2.1835580694241497,0.47020253989725797,Left,Incorrect,0.0,0.0,-45,45,1880,-1,-1
"{'cat': 'II', 'resp': 'button'}",27,14,Right,70.65819881587143,47.78618287908168,3.532909940793571,0.7506236053801068,Left,Incorrect,0.0,0.0,-45,45,4299,-1,-1
"{'cat': 'II', 'resp': 'button'}",27,15,Right,42.51364812626729,15.75183865555789,2.1256824063133646,0.24742930300416197,Right,Correct,0.0,0.0,-45,45,1509,-1,-1
"{'cat': 'II', 'resp': 'button'}",27,16,Left,25.043989303576517,39.34035065981679,1.252199465178826,0.617956783112634,Right,Incorrect,0.0,0.0,-45,45,3330,-1,-1
"{'cat': 'II', 'resp': 'button'}",27,17,Right,83.15871445538912,68.16449497389709,4.157935722769456,1.0707253832282675,Left,Incorrect,0.0,0.0,-45,45,4003,-1,-1
"{'cat': 'II', 'resp': 'button'}",27,18,Left,57.771943271164716,74.25447262467786,2.888597163558236,1.166386528469362,Left,Correct,0.0,0.0,-45,45,8057,-1,-1
"{'cat': 'II', 'resp': 'button'}",27,19,Right,66.28537497124448,38.669432085873666,3.314268748562224,0.6074180187973508,Right,Correct,0.0,0.0,-45,45,8979,-1,-1
"{'cat': 'II', 'resp': 'button'}",27,20,Left,50.17570762554277,60.39913647929209,2.5087853812771383,0.9487474172325565,Right,Incorrect,0.0,0.0,-45,45,3667,-1,-1
"{'cat': 'II', 'resp': 'button'}",27,21,Left,51.79712938148165,80.55077511295623,2.589856469074083,1.2652886166791342,Left,Correct,0.0,0.0,-45,45,3959,-1,-1
"{'cat': 'II', 'resp': 'button'}",27,22,Right,44.14709562360764,33.16210864266593,2.207354781180382,0.5209091844467293,Left,Incorrect,0.0,0.0,-45,45,8005,-1,-1
"{'cat': 'II', 'resp': 'button'}",27,23,Left,25.2233214584844,54.88063565449672,1.26116607292422,0.8620630089825249,Left,Correct,0.0,0.0,-45,45,16743,-1,-1
"{'cat': 'II', 'resp': 'button'}",27,24,Left,44.67305106316159,73.26300569323503,2.233652553158079,1.1508126023288716,Left,Correct,0.0,0.0,-45,45,1026,-1,-1
"{'cat': 'II', 'resp': 'button'}",27,25,Right,42.91966148375026,27.110897078541484,2.1459830741875128,0.4258569754708746,Left,Incorrect,0.0,0.0,-45,45,231,-1,-1
"{'cat': 'II', 'resp': 'button'}",27,26,Right,60.26767060850118,27.60044453201565,3.013383530425059,0.4335467688879647,Left,Incorrect,0.0,0.0,-45,45,570,-1,-1
"{'cat': 'II', 'resp': 'button'}",27,27,Left,48.58262845183999,78.83291241777614,2.429131422591999,1.2383044925638655,Left,Correct,0.0,0.0,-45,45,9739,-1,-1
"{'cat': 'II', 'resp': 'button'}",27,28,Left,54.44830455513615,77.42554812022878,2.722415227756807,1.2161976658733689,Left,Correct,0.0,0.0,-45,45,6760,-1,-1
"{'cat': 'II', 'resp': 'button'}",27,29,Left,20.734048043820895,43.515429646947894,1.0367024021910447,0.683538770483275,Left,Correct,0.0,0.0,-45,45,7451,-1,-1
"{'cat': 'II', 'resp': 'button'}",27,30,Right,64.09117006847382,41.88228541415669,3.204558503423691,0.657885400863328,Right,Correct,0.0,0.0,-45,45,6248,-1,-1
"{'cat': 'II', 'resp': 'button'}",27,31,Left,18.364742963894557,33.624442335064,0.9182371481947278,0.5281715051044535,Right,Incorrect,0.0,0.0,-45,45,5676,-1,-1
"{'cat': 'II', 'resp': 'button'}",27,32,Left,48.77062346486075,57.846790934979765,2.4385311732430375,0.9086552671753855,Left,Correct,0.0,0.0,-45,45,11286,-1,-1
"{'cat': 'II', 'resp': 'button'}",27,33,Left,51.22955980192772,78.70022520607166,2.561477990096386,1.236220246716285,Left,Correct,0.0,0.0,-45,45,10480,-1,-1
"{'cat': 'II', 'resp': 'button'}",27,34,Right,52.24925930823997,27.5609632438844,2.6124629654119986,0.4329265982642277,Right,Correct,0.0,0.0,-45,45,10560,-1,-1
"{'cat': 'II', 'resp': 'button'}",27,35,Right,49.782617028980226,28.430887506981193,2.489130851449011,0.44659133663484973,Right,Correct,0.0,0.0,-45,45,10741,-1,-1
"{'cat': 'II', 'resp': 'button'}",27,36,Right,66.87526459592569,58.5547917621777,3.3437632297962843,0.919776518162688,Left,Incorrect,0.0,0.0,-45,45,11030,-1,-1
"{'cat': 'II', 'resp': 'button'}",27,37,Right,73.2695118357206,52.60356160883728,3.6634755917860304,0.8262948135149064,Right,Correct,0.0,0.0,-45,45,677,-1,-1
"{'cat': 'II', 'resp': 'button'}",27,38,Right,83.70538202006149,56.642433931437786,4.185269101003075,0.8897372716022509,Right,Correct,0.0,0.0,-45,45,797,-1,-1
"{'cat': 'II', 'resp': 'button'}",27,39,Left,67.21782993854718,81.19635310360545,3.3608914969273593,1.2754293320428483,Right,Incorrect,0.0,0.0,-45,45,402,-1,-1
"{'cat': 'II', 'resp': 'button'}",27,40,Right,82.01322083021832,66.03801167484329,4.100661041510915,1.0373226616768232,Right,Correct,0.0,0.0,-45,45,381,-1,-1
"{'cat': 'II', 'resp': 'button'}",27,41,Right,68.44779476427408,59.86167211762539,3.422389738213704,0.9403049467816645,Left,Incorrect,0.0,0.0,-45,45,309,-1,-1
"{'cat': 'II', 'resp': 'button'}",27,42,Left,63.89149103004188,82.46689420453245,3.194574551502094,1.295386944986629,Left,Correct,0.0,0.0,-45,45,313,-1,-1
"{'cat': 'II', 'resp': 'button'}",27,43,Left,21.535218330775145,51.515468408885646,1.076760916538757,0.809203085497961,Right,Incorrect,0.0,0.0,-45,45,299,-1,-1
"{'cat': 'II', 'resp': 'button'}",27,44,Right,47.57185878455472,40.39952162831117,2.378592939227736,0.6345942017802217,Left,Incorrect,0.0,0.0,-45,45,1711,-1,-1
"{'cat': 'II', 'resp': 'button'}",27,45,Right,55.16520050323391,23.266084629419137,2.7582600251616958,0.3654628027479078,Right,Correct,0.0,0.0,-45,45,711,-1,-1
"{'cat': 'II', 'resp': 'button'}",27,46,Left,42.34592345076768,71.0817931290715,2.117296172538384,1.1165501954914023,Right,Incorrect,0.0,0.0,-45,45,2946,-1,-1
"{'cat': 'II', 'resp': 'button'}",27,47,Right,74.8571234445668,61.94733593825772,3.7428561722283398,0.9730664774654472,Left,Incorrect,0.0,0.0,-45,45,2099,-1,-1
"{'cat': 'II', 'resp': 'button'}",27,48,Right,58.77139057636954,44.34728592816863,2.9385695288184768,0.6966055383929028,Left,Incorrect,0.0,0.0,-45,45,1467,-1,-1
"{'cat': 'II', 'resp': 'button'}",27,49,Left,44.76392572549659,59.618386589773884,2.2381962862748295,0.9364834266465495,Right,Incorrect,0.0,0.0,-45,45,15343,-1,-1
"{'cat': 'II', 'resp': 'button'}",27,50,Left,42.95349370251654,60.171474335286575,2.147674685125827,0.9451713086370155,Left,Correct,0.0,0.0,-45,45,1635,-1,-1
"{'cat': 'II', 'resp': 'button'}",27,51,Right,48.248389208885044,25.867966984299187,2.4124194604442524,0.40633307520588813,Left,Incorrect,0.0,0.0,-45,45,419,-1,-1
"{'cat': 'II', 'resp': 'button'}",27,52,Right,36.58963359165958,25.954888780928385,1.829481679582979,0.4076984395945238,Right,Correct,0.0,0.0,-45,45,621,-1,-1
"{'cat': 'II', 'resp': 'button'}",27,53,Right,67.79527857238139,38.34209060033588,3.3897639286190695,0.6022761507664474,Right,Correct,0.0,0.0,-45,45,4379,-1,-1
"{'cat': 'II', 'resp': 'button'}",27,54,Right,84.1695236081421,54.67051115311268,4.2084761804071045,0.8587623810330881,Right,Correct,0.0,0.0,-45,45,2259,-1,-1
"{'cat': 'II', 'resp': 'button'}",27,55,Left,26.818471227768942,45.64273867411629,1.3409235613884471,0.7169544625416122,Right,Incorrect,0.0,0.0,-45,45,1652,-1,-1
"{'cat': 'II', 'resp': 'button'}",27,56,Right,39.93819168400299,20.035800680865666,1.9969095842001494,0.3147216211389848,Right,Correct,0.0,0.0,-45,45,1321,-1,-1
"{'cat': 'II', 'resp': 'button'}",27,57,Right,44.04652956353434,20.90373798551512,2.202326478176717,0.328355148439301,Left,Incorrect,0.0,0.0,-45,45,396,-1,-1
"{'cat': 'II', 'resp': 'button'}",27,58,Left,48.915116140427244,72.13563904958933,2.4457558070213623,1.1331039685009743,Left,Correct,0.0,0.0,-45,45,910,-1,-1
"{'cat': 'II', 'resp': 'button'}",27,59,Right,50.718441213937936,44.01327557254869,2.5359220606968966,0.6913589159957104,Left,Incorrect,0.0,0.0,-45,45,2001,-1,-1
"{'cat': 'II', 'resp': 'button'}",27,60,Left,46.71076180950007,75.0165163851861,2.3355380904750036,1.1783566838679949,Left,Correct,0.0,0.0,-45,45,2867,-1,-1
"{'cat': 'II', 'resp': 'button'}",27,61,Right,39.06640188131417,28.77735321403157,1.9533200940657085,0.452033607234801,Left,Incorrect,0.0,0.0,-45,45,1830,-1,-1
"{'cat': 'II', 'resp': 'button'}",27,62,Left,29.528606581830832,58.61910104666188,1.4764303290915415,0.9207866860411535,Left,Correct,0.0,0.0,-45,45,954,-1,-1
"{'cat': 'II', 'resp': 'button'}",27,63,Right,81.23136877784242,58.02395435156975,4.061568438892121,0.9114381436156052,Left,Incorrect,0.0,0.0,-45,45,1695,-1,-1
"{'cat': 'II', 'resp': 'button'}",27,64,Left,60.47387476378681,82.3945434308012,3.0236937381893405,1.2942504616904513,Right,Incorrect,0.0,0.0,-45,45,3358,-1,-1
"{'cat': 'II', 'resp': 'button'}",27,65,Right,66.24510242466341,50.44424640628003,3.3122551212331706,0.7923763696292132,Left,Incorrect,0.0,0.0,-45,45,2607,-1,-1
"{'cat': 'II', 'resp': 'button'}",27,66,Right,52.27661373521106,23.19487702543958,2.613830686760553,0.3643442763201983,Left,Incorrect,0.0,0.0,-45,45,7948,-1,-1
"{'cat': 'II', 'resp': 'button'}",27,67,Left,55.33619233870044,79.22396542066377,2.7668096169350225,1.2444471387690457,Left,Correct,0.0,0.0,-45,45,1574,-1,-1
"{'cat': 'II', 'resp': 'button'}",27,68,Left,56.99532656855979,82.21146995972997,2.8497663284279895,1.291374750331528,Right,Incorrect,0.0,0.0,-45,45,981,-1,-1
"{'cat': 'II', 'resp': 'button'}",27,69,Right,58.97168712182137,42.85282429045784,2.9485843560910685,0.673130589882383,Left,Incorrect,0.0,0.0,-45,45,619,-1,-1
"{'cat': 'II', 'resp': 'button'}",27,70,Left,14.995064118981496,32.421577614626635,0.7497532059490749,0.5092769502595117,Right,Incorrect,0.0,0.0,-45,45,277,-1,-1
"{'cat': 'II', 'resp': 'button'}",27,71,Left,50.230802143131534,81.45234234543494,2.5115401071565766,1.2794504016504962,Left,Correct,0.0,0.0,-45,45,278,-1,-1
"{'cat': 'II', 'resp': 'button'}",27,72,Right,68.554481852657,48.9303441016481,3.42772409263285,0.7685960478367917,Left,Incorrect,0.0,0.0,-45,45,492,-1,-1
"{'cat': 'II', 'resp': 'button'}",27,73,Left,12.176605417342724,33.03497631998361,0.6088302708671363,0.5189121945918664,Right,Incorrect,0.0,0.0,-45,45,318,-1,-1
"{'cat': 'II', 'resp': 'button'}",27,74,Right,85.37924091711457,66.52574349282696,4.268962045855728,1.044983935158321,Left,Incorrect,0.0,0.0,-45,45,1507,-1,-1
"{'cat': 'II', 'resp': 'button'}",27,75,Left,10.325607743689453,32.21312173309828,0.5162803871844727,0.5060025329294763,Left,Correct,0.0,0.0,-45,45,479,-1,-1
"{'cat': 'II', 'resp': 'button'}",27,76,Right,44.843133377805444,24.98824609687493,2.242156668890272,0.3925144518201805,Right,Correct,0.0,0.0,-45,45,8682,-1,-1
"{'cat': 'II', 'resp': 'button'}",27,77,Left,52.38796086695751,73.04422390835303,2.619398043347876,1.1473759860882489,Right,Incorrect,0.0,0.0,-45,45,6421,-1,-1
"{'cat': 'II', 'resp': 'button'}",27,78,Right,63.3087514599197,43.23248563564161,3.165437572995985,0.6790942963467896,Right,Correct,0.0,0.0,-45,45,5585,-1,-1
"{'cat': 'II', 'resp': 'button'}",27,79,Right,45.52296403234131,31.099750676095244,2.2761482016170653,0.48851374126247504,Right,Correct,0.0,0.0,-45,45,2312,-1,-1
"{'cat': 'II', 'resp': 'button'}",27,80,Left,34.22383931385588,46.1459151551299,1.711191965692794,0.72485834022267,Right,Incorrect,0.0,0.0,-45,45,1383,-1,-1
"{'cat': 'II', 'resp': 'button'}",27,81,Right,45.1425938607766,18.49227868364055,2.25712969303883,0.29047603430330143,Left,Incorrect,0.0,0.0,-45,45,2316,-1,-1
"{'cat': 'II', 'resp': 'button'}",27,82,Left,66.79022559557943,79.56340077563418,3.3395112797789714,1.249778976856764,Left,Correct,0.0,0.0,-45,45,1761,-1,-1
"{'cat': 'II', 'resp': 'button'}",27,83,Right,32.21998840806179,10.407634410983675,1.6109994204030895,0.16348273903397326,Right,Correct,0.0,0.0,-45,45,1726,-1,-1
"{'cat': 'II', 'resp': 'button'}",27,84,Right,87.53160966740789,63.35219566193928,4.376580483370395,0.995133962401658,Left,Incorrect,0.0,0.0,-45,45,1938,-1,-1
"{'cat': 'II', 'resp': 'button'}",27,85,Right,67.8243422566279,57.63443388080768,3.391217112831395,0.9053195703687602,Right,Correct,0.0,0.0,-45,45,1368,-1,-1
"{'cat': 'II', 'resp': 'button'}",27,86,Right,72.1491969886664,57.981448971373524,3.60745984943332,0.9107704706647927,Right,Correct,0.0,0.0,-45,45,1048,-1,-1
"{'cat': 'II', 'resp': 'button'}",27,87,Left,16.440290493830936,44.74361520570422,0.8220145246915468,0.7028310641264447,Right,Incorrect,0.0,0.0,-45,45,3940,-1,-1
"{'cat': 'II', 'resp': 'button'}",27,88,Left,31.09751033644237,52.6643474070125,1.5548755168221187,0.8272496345998557,Right,Incorrect,0.0,0.0,-45,45,1268,-1,-1
"{'cat': 'II', 'resp': 'button'}",27,89,Right,67.71089141787297,46.75007572252082,3.3855445708936487,0.7343484722231897,Right,Correct,0.0,0.0,-45,45,1094,-1,-1
"{'cat': 'II', 'resp': 'button'}",27,90,Left,42.593365382177716,51.92892943693636,2.129668269108886,0.8156977161393101,Right,Incorrect,0.0,0.0,-45,45,1785,-1,-1
"{'cat': 'II', 'resp': 'button'}",27,91,Left,39.91519922084581,71.30391987283784,1.9957599610422903,1.120039354223313,Left,Correct,0.0,0.0,-45,45,1780,-1,-1
"{'cat': 'II', 'resp': 'button'}",27,92,Right,60.442602298201436,29.877052899093187,3.022130114910072,0.46930764949352394,Right,Correct,0.0,0.0,-45,45,2329,-1,-1
"{'cat': 'II', 'resp': 'button'}",27,93,Left,31.151168575856264,41.19416034595833,1.5575584287928133,0.6470763575683133,Left,Correct,0.0,0.0,-45,45,828,-1,-1
"{'cat': 'II', 'resp': 'button'}",27,94,Left,54.837477600498495,83.01649422140804,2.7418738800249245,1.3040200418637748,Left,Correct,0.0,0.0,-45,45,1091,-1,-1
"{'cat': 'II', 'resp': 'button'}",27,95,Right,46.1480199215271,28.671296746678273,2.307400996076355,0.450367676141287,Left,Incorrect,0.0,0.0,-45,45,2057,-1,-1
"{'cat': 'II', 'resp': 'button'}",27,96,Left,61.242949167140324,75.16339507928855,3.062147458357016,1.1806638489998007,Left,Correct,0.0,0.0,-45,45,977,-1,-1
"{'cat': 'II', 'resp': 'button'}",27,97,Left,21.47472540482404,47.709024174852374,1.0737362702412019,0.7494115992882703,Left,Correct,0.0,0.0,-45,45,841,-1,-1
"{'cat': 'II', 'resp': 'button'}",27,98,Right,80.57988020516855,51.058529876582355,4.028994010258427,0.8020255118168305,Right,Correct,0.0,0.0,-45,45,2076,-1,-1
"{'cat': 'II', 'resp': 'button'}",27,99,Right,79.77199354344856,52.73039325708117,3.988599677172428,0.8282870803867349,Right,Correct,0.0,0.0,-45,45,886,-1,-1
"{'cat': 'II', 'resp': 'button'}",27,100,Right,60.92542736617398,39.443069046323416,3.0462713683086986,0.619570279754823,Right,Correct,0.0,0.0,-45,45,934,-1,-1
"{'cat': 'II', 'resp': 'button'}",27,101,Left,31.829232476850088,47.94756221469554,1.5914616238425043,0.7531585460561352,Left,Correct,0.0,0.0,-45,45,888,-1,-1
"{'cat': 'II', 'resp': 'button'}",27,102,Left,60.94287104069036,70.8809865717545,3.0471435520345183,1.1133959334651036,Left,Correct,0.0,0.0,-45,45,1223,-1,-1
"{'cat': 'II', 'resp': 'button'}",27,103,Right,49.68403667466873,39.679405545371765,2.4842018337334366,0.6232826448007501,Right,Correct,0.0,0.0,-45,45,1060,-1,-1
"{'cat': 'II', 'resp': 'button'}",27,104,Left,34.16803001711318,49.93733318327021,1.708401500855659,0.7844137953421375,Left,Correct,0.0,0.0,-45,45,763,-1,-1
"{'cat': 'II', 'resp': 'button'}",27,105,Left,26.60745492830246,57.96557018283874,1.330372746415123,0.9105210472377487,Left,Correct,0.0,0.0,-45,45,947,-1,-1
"{'cat': 'II', 'resp': 'button'}",27,106,Left,67.72185446088969,85.80230954624321,3.3860927230444844,1.3477795266575752,Left,Correct,0.0,0.0,-45,45,2594,-1,-1
"{'cat': 'II', 'resp': 'button'}",27,107,Left,18.380910000925848,35.11909573792596,0.9190455000462925,0.551649465854924,Left,Correct,0.0,0.0,-45,45,913,-1,-1
"{'cat': 'II', 'resp': 'button'}",27,108,Right,81.67548578884293,51.890846112280165,4.083774289442147,0.8150995046744893,Right,Correct,0.0,0.0,-45,45,2533,-1,-1
"{'cat': 'II', 'resp': 'button'}",27,109,Left,24.73079885075162,49.86431520153523,1.236539942537581,0.7832668315671447,Left,Correct,0.0,0.0,-45,45,852,-1,-1
"{'cat': 'II', 'resp': 'button'}",27,110,Left,22.564362980750218,36.01398561234908,1.128218149037511,0.5657063631312219,Left,Correct,0.0,0.0,-45,45,735,-1,-1
"{'cat': 'II', 'resp': 'button'}",27,111,Right,30.941982663657416,12.89410750469452,1.5470991331828707,0.20254016705672662,Right,Correct,0.0,0.0,-45,45,1652,-1,-1
"{'cat': 'II', 'resp': 'button'}",27,112,Right,63.66987312681433,46.50542841547372,3.183493656340717,0.7305055613104912,Right,Correct,0.0,0.0,-45,45,704,-1,-1
"{'cat': 'II', 'resp': 'button'}",27,113,Left,59.64488606220959,75.81808774530859,2.9822443031104795,1.1909477373494388,Left,Correct,0.0,0.0,-45,45,727,-1,-1
"{'cat': 'II', 'resp': 'button'}",27,114,Right,64.75515887729284,38.033015923165614,3.237757943864642,0.5974212170904035,Right,Correct,0.0,0.0,-45,45,514,-1,-1
"{'cat': 'II', 'resp': 'button'}",27,115,Left,48.32741321338277,74.60149812807157,2.4163706606691386,1.1718375923297117,Left,Correct,0.0,0.0,-45,45,726,-1,-1
"{'cat': 'II', 'resp': 'button'}",27,116,Right,41.48811228436475,16.709030345863432,2.0744056142182377,0.26246483491586736,Left,Incorrect,0.0,0.0,-45,45,940,-1,-1
"{'cat': 'II', 'resp': 'button'}",27,117,Left,27.403875579293178,51.42971480651304,1.370193778964659,0.8078560710617978,Left,Correct,0.0,0.0,-45,45,976,-1,-1
"{'cat': 'II', 'resp': 'button'}",27,118,Right,60.49203953284066,27.9190653361849,3.024601976642033,0.4385516527762596,Right,Correct,0.0,0.0,-45,45,653,-1,-1
"{'cat': 'II', 'resp': 'button'}",27,119,Left,52.52348209490348,61.86592206672133,2.6261741047451737,0.9717876313618521,Right,Incorrect,0.0,0.0,-45,45,942,-1,-1
"{'cat': 'II', 'resp': 'button'}",27,120,Right,58.27526686026618,35.82206930365493,2.9137633430133087,0.5626917488037338,Right,Correct,0.0,0.0,-45,45,4224,-1,-1
"{'cat': 'II', 'resp': 'button'}",27,121,Left,68.67930900465163,87.83135479556981,3.433965450232581,1.3796516949030038,Left,Correct,0.0,0.0,-45,45,1013,-1,-1
"{'cat': 'II', 'resp': 'button'}",27,122,Left,63.52600603009919,87.68688739876181,3.1763003015049596,1.3773824063405276,Left,Correct,0.0,0.0,-45,45,792,-1,-1
"{'cat': 'II', 'resp': 'button'}",27,123,Right,31.399426874827,13.373709591969806,1.5699713437413498,0.21007373902687848,Left,Incorrect,0.0,0.0,-45,45,1173,-1,-1
"{'cat': 'II', 'resp': 'button'}",27,124,Left,14.29325384271409,34.62961108584791,0.7146626921357045,0.5439606589198573,Left,Correct,0.0,0.0,-45,45,959,-1,-1
"{'cat': 'II', 'resp': 'button'}",27,125,Right,67.93682931837299,46.96820528881489,3.396841465918649,0.7377748434381908,Right,Correct,0.0,0.0,-45,45,769,-1,-1
"{'cat': 'II', 'resp': 'button'}",27,126,Left,60.992731628892365,85.21045293684347,3.0496365814446182,1.3384826647772312,Left,Correct,0.0,0.0,-45,45,1599,-1,-1
"{'cat': 'II', 'resp': 'button'}",27,127,Left,57.51865535855975,70.78969866615077,2.8759327679279876,1.1119619863970722,Left,Correct,0.0,0.0,-45,45,1363,-1,-1
"{'cat': 'II', 'resp': 'button'}",27,128,Left,50.11359150100806,61.440301864240354,2.5056795750504026,0.9651020048551839,Right,Incorrect,0.0,0.0,-45,45,1236,-1,-1
"{'cat': 'II', 'resp': 'button'}",27,129,Left,13.704112069993272,34.10360685291863,0.6852056034996636,0.5356982037502185,Left,Correct,0.0,0.0,-45,45,762,-1,-1
"{'cat': 'II', 'resp': 'button'}",27,130,Left,51.227091810381005,58.97002221040135,2.5613545905190502,0.9262989427911192,Right,Incorrect,0.0,0.0,-45,45,1035,-1,-1
"{'cat': 'II', 'resp': 'button'}",27,131,Left,52.59723561987306,60.908883889429525,2.629861780993653,0.9567545108269275,Right,Incorrect,0.0,0.0,-45,45,2113,-1,-1
"{'cat': 'II', 'resp': 'button'}",27,132,Right,66.1527223511813,44.23209142438443,3.3076361175590647,0.694796067358791,Left,Incorrect,0.0,0.0,-45,45,1370,-1,-1
"{'cat': 'II', 'resp': 'button'}",27,133,Right,33.49197845914881,19.278731084763887,1.6745989229574405,0.302829599732137,Right,Correct,0.0,0.0,-45,45,4057,-1,-1
"{'cat': 'II', 'resp': 'button'}",27,134,Right,62.037659097732714,51.25931029662258,3.101882954886636,0.8051793632797457,Left,Incorrect,0.0,0.0,-45,45,1503,-1,-1
"{'cat': 'II', 'resp': 'button'}",27,135,Left,31.229412130550806,50.92679500578689,1.56147060652754,0.7999562253052673,Left,Correct,0.0,0.0,-45,45,1984,-1,-1
"{'cat': 'II', 'resp': 'button'}",27,136,Right,31.836863447659248,12.287550155111532,1.5918431723829625,0.19301238648957258,Left,Incorrect,0.0,0.0,-45,45,1178,-1,-1
"{'cat': 'II', 'resp': 'button'}",27,137,Left,25.489782625542503,46.107094482819704,1.2744891312771252,0.7242485465279843,Left,Correct,0.0,0.0,-45,45,1457,-1,-1
"{'cat': 'II', 'resp': 'button'}",27,138,Right,45.78543115076788,21.167599479027142,2.2892715575383935,0.332499875087214,Right,Correct,0.0,0.0,-45,45,2761,-1,-1
"{'cat': 'II', 'resp': 'button'}",27,139,Right,32.399158843481274,17.605238515418883,1.6199579421740637,0.27654243992368016,Left,Incorrect,0.0,0.0,-45,45,1771,-1,-1
"{'cat': 'II', 'resp': 'button'}",27,140,Right,81.94449436415623,61.059969851216906,4.097224718207811,0.9591277635649864,Left,Incorrect,0.0,0.0,-45,45,1548,-1,-1
"{'cat': 'II', 'resp': 'button'}",27,141,Right,58.61652867929554,47.817989788747425,2.9308264339647767,0.7511232271488033,Right,Correct,0.0,0.0,-45,45,1373,-1,-1
"{'cat': 'II', 'resp': 'button'}",27,142,Right,51.12633768230402,32.186952877793715,2.556316884115201,0.505591473511588,Right,Correct,0.0,0.0,-45,45,2021,-1,-1
"{'cat': 'II', 'resp': 'button'}",27,143,Left,64.3116858314188,81.95667246286422,3.21558429157094,1.2873724006099956,Left,Correct,0.0,0.0,-45,45,1631,-1,-1
"{'cat': 'II', 'resp': 'button'}",27,144,Left,57.0486241900524,66.97626547785995,2.85243120950262,1.0520607179506225,Left,Correct,0.0,0.0,-45,45,2187,-1,-1
"{'cat': 'II', 'resp': 'button'}",27,145,Left,61.4794910299857,86.14295419384557,3.073974551499285,1.3531303602695364,Left,Correct,0.0,0.0,-45,45,1021,-1,-1
"{'cat': 'II', 'resp': 'button'}",27,146,Right,65.28591938997727,49.02757040837071,3.264295969498863,0.7701232750914687,Left,Incorrect,0.0,0.0,-45,45,1909,-1,-1
"{'cat': 'II', 'resp': 'button'}",27,147,Left,45.83780264021281,73.31669411506974,2.29189013201064,1.1516559380869655,Left,Correct,0.0,0.0,-45,45,1518,-1,-1
"{'cat': 'II', 'resp': 'button'}",27,148,Left,52.62971304922008,60.33688957459433,2.631485652461004,0.9477696451400206,Left,Correct,0.0,0.0,-45,45,3009,-1,-1
"{'cat': 'II', 'resp': 'button'}",27,149,Left,65.0523635961416,81.18433086015082,3.2526181798070803,1.2752404870842646,Left,Correct,0.0,0.0,-45,45,2558,-1,-1
"{'cat': 'II', 'resp': 'button'}",27,150,Left,25.329783583818674,39.382302415551834,1.2664891791909338,0.6186157597507461,Left,Correct,0.0,0.0,-45,45,2145,-1,-1
"{'cat': 'II', 'resp': 'button'}",27,151,Right,80.58183685094325,66.69689040052326,4.029091842547163,1.0476723044978373,Left,Incorrect,0.0,0.0,-45,45,1338,-1,-1
"{'cat': 'II', 'resp': 'button'}",27,152,Left,51.1097460229615,75.26223271048909,2.555487301148075,1.1822163868801898,Right,Incorrect,0.0,0.0,-45,45,1833,-1,-1
"{'cat': 'II', 'resp': 'button'}",27,153,Left,45.32466451816445,57.463709511606005,2.266233225908222,0.9026378382483967,Left,Correct,0.0,0.0,-45,45,1080,-1,-1
"{'cat': 'II', 'resp': 'button'}",27,154,Right,74.28954683027999,44.14735006246824,3.7144773415139993,0.6934649531585356,Left,Incorrect,0.0,0.0,-45,45,22489,-1,-1
"{'cat': 'II', 'resp': 'button'}",27,155,Right,31.47480159033025,15.155569687390695,1.5737400795165126,0.23806313195437384,Right,Correct,0.0,0.0,-45,45,7176,-1,-1
"{'cat': 'II', 'resp': 'button'}",27,156,Left,53.971751850475215,75.31458550665849,2.698587592523761,1.1830387426793931,Left,Correct,0.0,0.0,-45,45,1044,-1,-1
"{'cat': 'II', 'resp': 'button'}",27,157,Left,44.72707503571169,65.15534743356415,2.2363537517855847,1.0234578041968783,Left,Correct,0.0,0.0,-45,45,2081,-1,-1
"{'cat': 'II', 'resp': 'button'}",27,158,Left,14.513347795495111,30.5496238851126,0.7256673897747555,0.4798723698370051,Left,Correct,0.0,0.0,-45,45,1998,-1,-1
"{'cat': 'II', 'resp': 'button'}",27,159,Left,36.677495017576774,59.17383161176823,1.8338747508788387,0.9295003733814526,Right,Incorrect,0.0,0.0,-45,45,1394,-1,-1
"{'cat': 'II', 'resp': 'button'}",27,160,Right,48.27086878999172,25.37202820457113,2.413543439499586,0.39854288707076846,Right,Correct,0.0,0.0,-45,45,1224,-1,-1
"{'cat': 'II', 'resp': 'button'}",27,161,Left,26.58398519461697,57.32115593974159,1.3291992597308484,0.9003986119778354,Left,Correct,0.0,0.0,-45,45,950,-1,-1
"{'cat': 'II', 'resp': 'button'}",27,162,Left,38.58333439575056,48.17826388045984,1.9291667197875282,0.7567823993478155,Right,Incorrect,0.0,0.0,-45,45,2500,-1,-1
"{'cat': 'II', 'resp': 'button'}",27,163,Right,52.73811032305685,43.50751356686366,2.6369055161528427,0.6834144249880856,Right,Correct,0.0,0.0,-45,45,1914,-1,-1
"{'cat': 'II', 'resp': 'button'}",27,164,Left,25.01361863683804,57.4518371449826,1.2506809318419019,0.9024513475495727,Left,Correct,0.0,0.0,-45,45,714,-1,-1
"{'cat': 'II', 'resp': 'button'}",27,165,Right,81.18538098521987,55.148939557911596,4.059269049260993,0.866277516842013,Right,Correct,0.0,0.0,-45,45,1814,-1,-1
"{'cat': 'II', 'resp': 'button'}",27,166,Left,25.884951438642844,38.16711090710883,1.2942475719321422,0.5995275761725998,Left,Correct,0.0,0.0,-45,45,5258,-1,-1
"{'cat': 'II', 'resp': 'button'}",27,167,Right,45.90361385471733,25.55347974451361,2.2951806927358662,0.4013931211950978,Right,Correct,0.0,0.0,-45,45,1512,-1,-1
"{'cat': 'II', 'resp': 'button'}",27,168,Left,37.14606936942629,60.467034927069975,1.8573034684713148,0.9498139635562023,Left,Correct,0.0,0.0,-45,45,1505,-1,-1
"{'cat': 'II', 'resp': 'button'}",27,169,Left,45.955971057776885,65.81361568134179,2.2977985528888443,1.0337978576534268,Left,Correct,0.0,0.0,-45,45,2013,-1,-1
"{'cat': 'II', 'resp': 'button'}",27,170,Left,52.46275313445987,70.06524820254371,2.623137656722993,1.100582345125284,Left,Correct,0.0,0.0,-45,45,1187,-1,-1
"{'cat': 'II', 'resp': 'button'}",27,171,Right,80.11198294656685,63.07844567267887,4.0055991473283425,0.990833907625754,Left,Incorrect,0.0,0.0,-45,45,1110,-1,-1
"{'cat': 'II', 'resp': 'button'}",27,172,Left,49.59127554669416,64.61291995962964,2.4795637773347083,1.0149373733607887,Left,Correct,0.0,0.0,-45,45,1398,-1,-1
"{'cat': 'II', 'resp': 'button'}",27,173,Right,74.31926130579342,52.93013665168492,3.715963065289671,0.8314246422921859,Right,Correct,0.0,0.0,-45,45,1257,-1,-1
"{'cat': 'II', 'resp': 'button'}",27,174,Right,80.75417604587346,66.33413219318786,4.037708802293674,1.0419741119018657,Right,Correct,0.0,0.0,-45,45,974,-1,-1
"{'cat': 'II', 'resp': 'button'}",27,175,Left,62.287275976827445,74.66523364387983,3.1143637988413726,1.1728387474708917,Left,Correct,0.0,0.0,-45,45,1921,-1,-1
"{'cat': 'II', 'resp': 'button'}",27,176,Right,55.70618207554957,47.75117063575189,2.7853091037774784,0.7500736343479539,Right,Correct,0.0,0.0,-45,45,7766,-1,-1
"{'cat': 'II', 'resp': 'button'}",27,177,Left,28.30345209075064,54.95790825996984,1.415172604537532,0.8632768042309152,Left,Correct,0.0,0.0,-45,45,1705,-1,-1
"{'cat': 'II', 'resp': 'button'}",27,178,Left,53.49358866491082,73.02739742955478,2.674679433245541,1.1471116763773572,Left,Correct,0.0,0.0,-45,45,944,-1,-1
"{'cat': 'II', 'resp': 'button'}",27,179,Left,10.513036544006752,35.044825207890185,0.5256518272003377,0.550482827097231,Left,Correct,0.0,0.0,-45,45,941,-1,-1
"{'cat': 'II', 'resp': 'button'}",27,180,Right,50.74414200655232,32.37208119930081,2.537207100327616,0.5084994623856784,Right,Correct,0.0,0.0,-45,45,1161,-1,-1
"{'cat': 'II', 'resp': 'button'}",27,181,Right,62.24676079772362,36.627772712989234,3.112338039886181,0.5753477083624183,Right,Correct,0.0,0.0,-45,45,1579,-1,-1
"{'cat': 'II', 'resp': 'button'}",27,182,Left,32.480781891964504,52.857032726587306,1.6240390945982253,0.8302763285220098,Right,Incorrect,0.0,0.0,-45,45,3705,-1,-1
"{'cat': 'II', 'resp': 'button'}",27,183,Right,76.3989423075634,56.264934891153075,3.81994711537817,0.8838075305437727,Right,Correct,0.0,0.0,-45,45,1183,-1,-1
"{'cat': 'II', 'resp': 'button'}",27,184,Left,27.09664841853239,52.753134528621864,1.3548324209266196,0.8286442994447626,Left,Correct,0.0,0.0,-45,45,1084,-1,-1
"{'cat': 'II', 'resp': 'button'}",27,185,Left,51.10145502126066,60.770157659690064,2.555072751063033,0.954575404305879,Left,Correct,0.0,0.0,-45,45,1073,-1,-1
"{'cat': 'II', 'resp': 'button'}",27,186,Left,49.83713679999741,69.09458281674125,2.4918568399998704,1.0853351688996293,Left,Correct,0.0,0.0,-45,45,1256,-1,-1
"{'cat': 'II', 'resp': 'button'}",27,187,Left,54.84143750762342,62.1865147717401,2.742071875381171,0.9768234897962592,Left,Correct,0.0,0.0,-45,45,1310,-1,-1
"{'cat': 'II', 'resp': 'button'}",27,188,Left,64.06523172407014,88.9040006686798,3.2032615862035074,1.3965007768773325,Left,Correct,0.0,0.0,-45,45,1070,-1,-1
"{'cat': 'II', 'resp': 'button'}",27,189,Right,79.65468513826593,56.842044358932306,3.982734256913296,0.8928727448652344,Right,Correct,0.0,0.0,-45,45,2109,-1,-1
"{'cat': 'II', 'resp': 'button'}",27,190,Right,34.658634888183414,14.13451658087833,1.7329317444091707,0.2220244672626524,Right,Correct,0.0,0.0,-45,45,1188,-1,-1
"{'cat': 'II', 'resp': 'button'}",27,191,Left,47.10484781036338,55.65158533593688,2.355242390518169,0.8741730582600239,Right,Incorrect,0.0,0.0,-45,45,2241,-1,-1
"{'cat': 'II', 'resp': 'button'}",27,192,Left,13.394826868732963,34.03506861593576,0.6697413434366482,0.5346216076412416,Left,Correct,0.0,0.0,-45,45,858,-1,-1
"{'cat': 'II', 'resp': 'button'}",27,193,Left,53.615311759962204,76.37048967560547,2.6807655879981103,1.1996248465796864,Left,Correct,0.0,0.0,-45,45,811,-1,-1
"{'cat': 'II', 'resp': 'button'}",27,194,Right,68.65332359269439,43.945743198796485,3.4326661796347198,0.6902981199494133,Right,Correct,0.0,0.0,-45,45,1490,-1,-1
"{'cat': 'II', 'resp': 'button'}",27,195,Right,75.33804934751446,63.762980355267985,3.766902467375723,1.0015865532755008,Left,Incorrect,0.0,0.0,-45,45,3073,-1,-1
"{'cat': 'II', 'resp': 'button'}",27,196,Right,72.99493833402511,57.57273342701323,3.6497469167012553,0.9043503819069414,Right,Correct,0.0,0.0,-45,45,752,-1,-1
"{'cat': 'II', 'resp': 'button'}",27,197,Right,56.50506944955343,46.58632726892648,2.8252534724776717,0.7317763175289465,Left,Incorrect,0.0,0.0,-45,45,2821,-1,-1
"{'cat': 'II', 'resp': 'button'}",27,198,Right,72.50950410145794,59.14276719074793,3.6254752050728967,0.9290124145971258,Right,Correct,0.0,0.0,-45,45,769,-1,-1
"{'cat': 'II', 'resp': 'button'}",27,199,Left,18.539864984173906,43.747474006286495,0.9269932492086953,0.6871837147563004,Left,Correct,0.0,0.0,-45,45,593,-1,-1
"{'cat': 'II', 'resp': 'button'}",27,200,Left,39.12919918356182,47.312172975847616,1.9564599591780911,0.743177875231462,Left,Correct,0.0,0.0,-45,45,2835,-1,-1
"{'cat': 'II', 'resp': 'button'}",27,201,Right,65.78387578181064,50.29355100961714,3.289193789090532,0.7900092518737837,Right,Correct,0.0,0.0,-45,45,774,-1,-1
"{'cat': 'II', 'resp': 'button'}",27,202,Left,29.81769201887644,48.761783720893234,1.490884600943822,0.7659483075674628,Left,Correct,0.0,0.0,-45,45,846,-1,-1
"{'cat': 'II', 'resp': 'button'}",27,203,Left,32.49753474416185,41.32748801531932,1.6248767372080923,0.649170663701237,Left,Correct,0.0,0.0,-45,45,709,-1,-1
"{'cat': 'II', 'resp': 'button'}",27,204,Left,39.169647516364726,52.863487203776096,1.9584823758182364,0.830377715212605,Left,Correct,0.0,0.0,-45,45,937,-1,-1
"{'cat': 'II', 'resp': 'button'}",27,205,Right,53.086954690994794,39.94219504995715,2.6543477345497397,0.62741053268598,Right,Correct,0.0,0.0,-45,45,1565,-1,-1
"{'cat': 'II', 'resp': 'button'}",27,206,Left,32.84576389824445,45.63098521335452,1.6422881949122226,0.7167698396116952,Left,Correct,0.0,0.0,-45,45,1696,-1,-1
"{'cat': 'II', 'resp': 'button'}",27,207,Left,44.59134880164664,52.6669230063448,2.2295674400823318,0.8272900920195604,Left,Correct,0.0,0.0,-45,45,1897,-1,-1
"{'cat': 'II', 'resp': 'button'}",27,208,Right,55.83469448816921,26.784927191141538,2.7917347244084607,0.42073665245313874,Right,Correct,0.0,0.0,-45,45,1053,-1,-1
"{'cat': 'II', 'resp': 'button'}",27,209,Left,27.14573666683942,42.39235563873332,1.3572868333419708,0.6658975652150523,Left,Correct,0.0,0.0,-45,45,978,-1,-1
"{'cat': 'II', 'resp': 'button'}",27,210,Left,20.22574826435073,42.24836940029574,1.0112874132175365,0.6636358346705846,Left,Correct,0.0,0.0,-45,45,1409,-1,-1
"{'cat': 'II', 'resp': 'button'}",27,211,Right,36.63725126156004,16.619774614839077,1.8318625630780019,0.2610628091714829,Right,Correct,0.0,0.0,-45,45,4824,-1,-1
"{'cat': 'II', 'resp': 'button'}",27,212,Right,61.69305473561234,42.07818610962292,3.084652736780617,0.6609626017918772,Right,Correct,0.0,0.0,-45,45,865,-1,-1
"{'cat': 'II', 'resp': 'button'}",27,213,Left,57.349662710623555,85.6156652017557,2.867483135531178,1.344847724150195,Left,Correct,0.0,0.0,-45,45,836,-1,-1
"{'cat': 'II', 'resp': 'button'}",27,214,Left,61.11411917788479,71.38234861505785,3.0557059588942392,1.1212713100252565,Right,Incorrect,0.0,0.0,-45,45,1178,-1,-1
"{'cat': 'II', 'resp': 'button'}",27,215,Right,60.457267142691464,49.56969319289557,3.0228633571345735,0.7786389198775034,Right,Correct,0.0,0.0,-45,45,896,-1,-1
"{'cat': 'II', 'resp': 'button'}",27,216,Left,40.73242476949273,48.3579277639979,2.0366212384746363,0.7596045530310085,Left,Correct,0.0,0.0,-45,45,971,-1,-1
"{'cat': 'II', 'resp': 'button'}",27,217,Right,72.05860729187681,43.49066588770074,3.60293036459384,0.6831497822626444,Right,Correct,0.0,0.0,-45,45,831,-1,-1
"{'cat': 'II', 'resp': 'button'}",27,218,Left,51.187452600284274,81.14860328238687,2.559372630014214,1.2746792796050956,Left,Correct,0.0,0.0,-45,45,1753,-1,-1
"{'cat': 'II', 'resp': 'button'}",27,219,Right,60.60978867554111,33.193655080099596,3.0304894337770554,0.521404714727172,Right,Correct,0.0,0.0,-45,45,2972,-1,-1
"{'cat': 'II', 'resp': 'button'}",27,220,Right,55.17952708091649,33.73120968962313,2.7589763540458243,0.5298486027880843,Right,Correct,0.0,0.0,-45,45,862,-1,-1
"{'cat': 'II', 'resp': 'button'}",27,221,Right,49.6005851923186,23.67915425725499,2.4800292596159297,0.37195128528905874,Right,Correct,0.0,0.0,-45,45,1096,-1,-1
"{'cat': 'II', 'resp': 'button'}",27,222,Left,40.59069844577861,50.73047435484849,2.02953492228893,0.7968724277315872,Left,Correct,0.0,0.0,-45,45,3594,-1,-1
"{'cat': 'II', 'resp': 'button'}",27,223,Right,73.08476049610712,60.17629709105246,3.6542380248053563,0.9452470643074363,Right,Correct,0.0,0.0,-45,45,1492,-1,-1
"{'cat': 'II', 'resp': 'button'}",27,224,Left,24.65564709138173,37.38841773696183,1.2327823545690864,0.5872958924589279,Left,Correct,0.0,0.0,-45,45,811,-1,-1
"{'cat': 'II', 'resp': 'button'}",27,225,Right,50.26338163021002,29.739844391111816,2.513169081510501,0.4671523832901024,Right,Correct,0.0,0.0,-45,45,1483,-1,-1
"{'cat': 'II', 'resp': 'button'}",27,226,Right,60.45430207296882,39.59951954944122,3.022715103648441,0.6220277985110496,Right,Correct,0.0,0.0,-45,45,961,-1,-1
"{'cat': 'II', 'resp': 'button'}",27,227,Right,84.17943235815005,55.13002867120969,4.208971617907503,0.8659804653283353,Right,Correct,0.0,0.0,-45,45,1086,-1,-1
"{'cat': 'II', 'resp': 'button'}",27,228,Right,73.10293398691864,42.572091416519434,3.655146699345932,0.6687208482104527,Right,Correct,0.0,0.0,-45,45,670,-1,-1
"{'cat': 'II', 'resp': 'button'}",27,229,Right,80.31504568149839,62.98610987416892,4.01575228407492,0.989383500294443,Left,Incorrect,0.0,0.0,-45,45,2553,-1,-1
"{'cat': 'II', 'resp': 'button'}",27,230,Right,84.82288514171994,60.21630449807307,4.241144257085997,0.9458754991873619,Right,Correct,0.0,0.0,-45,45,667,-1,-1
"{'cat': 'II', 'resp': 'button'}",27,231,Left,45.55451831080353,58.287238909949465,2.2777259155401763,0.915573807787652,Left,Correct,0.0,0.0,-45,45,959,-1,-1
"{'cat': 'II', 'resp': 'button'}",27,232,Right,49.308409294234906,29.506259411304658,2.4654204647117455,0.46348323900734706,Right,Correct,0.0,0.0,-45,45,920,-1,-1
"{'cat': 'II', 'resp': 'button'}",27,233,Left,45.39537358256999,77.46462020734572,2.2697686791284992,1.2168114087826039,Left,Correct,0.0,0.0,-45,45,744,-1,-1
"{'cat': 'II', 'resp': 'button'}",27,234,Right,44.37829652743552,27.63505745035787,2.218914826371776,0.4340904673378808,Right,Correct,0.0,0.0,-45,45,839,-1,-1
"{'cat': 'II', 'resp': 'button'}",27,235,Left,34.041054457316356,45.35941989611616,1.702052722865818,0.7125041015836661,Right,Incorrect,0.0,0.0,-45,45,1471,-1,-1
"{'cat': 'II', 'resp': 'button'}",27,236,Left,43.765089068067994,60.11935138384849,2.1882544534034,0.944352563230409,Left,Correct,0.0,0.0,-45,45,1028,-1,-1
"{'cat': 'II', 'resp': 'button'}",27,237,Left,68.6874461676417,87.1308921286752,3.434372308382085,1.3686488530608538,Left,Correct,0.0,0.0,-45,45,1026,-1,-1
"{'cat': 'II', 'resp': 'button'}",27,238,Right,51.2775622728614,32.32037711878118,2.5638781136430704,0.507687296588073,Left,Incorrect,0.0,0.0,-45,45,1578,-1,-1
"{'cat': 'II', 'resp': 'button'}",27,239,Left,12.676544105644059,33.399162141784686,0.6338272052822029,0.5246328121034255,Left,Correct,0.0,0.0,-45,45,696,-1,-1
"{'cat': 'II', 'resp': 'button'}",27,240,Left,24.683580357596725,53.75363054832123,1.2341790178798362,0.8443600541719293,Left,Correct,0.0,0.0,-45,45,2241,-1,-1
"{'cat': 'II', 'resp': 'button'}",27,241,Right,67.99087256887643,49.359037500697866,3.399543628443821,0.7753299480022775,Right,Correct,0.0,0.0,-45,45,1628,-1,-1
"{'cat': 'II', 'resp': 'button'}",27,242,Right,54.357381739006236,23.67744092095302,2.7178690869503117,0.37192437226536174,Right,Correct,0.0,0.0,-45,45,1188,-1,-1
"{'cat': 'II', 'resp': 'button'}",27,243,Left,18.009498740175662,46.89871533551988,0.900474937008783,0.7366832978043412,Left,Correct,0.0,0.0,-45,45,1163,-1,-1
"{'cat': 'II', 'resp': 'button'}",27,244,Left,33.96329113453784,53.548584920831374,1.698164556726892,0.841139204987065,Right,Incorrect,0.0,0.0,-45,45,1675,-1,-1
"{'cat': 'II', 'resp': 'button'}",27,245,Right,55.69063934671766,35.95156364194204,2.784531967335883,0.5647258411129551,Right,Correct,0.0,0.0,-45,45,1697,-1,-1
"{'cat': 'II', 'resp': 'button'}",27,246,Left,18.549533185444446,37.23459007076463,0.9274766592722223,0.5848795731287081,Left,Correct,0.0,0.0,-45,45,1666,-1,-1
"{'cat': 'II', 'resp': 'button'}",27,247,Right,83.36201840215969,65.36996580175713,4.168100920107985,1.0268290216410811,Right,Correct,0.0,0.0,-45,45,1003,-1,-1
"{'cat': 'II', 'resp': 'button'}",27,248,Left,38.048106333085045,64.4784031488837,1.9024053166542523,1.01282438823867,Left,Correct,0.0,0.0,-45,45,2938,-1,-1
"{'cat': 'II', 'resp': 'button'}",27,249,Right,64.26490926126027,32.97978221652612,3.213245463063014,0.5180452076421489,Right,Correct,0.0,0.0,-45,45,997,-1,-1
"{'cat': 'II', 'resp': 'button'}",27,250,Left,27.49320779514504,59.206069373473056,1.374660389757252,0.9300067629581531,Left,Correct,0.0,0.0,-45,45,949,-1,-1
"{'cat': 'II', 'resp': 'button'}",27,251,Left,13.14348218692884,37.90497950687086,0.6571741093464419,0.5954100257662858,Left,Correct,0.0,0.0,-45,45,824,-1,-1
"{'cat': 'II', 'resp': 'button'}",27,252,Left,14.064402203934723,31.87035767211975,0.7032201101967361,0.5006184076500525,Left,Correct,0.0,0.0,-45,45,1014,-1,-1
"{'cat': 'II', 'resp': 'button'}",27,253,Left,62.25144129010275,76.82639181003854,3.112572064505138,1.2067861405611409,Left,Correct,0.0,0.0,-45,45,2043,-1,-1
"{'cat': 'II', 'resp': 'button'}",27,254,Left,33.65456628732779,48.86072251529225,1.6827283143663894,0.7675024345156577,Left,Correct,0.0,0.0,-45,45,1470,-1,-1
"{'cat': 'II', 'resp': 'button'}",27,255,Right,87.67860047050081,63.96720124906101,4.38393002352504,1.0047944475737496,Right,Correct,0.0,0.0,-45,45,1260,-1,-1
"{'cat': 'II', 'resp': 'button'}",27,256,Right,83.70962499068226,54.40665772826282,4.185481249534113,0.854617781127424,Right,Correct,0.0,0.0,-45,45,880,-1,-1
"{'cat': 'II', 'resp': 'button'}",27,257,Left,54.78766896226862,83.03713254438765,2.739383448113431,1.3043442278830508,Left,Correct,0.0,0.0,-45,45,1438,-1,-1
"{'cat': 'II', 'resp': 'button'}",27,258,Right,46.69271800545372,27.77270389122343,2.3346359002726857,0.4362526125749609,Left,Incorrect,0.0,0.0,-45,45,5976,-1,-1
"{'cat': 'II', 'resp': 'button'}",27,259,Left,17.90522893404106,45.89481553787759,0.895261446702053,0.7209140766582746,Left,Correct,0.0,0.0,-45,45,1015,-1,-1
"{'cat': 'II', 'resp': 'button'}",27,260,Right,72.92078736065986,54.41589499438957,3.646039368032993,0.8547628797644393,Right,Correct,0.0,0.0,-45,45,789,-1,-1
"{'cat': 'II', 'resp': 'button'}",27,261,Left,58.277704252629725,70.79566585630573,2.9138852126314863,1.1120557188008393,Left,Correct,0.0,0.0,-45,45,1526,-1,-1
"{'cat': 'II', 'resp': 'button'}",27,262,Right,73.25183908158988,62.22052133812286,3.662591954079494,0.9773576636918686,Right,Correct,0.0,0.0,-45,45,777,-1,-1
"{'cat': 'II', 'resp': 'button'}",27,263,Right,85.36875562562841,62.419889004643665,4.2684377812814205,0.9804893236743942,Right,Correct,0.0,0.0,-45,45,676,-1,-1
"{'cat': 'II', 'resp': 'button'}",27,264,Right,76.97026086442773,60.175770858459195,3.848513043221386,0.9452387982651907,Right,Correct,0.0,0.0,-45,45,611,-1,-1
"{'cat': 'II', 'resp': 'button'}",27,265,Left,57.30361461435715,72.70964558155707,2.8651807307178574,1.142120442020686,Left,Correct,0.0,0.0,-45,45,952,-1,-1
"{'cat': 'II', 'resp': 'button'}",27,266,Right,47.083228946875,34.76006988158457,2.3541614473437504,0.5460099008912696,Right,Correct,0.0,0.0,-45,45,765,-1,-1
"{'cat': 'II', 'resp': 'button'}",27,267,Right,65.83797901405241,41.32898484451644,3.2918989507026204,0.6491941758392837,Right,Correct,0.0,0.0,-45,45,698,-1,-1
"{'cat': 'II', 'resp': 'button'}",27,268,Right,60.129938766851,48.958311792795556,3.00649693834255,0.7690353633020253,Right,Correct,0.0,0.0,-45,45,1612,-1,-1
"{'cat': 'II', 'resp': 'button'}",27,269,Right,53.48756886962582,38.35272896401545,2.6743784434812907,0.602443257792357,Right,Correct,0.0,0.0,-45,45,1102,-1,-1
"{'cat': 'II', 'resp': 'button'}",27,270,Right,34.339282579410806,15.666331805028133,1.7169641289705402,0.24608616453688256,Left,Incorrect,0.0,0.0,-45,45,802,-1,-1
"{'cat': 'II', 'resp': 'button'}",27,271,Right,50.01158937078673,36.55942191563129,2.5005794685393368,0.5742740565481848,Right,Correct,0.0,0.0,-45,45,1438,-1,-1
"{'cat': 'II', 'resp': 'button'}",27,272,Left,52.036550618917346,68.34458075681371,2.601827530945867,1.0735541640914015,Left,Correct,0.0,0.0,-45,45,1348,-1,-1
"{'cat': 'II', 'resp': 'button'}",27,273,Left,36.659053764229874,48.2495182257457,1.8329526882114937,0.7579016599862475,Right,Incorrect,0.0,0.0,-45,45,2183,-1,-1
"{'cat': 'II', 'resp': 'button'}",27,274,Right,65.18054249476408,44.79292505215092,3.2590271247382043,0.7036056213831776,Right,Correct,0.0,0.0,-45,45,886,-1,-1
"{'cat': 'II', 'resp': 'button'}",27,275,Right,84.50068847515065,58.10375937156413,4.225034423757532,0.9126917179382749,Right,Correct,0.0,0.0,-45,45,1041,-1,-1
"{'cat': 'II', 'resp': 'button'}",27,276,Right,64.29058718389632,43.79134838752799,3.214529359194816,0.6878728919252458,Right,Correct,0.0,0.0,-45,45,775,-1,-1
"{'cat': 'II', 'resp': 'button'}",27,277,Left,13.74217334446422,39.52988453138603,0.687108667223211,0.6209339742052759,Left,Correct,0.0,0.0,-45,45,750,-1,-1
"{'cat': 'II', 'resp': 'button'}",27,278,Left,23.253644327657664,53.24915768687045,1.1626822163828832,0.8364358129945834,Left,Correct,0.0,0.0,-45,45,633,-1,-1
"{'cat': 'II', 'resp': 'button'}",27,279,Left,64.98549953912988,84.75911349239134,3.2492749769564937,1.3313930413624009,Left,Correct,0.0,0.0,-45,45,1801,-1,-1
"{'cat': 'II', 'resp': 'button'}",27,280,Right,75.01367767498354,43.75837924945842,3.7506838837491774,0.6873550139154732,Right,Correct,0.0,0.0,-45,45,1857,-1,-1
"{'cat': 'II', 'resp': 'button'}",27,281,Left,56.32456875306545,79.61993206345184,2.816228437653273,1.2506669682492937,Left,Correct,0.0,0.0,-45,45,1341,-1,-1
"{'cat': 'II', 'resp': 'button'}",27,282,Right,42.14345597384913,31.592423964454866,2.1071727986924564,0.4962526351791277,Left,Incorrect,0.0,0.0,-45,45,3376,-1,-1
"{'cat': 'II', 'resp': 'button'}",27,283,Left,60.76169372296822,79.18257027090306,3.038084686148411,1.243796905277133,Left,Correct,0.0,0.0,-45,45,890,-1,-1
"{'cat': 'II', 'resp': 'button'}",27,284,Left,36.44742027519334,68.87002529646126,1.822371013759667,1.0818078276195295,Right,Incorrect,0.0,0.0,-45,45,1442,-1,-1
"{'cat': 'II', 'resp': 'button'}",27,285,Left,46.23610306211286,62.99364422281394,2.3118051531056434,0.989501849566207,Left,Correct,0.0,0.0,-45,45,1705,-1,-1
"{'cat': 'II', 'resp': 'button'}",27,286,Left,27.521966040557952,60.547925937049484,1.3760983020278976,0.9510845965696677,Right,Incorrect,0.0,0.0,-45,45,1219,-1,-1
"{'cat': 'II', 'resp': 'button'}",27,287,Right,49.44242372088907,24.994982628247442,2.472121186044453,0.39262026900753333,Left,Incorrect,0.0,0.0,-45,45,947,-1,-1
"{'cat': 'II', 'resp': 'button'}",27,288,Left,63.17449824988764,85.26302415001928,3.158724912494382,1.3393084514627482,Left,Correct,0.0,0.0,-45,45,791,-1,-1
"{'cat': 'II', 'resp': 'button'}",27,289,Right,67.77924371734215,37.194488129683684,3.388962185867108,0.5842496533112351,Right,Correct,0.0,0.0,-45,45,688,-1,-1
"{'cat': 'II', 'resp': 'button'}",27,290,Right,63.13308377941362,52.24445929047754,3.156654188970681,0.8206540474886763,Right,Correct,0.0,0.0,-45,45,753,-1,-1
"{'cat': 'II', 'resp': 'button'}",27,291,Left,33.33628178497901,46.506140904511255,1.6668140892489505,0.7305167530621217,Right,Incorrect,0.0,0.0,-45,45,2181,-1,-1
"{'cat': 'II', 'resp': 'button'}",27,292,Right,80.8271455988804,54.32810861014807,4.0413572799440205,0.8533839344653479,Right,Correct,0.0,0.0,-45,45,587,-1,-1
"{'cat': 'II', 'resp': 'button'}",27,293,Right,66.0684200260184,49.86247522240581,3.3034210013009204,0.783237929242566,Right,Correct,0.0,0.0,-45,45,725,-1,-1
"{'cat': 'II', 'resp': 'button'}",27,294,Left,62.554026762090274,84.26466167928767,3.127701338104514,1.3236262104443977,Left,Correct,0.0,0.0,-45,45,804,-1,-1
"{'cat': 'II', 'resp': 'button'}",27,295,Right,66.41883537509013,56.2723691810439,3.320941768754506,0.883924308096301,Right,Correct,0.0,0.0,-45,45,953,-1,-1
"{'cat': 'II', 'resp': 'button'}",27,296,Right,62.785132497153015,54.33943959747395,3.139256624857651,0.8535619211980523,Right,Correct,0.0,0.0,-45,45,662,-1,-1
"{'cat': 'II', 'resp': 'button'}",27,297,Right,56.71242549554436,42.30969431277779,2.835621274777218,0.6645991241432628,Right,Correct,0.0,0.0,-45,45,1150,-1,-1
"{'cat': 'II', 'resp': 'button'}",27,298,Right,55.98319642606686,29.350796201486595,2.799159821303343,0.4610412286180075,Right,Correct,0.0,0.0,-45,45,786,-1,-1
"{'cat': 'II', 'resp': 'button'}",27,299,Right,63.269877252796704,49.22139084439059,3.1634938626398355,0.773167799381047,Right,Correct,0.0,0.0,-45,45,519,-1,-1
"{'cat': 'II', 'resp': 'button'}",27,300,Left,45.71721447779307,55.19948310652889,2.2858607238896536,0.8670714530471252,Left,Correct,0.0,0.0,-45,45,1173,-1,-1
"{'cat': 'II', 'resp': 'button'}",27,301,Right,81.80929666099165,53.73653585397567,4.090464833049583,0.8440915313410724,Right,Correct,0.0,0.0,-45,45,800,-1,-1
"{'cat': 'II', 'resp': 'button'}",27,302,Left,64.76303522798693,80.86354622727359,3.238151761399347,1.2702016138541068,Left,Correct,0.0,0.0,-45,45,865,-1,-1
"{'cat': 'II', 'resp': 'button'}",27,303,Right,44.815127691737615,17.295349596749173,2.2407563845868808,0.27167471617207195,Right,Correct,0.0,0.0,-45,45,887,-1,-1
"{'cat': 'II', 'resp': 'button'}",27,304,Right,77.79061834141336,58.90266010686916,3.8895309170706684,0.9252408213431836,Right,Correct,0.0,0.0,-45,45,677,-1,-1
"{'cat': 'II', 'resp': 'button'}",27,305,Left,29.875223920386745,47.30239207807122,1.4937611960193373,0.7430242372484629,Left,Correct,0.0,0.0,-45,45,1003,-1,-1
"{'cat': 'II', 'resp': 'button'}",27,306,Right,46.89281914337136,29.328038860919623,2.344640957168568,0.4606837571483053,Right,Correct,0.0,0.0,-45,45,2064,-1,-1
"{'cat': 'II', 'resp': 'button'}",27,307,Left,51.94264095713158,62.51563809636361,2.5971320478565794,0.9819933468900705,Left,Correct,0.0,0.0,-45,45,899,-1,-1
"{'cat': 'II', 'resp': 'button'}",27,308,Right,82.66048149391632,67.97983044511675,4.1330240746958165,1.0678246795932926,Right,Correct,0.0,0.0,-45,45,641,-1,-1
"{'cat': 'II', 'resp': 'button'}",27,309,Right,34.35115874658746,17.496928727846612,1.717557937329373,0.2748411137589356,Left,Incorrect,0.0,0.0,-45,45,926,-1,-1
"{'cat': 'II', 'resp': 'button'}",27,310,Right,51.060869049518146,23.002165275910816,2.553043452475907,0.3613171672372983,Left,Incorrect,0.0,0.0,-45,45,2738,-1,-1
"{'cat': 'II', 'resp': 'button'}",27,311,Left,47.818197779885466,70.35287750225173,2.390909888994273,1.1051004155998834,Left,Correct,0.0,0.0,-45,45,1469,-1,-1
"{'cat': 'II', 'resp': 'button'}",27,312,Right,55.01091101622424,45.63107554770877,2.750545550811212,0.7167712585804136,Right,Correct,0.0,0.0,-45,45,752,-1,-1
"{'cat': 'II', 'resp': 'button'}",27,313,Left,46.05920549278485,68.85303637114843,2.3029602746392426,1.0815409662047537,Left,Correct,0.0,0.0,-45,45,729,-1,-1
"{'cat': 'II', 'resp': 'button'}",27,314,Left,46.45903182602718,55.94731378429482,2.3229515913013588,0.8788183498641179,Right,Incorrect,0.0,0.0,-45,45,776,-1,-1
"{'cat': 'II', 'resp': 'button'}",27,315,Right,43.49515549591389,18.978357360818787,2.1747577747956943,0.2981113403097504,Right,Correct,0.0,0.0,-45,45,772,-1,-1
"{'cat': 'II', 'resp': 'button'}",27,316,Left,65.56103325597005,77.55568704972777,3.2780516627985024,1.2182418833976691,Left,Correct,0.0,0.0,-45,45,909,-1,-1
"{'cat': 'II', 'resp': 'button'}",27,317,Left,15.682759201321673,44.87964604622746,0.7841379600660836,0.7049678315726919,Left,Correct,0.0,0.0,-45,45,835,-1,-1
"{'cat': 'II', 'resp': 'button'}",27,318,Left,56.80725487398056,67.87578096695631,2.840362743699028,1.0661902742122993,Left,Correct,0.0,0.0,-45,45,1048,-1,-1
"{'cat': 'II', 'resp': 'button'}",27,319,Left,64.33760030292534,79.17961956275957,3.216880015146267,1.2437505556620005,Left,Correct,0.0,0.0,-45,45,1469,-1,-1
"{'cat': 'II', 'resp': 'button'}",27,320,Right,51.02594576991206,25.223735974580514,2.551297288495603,0.3962135181691536,Right,Correct,0.0,0.0,-45,45,1447,-1,-1
"{'cat': 'II', 'resp': 'button'}",27,321,Right,72.69352232639248,44.35864730098062,3.6346761163196244,0.6967840024197071,Right,Correct,0.0,0.0,-45,45,580,-1,-1
"{'cat': 'II', 'resp': 'button'}",27,322,Right,50.209140918274436,37.656443801212205,2.510457045913722,0.5915060360310258,Right,Correct,0.0,0.0,-45,45,930,-1,-1
"{'cat': 'II', 'resp': 'button'}",27,323,Left,40.67459332148328,63.45245352768453,2.033729666074164,0.9967088092741073,Left,Correct,0.0,0.0,-45,45,1104,-1,-1
"{'cat': 'II', 'resp': 'button'}",27,324,Left,16.810067870809068,32.78316256011138,0.8405033935404533,0.5149567133014293,Left,Correct,0.0,0.0,-45,45,676,-1,-1
"{'cat': 'II', 'resp': 'button'}",27,325,Right,78.08668528322528,46.60294842136185,3.904334264161264,0.7320374019808723,Right,Correct,0.0,0.0,-45,45,669,-1,-1
"{'cat': 'II', 'resp': 'button'}",27,326,Right,45.078065962655124,29.521534811066665,2.2539032981327565,0.4637231844257118,Right,Correct,0.0,0.0,-45,45,1933,-1,-1
"{'cat': 'II', 'resp': 'button'}",27,327,Right,83.16365237651361,60.70033583986239,4.1581826188256805,0.9534786457247245,Right,Correct,0.0,0.0,-45,45,639,-1,-1
"{'cat': 'II', 'resp': 'button'}",27,328,Left,19.42387998913624,41.072706219303406,0.971193999456812,0.6451685606080769,Left,Correct,0.0,0.0,-45,45,1499,-1,-1
"{'cat': 'II', 'resp': 'button'}",27,329,Right,81.54975362017181,63.03897463909195,4.0774876810085905,0.9902138980800227,Right,Correct,0.0,0.0,-45,45,681,-1,-1
"{'cat': 'II', 'resp': 'button'}",27,330,Right,80.9671013493973,58.79446854362277,4.048355067469865,0.9235413522418074,Right,Correct,0.0,0.0,-45,45,661,-1,-1
"{'cat': 'II', 'resp': 'button'}",27,331,Right,57.14273528037378,40.1870394743004,2.857136764018689,0.6312565399099258,Right,Correct,0.0,0.0,-45,45,1198,-1,-1
"{'cat': 'II', 'resp': 'button'}",27,332,Right,85.8742351536351,64.48162575732299,4.293711757681755,1.0128750088536613,Right,Correct,0.0,0.0,-45,45,507,-1,-1
"{'cat': 'II', 'resp': 'button'}",27,333,Right,41.57611562992493,31.044615585713792,2.0788057814962464,0.48764768128798824,Right,Correct,0.0,0.0,-45,45,1215,-1,-1
"{'cat': 'II', 'resp': 'button'}",27,334,Left,33.50336639941095,65.68088165786105,1.6751683199705474,1.0317128764881844,Left,Correct,0.0,0.0,-45,45,7827,-1,-1
"{'cat': 'II', 'resp': 'button'}",27,335,Left,38.8739787285863,63.88234213840254,1.9436989364293151,1.0034614837805753,Left,Correct,0.0,0.0,-45,45,1254,-1,-1
"{'cat': 'II', 'resp': 'button'}",27,336,Left,24.934594228848216,38.859735372878575,1.2467297114424107,0.6104072958393937,Left,Correct,0.0,0.0,-45,45,2003,-1,-1
"{'cat': 'II', 'resp': 'button'}",27,337,Right,53.2813362485834,35.09968605692236,2.6640668124291698,0.5513445792986769,Right,Correct,0.0,0.0,-45,45,1116,-1,-1
"{'cat': 'II', 'resp': 'button'}",27,338,Left,51.252792947617294,76.39816271152199,2.562639647380865,1.2000595336113757,Left,Correct,0.0,0.0,-45,45,754,-1,-1
"{'cat': 'II', 'resp': 'button'}",27,339,Left,20.595742779172173,36.61843039596971,1.0297871389586086,0.5752009595898381,Left,Correct,0.0,0.0,-45,45,917,-1,-1
"{'cat': 'II', 'resp': 'button'}",27,340,Right,50.109769088614236,23.179102000934446,2.505488454430712,0.3640964828147207,Right,Correct,0.0,0.0,-45,45,702,-1,-1
"{'cat': 'II', 'resp': 'button'}",27,341,Left,38.960811149209306,46.38557254463281,1.9480405574604651,0.7286228696938741,Right,Incorrect,0.0,0.0,-45,45,1361,-1,-1
"{'cat': 'II', 'resp': 'button'}",27,342,Right,39.334992265814904,26.16908534758588,1.9667496132907452,0.41106303139570044,Right,Correct,0.0,0.0,-45,45,898,-1,-1
"{'cat': 'II', 'resp': 'button'}",27,343,Left,27.950158943991816,43.140498748519754,1.3975079471995908,0.6776493697027467,Left,Correct,0.0,0.0,-45,45,891,-1,-1
"{'cat': 'II', 'resp': 'button'}",27,344,Right,83.10793022087941,64.91540665799157,4.155396511043971,1.0196888233077013,Right,Correct,0.0,0.0,-45,45,536,-1,-1
"{'cat': 'II', 'resp': 'button'}",27,345,Left,44.8260429568204,57.738989208398564,2.24130214784102,0.9069619216140263,Left,Correct,0.0,0.0,-45,45,1313,-1,-1
"{'cat': 'II', 'resp': 'button'}",27,346,Left,39.940789493378105,52.902876749440665,1.9970394746689053,0.8309964447490453,Left,Correct,0.0,0.0,-45,45,1333,-1,-1
"{'cat': 'II', 'resp': 'button'}",27,347,Left,34.495783883431976,43.98841825084965,1.724789194171599,0.6909684580995221,Left,Correct,0.0,0.0,-45,45,1633,-1,-1
"{'cat': 'II', 'resp': 'button'}",27,348,Left,24.473425157767693,44.84930982451213,1.2236712578883846,0.7044913113162992,Left,Correct,0.0,0.0,-45,45,1169,-1,-1
"{'cat': 'II', 'resp': 'button'}",27,349,Left,42.71094837826011,49.97527553593875,2.135547418913006,0.7850097924241545,Left,Correct,0.0,0.0,-45,45,1098,-1,-1
"{'cat': 'II', 'resp': 'button'}",27,350,Left,46.470328573775646,76.95137306657064,2.3235164286887824,1.208749341547929,Left,Correct,0.0,0.0,-45,45,1066,-1,-1
"{'cat': 'II', 'resp': 'button'}",27,351,Right,64.8848338877435,51.755734302371486,3.244241694387175,0.8129771733273775,Right,Correct,0.0,0.0,-45,45,726,-1,-1
"{'cat': 'II', 'resp': 'button'}",27,352,Left,52.396789999084,66.27467661673576,2.6198394999542,1.0410401858908815,Left,Correct,0.0,0.0,-45,45,1864,-1,-1
"{'cat': 'II', 'resp': 'button'}",27,353,Left,53.04597714690287,67.21003529193867,2.652298857345144,1.0557327656033262,Left,Correct,0.0,0.0,-45,45,1234,-1,-1
"{'cat': 'II', 'resp': 'button'}",27,354,Right,87.08280460218296,59.52462626461444,4.354140230109148,0.9350106429029539,Right,Correct,0.0,0.0,-45,45,642,-1,-1
"{'cat': 'II', 'resp': 'button'}",27,355,Right,32.965868950254574,14.680664188187627,1.6482934475127287,0.23060333381714504,Right,Correct,0.0,0.0,-45,45,1480,-1,-1
"{'cat': 'II', 'resp': 'button'}",27,356,Right,74.50774403841433,50.65283210306203,3.7253872019207166,0.7956528260924846,Right,Correct,0.0,0.0,-45,45,625,-1,-1
"{'cat': 'II', 'resp': 'button'}",27,357,Right,81.2365166232591,53.95214778901439,4.061825831162955,0.847478355696792,Right,Correct,0.0,0.0,-45,45,580,-1,-1
"{'cat': 'II', 'resp': 'button'}",27,358,Left,22.743569246771298,53.49150114151339,1.137178462338565,0.8402425350783423,Left,Correct,0.0,0.0,-45,45,1498,-1,-1
"{'cat': 'II', 'resp': 'button'}",27,359,Left,26.676330402198133,44.45042230495085,1.3338165201099066,0.6982256008109873,Left,Correct,0.0,0.0,-45,45,631,-1,-1
"{'cat': 'II', 'resp': 'button'}",27,360,Right,40.373789271793264,27.473821764955105,2.0186894635896633,0.4315577831140916,Left,Incorrect,0.0,0.0,-45,45,2808,-1,-1
"{'cat': 'II', 'resp': 'button'}",27,361,Left,15.117437553937386,37.67203116868261,0.7558718776968693,0.591750881826695,Left,Correct,0.0,0.0,-45,45,650,-1,-1
"{'cat': 'II', 'resp': 'button'}",27,362,Right,52.04469190000037,36.06339935082254,2.6022345950000187,0.566482552320095,Right,Correct,0.0,0.0,-45,45,1336,-1,-1
"{'cat': 'II', 'resp': 'button'}",27,363,Right,59.42306630755575,46.22647635280718,2.971153315377787,0.7261237925566068,Right,Correct,0.0,0.0,-45,45,615,-1,-1
"{'cat': 'II', 'resp': 'button'}",27,364,Right,46.16084768427415,28.2141968347713,2.308042384213708,0.4431875675152696,Right,Correct,0.0,0.0,-45,45,660,-1,-1
"{'cat': 'II', 'resp': 'button'}",27,365,Left,55.68158297775429,70.82886645473602,2.7840791488877144,1.112577232581456,Left,Correct,0.0,0.0,-45,45,666,-1,-1
"{'cat': 'II', 'resp': 'button'}",27,366,Right,79.36138662952483,48.253849366162484,3.9680693314762414,0.7579696933808229,Right,Correct,0.0,0.0,-45,45,589,-1,-1
"{'cat': 'II', 'resp': 'button'}",27,367,Right,60.801142603440134,50.71658918900332,3.0400571301720065,0.7966543200565218,Right,Correct,0.0,0.0,-45,45,938,-1,-1
"{'cat': 'II', 'resp': 'button'}",27,368,Left,40.30241513509515,57.33776487762486,2.0151207567547575,0.9006595045640257,Left,Correct,0.0,0.0,-45,45,1820,-1,-1
"{'cat': 'II', 'resp': 'button'}",27,369,Left,64.31784364438552,79.9727144600095,3.215892182219276,1.2562084611760003,Left,Correct,0.0,0.0,-45,45,1204,-1,-1
"{'cat': 'II', 'resp': 'button'}",27,370,Left,47.91761994713734,65.18033032293917,2.395880997356867,1.0238502345055087,Left,Correct,0.0,0.0,-45,45,2298,-1,-1
"{'cat': 'II', 'resp': 'button'}",27,371,Right,35.79721851514887,15.5929753549573,1.7898609257574436,0.24493388411370276,Right,Correct,0.0,0.0,-45,45,901,-1,-1
"{'cat': 'II', 'resp': 'button'}",27,372,Right,58.07759283059826,33.72988441663777,2.9038796415299135,0.5298277854487103,Right,Correct,0.0,0.0,-45,45,775,-1,-1
"{'cat': 'II', 'resp': 'button'}",27,373,Left,41.71718797369405,48.65276596541645,2.0858593986847027,0.764235860668879,Right,Incorrect,0.0,0.0,-45,45,762,-1,-1
"{'cat': 'II', 'resp': 'button'}",27,374,Left,68.03506519016516,87.66757716372781,3.401753259508258,1.3770790818779182,Left,Correct,0.0,0.0,-45,45,806,-1,-1
"{'cat': 'II', 'resp': 'button'}",27,375,Left,17.34683637335543,36.39195499710137,0.8673418186677715,0.5716434923433201,Left,Correct,0.0,0.0,-45,45,893,-1,-1
"{'cat': 'II', 'resp': 'button'}",27,376,Left,46.8699734614453,69.9018535160679,2.343498673072265,1.098015747391944,Left,Correct,0.0,0.0,-45,45,1334,-1,-1
"{'cat': 'II', 'resp': 'button'}",27,377,Left,18.19749319496798,42.17900842911841,0.9098746597483989,0.6625463150831018,Left,Correct,0.0,0.0,-45,45,765,-1,-1
"{'cat': 'II', 'resp': 'button'}",27,378,Left,44.87855218506911,52.66658006549605,2.2439276092534555,0.827284705117305,Left,Correct,0.0,0.0,-45,45,2255,-1,-1
"{'cat': 'II', 'resp': 'button'}",27,379,Right,71.25866694354387,49.87846982627742,3.5629333471771933,0.7834891718926665,Right,Correct,0.0,0.0,-45,45,1137,-1,-1
"{'cat': 'II', 'resp': 'button'}",27,380,Right,55.432134339977154,24.671243637996056,2.771606716998858,0.38753498884026166,Right,Correct,0.0,0.0,-45,45,1794,-1,-1
"{'cat': 'II', 'resp': 'button'}",27,381,Right,51.68916399640108,41.29725808333541,2.584458199820054,0.6486958130400411,Right,Correct,0.0,0.0,-45,45,2035,-1,-1
"{'cat': 'II', 'resp': 'button'}",27,382,Right,67.98532651673293,44.672589892708686,3.3992663258366465,0.7017154011188163,Right,Correct,0.0,0.0,-45,45,735,-1,-1
"{'cat': 'II', 'resp': 'button'}",27,383,Left,36.21123390107374,49.8763352006074,1.810561695053687,0.7834556412710509,Left,Correct,0.0,0.0,-45,45,1025,-1,-1
"{'cat': 'II', 'resp': 'button'}",27,384,Right,42.22130183974207,19.090924776617854,2.1110650919871032,0.2998795451422901,Right,Correct,0.0,0.0,-45,45,997,-1,-1
"{'cat': 'II', 'resp': 'button'}",27,385,Right,65.39322022750378,41.92969103863815,3.269661011375189,0.6586300466713769,Right,Correct,0.0,0.0,-45,45,830,-1,-1
"{'cat': 'II', 'resp': 'button'}",27,386,Right,85.05419780928844,62.07891050650022,4.252709890464422,0.9751332459503966,Right,Correct,0.0,0.0,-45,45,974,-1,-1
"{'cat': 'II', 'resp': 'button'}",27,387,Right,80.85875069886302,66.41137710617372,4.0429375349431504,1.0431874721576835,Right,Correct,0.0,0.0,-45,45,850,-1,-1
"{'cat': 'II', 'resp': 'button'}",27,388,Left,53.279136752677125,74.7189086445926,2.6639568376338563,1.1736818724104947,Left,Correct,0.0,0.0,-45,45,858,-1,-1
"{'cat': 'II', 'resp': 'button'}",27,389,Left,66.15612402725768,87.41251411967136,3.3078062013628835,1.3730725609508678,Left,Correct,0.0,0.0,-45,45,1062,-1,-1
"{'cat': 'II', 'resp': 'button'}",27,390,Right,54.53214986262467,46.11868363371088,2.7266074931312336,0.7244305884844896,Right,Correct,0.0,0.0,-45,45,2049,-1,-1
"{'cat': 'II', 'resp': 'button'}",27,391,Right,71.71967692298409,50.003757199844536,3.5859838461492046,0.7854571813545965,Right,Correct,0.0,0.0,-45,45,705,-1,-1
"{'cat': 'II', 'resp': 'button'}",27,392,Right,63.240073802284705,55.38571421884241,3.162003690114235,0.8699967645186952,Right,Correct,0.0,0.0,-45,45,1077,-1,-1
"{'cat': 'II', 'resp': 'button'}",27,393,Left,38.7464773808329,52.3009930060411,1.9373238690416452,0.8215420770161492,Left,Correct,0.0,0.0,-45,45,1315,-1,-1
"{'cat': 'II', 'resp': 'button'}",27,394,Right,86.32883438797762,65.35100395527192,4.316441719398881,1.0265311696529988,Right,Correct,0.0,0.0,-45,45,625,-1,-1
"{'cat': 'II', 'resp': 'button'}",27,395,Left,44.453270777650545,74.1016150261259,2.2226635388825273,1.1639854469260806,Left,Correct,0.0,0.0,-45,45,1521,-1,-1
"{'cat': 'II', 'resp': 'button'}",27,396,Right,58.147049702215234,37.250256921028544,2.9073524851107617,0.5851256674371781,Left,Incorrect,0.0,0.0,-45,45,1220,-1,-1
"{'cat': 'II', 'resp': 'button'}",27,397,Right,59.053158180362864,44.61038241143317,2.9526579090181433,0.700738248287949,Right,Correct,0.0,0.0,-45,45,861,-1,-1
"{'cat': 'II', 'resp': 'button'}",27,398,Left,56.59800208634735,79.09930677066619,2.829900104317368,1.2424890052738513,Left,Correct,0.0,0.0,-45,45,926,-1,-1
"{'cat': 'II', 'resp': 'button'}",27,399,Right,79.63619447169121,57.4581955250148,3.981809723584561,0.9025512247495622,Right,Correct,0.0,0.0,-45,45,656,-1,-1
