condition,subject,trial,cat,x,y,xt,yt,resp,fb,rotation,su,target_angle_left,target_angle_right,rt,mt,ep
"{'cat': 'RB', 'resp': 'reach'}",30,0,Right,64.47084801461635,44.96946967102028,3.2235424007308175,0.7063787777715316,Right,Correct,0.0,0.0,-45,45,2002,961,-0.79
"{'cat': 'RB', 'resp': 'reach'}",30,1,Right,53.88329043971714,53.506821709543125,2.694164521985857,0.8404831899981976,Left,Incorrect,0.0,0.0,-45,45,2013,1329,-2.62
"{'cat': 'RB', 'resp': 'reach'}",30,2,Right,62.64781183486295,26.984227606775168,3.132390591743148,0.42386725606119874,Right,Correct,0.0,0.0,-45,45,2009,1309,-0.81
"{'cat': 'RB', 'resp': 'reach'}",30,3,Left,44.229909891400695,40.29213626295269,2.211495494570035,0.6329073964056552,Right,Incorrect,0.0,0.0,-45,45,2006,1476,-0.79
"{'cat': 'RB', 'resp': 'reach'}",30,4,Right,58.18330718540937,68.76589374823826,2.9091653592704683,1.080172133085008,Right,Correct,0.0,0.0,-45,45,2006,2024,-0.79
"{'cat': 'RB', 'resp': 'reach'}",30,5,Left,32.05094195400704,32.98735193414081,1.602547097700352,0.5181641124883891,Right,Incorrect,0.0,0.0,-45,45,2001,1831,-0.72
"{'cat': 'RB', 'resp': 'reach'}",30,6,Right,54.52403532552329,73.80561826735705,2.7262017662761644,1.1593359407119077,Right,Correct,0.0,0.0,-45,45,2003,2235,-0.79
"{'cat': 'RB', 'resp': 'reach'}",30,7,Left,41.925739864735746,61.1327964868852,2.0962869932367876,0.9602717216829922,Right,Incorrect,0.0,0.0,-45,45,2002,1703,-0.86
"{'cat': 'RB', 'resp': 'reach'}",30,8,Right,60.25753132336468,15.143472963946628,3.0128765661682344,0.2378731170668519,Left,Incorrect,0.0,0.0,-45,45,2001,1392,-2.67
"{'cat': 'RB', 'resp': 'reach'}",30,9,Right,67.05961249762768,52.00084134787634,3.352980624881384,0.8168273057948833,Right,Correct,0.0,0.0,-45,45,2008,1393,-0.66
"{'cat': 'RB', 'resp': 'reach'}",30,10,Left,34.39727229361849,68.26840162817487,1.7198636146809247,1.0723575451369582,Left,Correct,0.0,0.0,-45,45,2006,1791,-2.42
"{'cat': 'RB', 'resp': 'reach'}",30,11,Right,59.32349835024001,75.53874470179328,2.9661749175120002,1.1865598270827433,Right,Correct,0.0,0.0,-45,45,2012,1506,-0.9
"{'cat': 'RB', 'resp': 'reach'}",30,12,Right,66.45022154223602,48.39388063571159,3.322511077111801,0.7601692994192645,Left,Incorrect,0.0,0.0,-45,45,2012,1173,-2.51
"{'cat': 'RB', 'resp': 'reach'}",30,13,Left,41.88532268100134,63.91134545216141,2.0942661340500672,1.0039170667677484,Right,Incorrect,0.0,0.0,-45,45,2006,1828,-0.83
"{'cat': 'RB', 'resp': 'reach'}",30,14,Right,58.52069408082822,78.68265973176511,2.926034704041411,1.2359443288910936,Left,Incorrect,0.0,0.0,-45,45,2006,1110,-2.53
"{'cat': 'RB', 'resp': 'reach'}",30,15,Right,54.495755117084656,61.55175786405932,2.7247877558542326,0.9668527516063325,Right,Correct,0.0,0.0,-45,45,2007,938,-0.84
"{'cat': 'RB', 'resp': 'reach'}",30,16,Left,46.4044018142166,27.44448266077091,2.32022009071083,0.4310969255432517,Right,Incorrect,0.0,0.0,-45,45,2005,1555,-0.8
"{'cat': 'RB', 'resp': 'reach'}",30,17,Right,64.91394909998193,15.803644977114686,3.245697454999097,0.24824307480022365,Left,Incorrect,0.0,0.0,-45,45,2007,1189,-2.58
"{'cat': 'RB', 'resp': 'reach'}",30,18,Left,46.634560895013756,69.13907853634774,2.3317280447506876,1.086034106028789,Left,Correct,0.0,0.0,-45,45,2006,1303,-2.48
"{'cat': 'RB', 'resp': 'reach'}",30,19,Left,47.831454074626556,45.44961403161109,2.391572703731328,0.7139208677510049,Right,Incorrect,0.0,0.0,-45,45,2005,1236,-0.87
"{'cat': 'RB', 'resp': 'reach'}",30,20,Right,64.29251153286748,15.488397822904481,3.214625576643374,0.2432911840815643,Left,Incorrect,0.0,0.0,-45,45,2004,976,-2.73
"{'cat': 'RB', 'resp': 'reach'}",30,21,Right,59.705207286676966,23.719096294184773,2.9852603643338482,0.3725786933379988,Right,Correct,0.0,0.0,-45,45,2006,815,-0.8
"{'cat': 'RB', 'resp': 'reach'}",30,22,Right,65.44644598018647,53.32971268655259,3.2723222990093235,0.8377011679706399,Left,Incorrect,0.0,0.0,-45,45,2012,744,-2.51
"{'cat': 'RB', 'resp': 'reach'}",30,23,Right,60.05494115739147,51.646791504141355,3.0027470578695734,0.8112659038544711,Right,Correct,0.0,0.0,-45,45,2007,875,-0.85
"{'cat': 'RB', 'resp': 'reach'}",30,24,Left,42.766477782684966,61.767872177253935,2.138323889134248,0.9702474672996718,Left,Correct,0.0,0.0,-45,45,2001,895,-2.54
"{'cat': 'RB', 'resp': 'reach'}",30,25,Left,31.951532037988912,65.25708328317708,1.5975766018994455,1.0250558671856322,Right,Incorrect,0.0,0.0,-45,45,2013,1184,-0.84
"{'cat': 'RB', 'resp': 'reach'}",30,26,Right,52.44176041676306,42.718778676505806,2.6220880208381527,0.6710250063021947,Left,Incorrect,0.0,0.0,-45,45,2006,1733,-2.43
"{'cat': 'RB', 'resp': 'reach'}",30,27,Right,60.78762380028709,87.77988915518232,3.0393811900143546,1.3788432745142356,Left,Incorrect,0.0,0.0,-45,45,2003,1587,-2.56
"{'cat': 'RB', 'resp': 'reach'}",30,28,Right,67.80147242504707,28.882419533042643,3.3900736212523532,0.45368398511452557,Right,Correct,0.0,0.0,-45,45,2001,1000,-0.9
"{'cat': 'RB', 'resp': 'reach'}",30,29,Left,38.84544809812898,12.674940635061596,1.9422724049064493,0.1990975019189813,Right,Incorrect,0.0,0.0,-45,45,2002,1086,-0.81
"{'cat': 'RB', 'resp': 'reach'}",30,30,Right,59.46039229158328,68.44540195307164,2.9730196145791643,1.0751378597388517,Left,Incorrect,0.0,0.0,-45,45,2005,990,-2.47
"{'cat': 'RB', 'resp': 'reach'}",30,31,Right,68.06312699504106,68.39318605482839,3.4031563497520527,1.074317654327244,Left,Incorrect,0.0,0.0,-45,45,2002,1162,-2.5
"{'cat': 'RB', 'resp': 'reach'}",30,32,Left,44.402922060141144,84.09799160318656,2.2201461030070573,1.321008163011135,Right,Incorrect,0.0,0.0,-45,45,2005,647,-0.89
"{'cat': 'RB', 'resp': 'reach'}",30,33,Right,57.013646510551766,64.53333290815293,2.8506823255275884,1.0136872228795883,Left,Incorrect,0.0,0.0,-45,45,2003,1225,-2.5
"{'cat': 'RB', 'resp': 'reach'}",30,34,Left,31.80230708120218,69.40156495830355,1.590115354060109,1.0901572331032063,Right,Incorrect,0.0,0.0,-45,45,2009,898,-0.83
"{'cat': 'RB', 'resp': 'reach'}",30,35,Left,39.86062511162592,77.18812862403698,1.9930312555812961,1.212468289148093,Left,Correct,0.0,0.0,-45,45,2005,1387,-2.46
"{'cat': 'RB', 'resp': 'reach'}",30,36,Left,33.015209618430475,68.9655701885896,1.6507604809215237,1.0833086432755215,Right,Incorrect,0.0,0.0,-45,45,2004,1080,-1.03
"{'cat': 'RB', 'resp': 'reach'}",30,37,Left,34.008970525695446,35.215130579377615,1.7004485262847724,0.5531579776168899,Left,Correct,0.0,0.0,-45,45,2005,847,-2.58
"{'cat': 'RB', 'resp': 'reach'}",30,38,Left,32.24982355698002,36.33167028613495,1.6124911778490008,0.5706965423178407,Right,Incorrect,0.0,0.0,-45,45,2004,1150,-0.79
"{'cat': 'RB', 'resp': 'reach'}",30,39,Left,32.86728730567174,32.553313789230764,1.643364365283587,0.5113462572512534,Right,Incorrect,0.0,0.0,-45,45,2002,617,-0.85
"{'cat': 'RB', 'resp': 'reach'}",30,40,Left,34.311485187871895,25.421613198340577,1.7155742593935945,0.39932176633154043,Right,Incorrect,0.0,0.0,-45,45,2004,773,-0.85
"{'cat': 'RB', 'resp': 'reach'}",30,41,Left,40.75785412028947,62.46057779285409,2.0378927060144734,0.9811284616650209,Left,Correct,0.0,0.0,-45,45,2007,523,-2.41
"{'cat': 'RB', 'resp': 'reach'}",30,42,Left,41.31862112998555,41.3400365105194,2.0659310564992777,0.6493677750029078,Left,Correct,0.0,0.0,-45,45,2006,590,-2.45
"{'cat': 'RB', 'resp': 'reach'}",30,43,Right,53.15700537835288,30.79372006747792,2.657850268917644,0.4837066237034461,Left,Incorrect,0.0,0.0,-45,45,2001,594,-2.6
"{'cat': 'RB', 'resp': 'reach'}",30,44,Right,55.85387158510004,61.54703006152808,2.7926935792550016,0.9667784874578337,Left,Incorrect,0.0,0.0,-45,45,2004,586,-2.43
"{'cat': 'RB', 'resp': 'reach'}",30,45,Left,33.31330149401333,21.743847671324566,1.6656650747006665,0.341551560525044,Left,Correct,0.0,0.0,-45,45,2009,489,-2.52
"{'cat': 'RB', 'resp': 'reach'}",30,46,Right,65.18883443524096,35.287238984051825,3.259441721762048,0.5542906537888228,Left,Incorrect,0.0,0.0,-45,45,2002,504,-2.51
"{'cat': 'RB', 'resp': 'reach'}",30,47,Left,42.824623245008034,25.29763678694741,2.141231162250402,0.39737434941528443,Left,Correct,0.0,0.0,-45,45,2009,1021,-2.49
"{'cat': 'RB', 'resp': 'reach'}",30,48,Left,42.56223115316548,87.57579130761184,2.128111557658274,1.3756373130215311,Left,Correct,0.0,0.0,-45,45,2008,689,-2.42
"{'cat': 'RB', 'resp': 'reach'}",30,49,Right,64.19443192431018,69.72355799630614,3.2097215962155086,1.0952150879166862,Right,Correct,0.0,0.0,-45,45,2008,513,-0.86
"{'cat': 'RB', 'resp': 'reach'}",30,50,Right,57.770657070941375,60.32583842663633,2.8885328535470687,0.9475960541138276,Right,Correct,0.0,0.0,-45,45,2007,513,-0.83
"{'cat': 'RB', 'resp': 'reach'}",30,51,Right,51.631704428466556,32.92134931690506,2.581585221423328,0.5171273458012614,Left,Incorrect,0.0,0.0,-45,45,2006,585,-2.5
"{'cat': 'RB', 'resp': 'reach'}",30,52,Left,32.70708389363362,39.68882116871822,1.6353541946816812,0.6234305450664213,Left,Correct,0.0,0.0,-45,45,2012,575,-2.5
"{'cat': 'RB', 'resp': 'reach'}",30,53,Left,37.367470157673814,65.08818008918264,1.8683735078836907,1.0224027420185282,Left,Correct,0.0,0.0,-45,45,2007,500,-2.41
"{'cat': 'RB', 'resp': 'reach'}",30,54,Right,54.17635776178668,28.740740431262154,2.7088178880893343,0.4514584949879216,Right,Correct,0.0,0.0,-45,45,2011,557,-0.76
"{'cat': 'RB', 'resp': 'reach'}",30,55,Left,43.12362587517554,76.64771410954535,2.156181293758777,1.2039794778049921,Right,Incorrect,0.0,0.0,-45,45,2007,468,-0.76
"{'cat': 'RB', 'resp': 'reach'}",30,56,Left,40.82343485289246,62.58875791129111,2.041171742644623,0.9831419102571111,Left,Correct,0.0,0.0,-45,45,2010,1112,-2.51
"{'cat': 'RB', 'resp': 'reach'}",30,57,Left,38.98787187903291,31.287408951007954,1.9493935939516456,0.4914614705517307,Left,Correct,0.0,0.0,-45,45,2006,554,-2.47
"{'cat': 'RB', 'resp': 'reach'}",30,58,Left,43.230259128183455,34.212419149168646,2.161512956409173,0.5374074233028149,Right,Incorrect,0.0,0.0,-45,45,2003,582,-0.82
"{'cat': 'RB', 'resp': 'reach'}",30,59,Right,60.35498331519996,67.16052221349116,3.017749165759998,1.05495501598579,Left,Incorrect,0.0,0.0,-45,45,2001,824,-2.61
"{'cat': 'RB', 'resp': 'reach'}",30,60,Left,45.084668610925696,15.90072515363591,2.2542334305462846,0.24976800664706506,Left,Correct,0.0,0.0,-45,45,2001,1676,-2.48
"{'cat': 'RB', 'resp': 'reach'}",30,61,Left,44.218715198760485,25.083137224306352,2.210935759938024,0.39400499816432755,Left,Correct,0.0,0.0,-45,45,2001,1045,-2.5
"{'cat': 'RB', 'resp': 'reach'}",30,62,Right,63.22000794632522,17.616195899984866,3.1610003973162613,0.2767145581179555,Right,Correct,0.0,0.0,-45,45,2008,1146,-0.83
"{'cat': 'RB', 'resp': 'reach'}",30,63,Right,63.154049914255076,47.27004051899749,3.1577024957127535,0.7425160601468719,Left,Incorrect,0.0,0.0,-45,45,2012,900,-2.56
"{'cat': 'RB', 'resp': 'reach'}",30,64,Left,44.979499622160176,53.897509095017064,2.2489749811080086,0.8466200930984733,Left,Correct,0.0,0.0,-45,45,2004,594,-2.54
"{'cat': 'RB', 'resp': 'reach'}",30,65,Left,47.649664123941726,29.157052155751828,2.382483206197086,0.4579979042642219,Left,Correct,0.0,0.0,-45,45,2011,495,-2.4
"{'cat': 'RB', 'resp': 'reach'}",30,66,Left,39.33829522912406,37.434733616540434,1.966914761456203,0.5880234205940715,Right,Incorrect,0.0,0.0,-45,45,2011,480,-0.87
"{'cat': 'RB', 'resp': 'reach'}",30,67,Right,68.43366166193805,46.679715066536886,3.4216830830969025,0.7332432496234854,Left,Incorrect,0.0,0.0,-45,45,2002,781,-2.46
"{'cat': 'RB', 'resp': 'reach'}",30,68,Right,51.97099048321634,55.30417503795849,2.5985495241608167,0.868715950060472,Right,Correct,0.0,0.0,-45,45,2001,1388,-0.79
"{'cat': 'RB', 'resp': 'reach'}",30,69,Left,45.428320955634256,60.376753525127086,2.2714160477817127,0.9483958266107044,Right,Incorrect,0.0,0.0,-45,45,2009,912,-0.87
"{'cat': 'RB', 'resp': 'reach'}",30,70,Right,66.60097198980857,44.7364521182009,3.3300485994904285,0.7027185466110575,Right,Correct,0.0,0.0,-45,45,2008,1822,-0.79
"{'cat': 'RB', 'resp': 'reach'}",30,71,Right,57.74824462983952,72.1914330691487,2.887412231491976,1.1339803789107838,Left,Incorrect,0.0,0.0,-45,45,2013,1419,-2.49
"{'cat': 'RB', 'resp': 'reach'}",30,72,Right,52.7831866872233,61.51610954401326,2.6391593343611652,0.9662927891044852,Right,Correct,0.0,0.0,-45,45,2005,990,-0.95
"{'cat': 'RB', 'resp': 'reach'}",30,73,Left,35.151209580318785,40.09299396293936,1.7575604790159391,0.629779276471951,Right,Incorrect,0.0,0.0,-45,45,2012,1118,-0.73
"{'cat': 'RB', 'resp': 'reach'}",30,74,Left,36.80519566139366,79.61981045100967,1.8402597830696832,1.250665057965519,Left,Correct,0.0,0.0,-45,45,2008,1160,-2.56
"{'cat': 'RB', 'resp': 'reach'}",30,75,Left,48.03222950550629,31.096897409707434,2.401611475275314,0.4884689222588617,Right,Incorrect,0.0,0.0,-45,45,2011,793,-0.77
"{'cat': 'RB', 'resp': 'reach'}",30,76,Left,37.14996916462235,73.15675944828081,1.8574984582311174,1.1491436902157732,Left,Correct,0.0,0.0,-45,45,2004,978,-2.49
"{'cat': 'RB', 'resp': 'reach'}",30,77,Left,41.6015061694069,33.87783255844097,2.080075308470345,0.5321517494257163,Left,Correct,0.0,0.0,-45,45,2005,1270,-2.52
"{'cat': 'RB', 'resp': 'reach'}",30,78,Left,36.67980490458655,39.12492682835792,1.8339902452293273,0.6145729134810373,Left,Correct,0.0,0.0,-45,45,2009,955,-2.53
"{'cat': 'RB', 'resp': 'reach'}",30,79,Right,63.41398834409043,37.85840042467372,3.170699417204521,0.5946783632540783,Right,Correct,0.0,0.0,-45,45,2004,778,-0.84
"{'cat': 'RB', 'resp': 'reach'}",30,80,Left,44.72043874396213,56.19681327977554,2.2360219371981063,0.8827374787745007,Left,Correct,0.0,0.0,-45,45,2008,1009,-2.5
"{'cat': 'RB', 'resp': 'reach'}",30,81,Left,42.21252665730465,73.48199839069095,2.110626332865232,1.1542525315764582,Left,Correct,0.0,0.0,-45,45,2001,799,-2.52
"{'cat': 'RB', 'resp': 'reach'}",30,82,Right,61.492506293632964,33.58565539795121,3.074625314681648,0.5275622413210095,Right,Correct,0.0,0.0,-45,45,2007,728,-0.76
"{'cat': 'RB', 'resp': 'reach'}",30,83,Right,53.957107330208245,43.30481076314186,2.6978553665104124,0.6802303767929133,Right,Correct,0.0,0.0,-45,45,2011,876,-0.83
"{'cat': 'RB', 'resp': 'reach'}",30,84,Right,62.299426858771064,19.871291610230056,3.1149713429385533,0.3121375187001962,Right,Correct,0.0,0.0,-45,45,2004,705,-0.8
"{'cat': 'RB', 'resp': 'reach'}",30,85,Right,54.987121007967644,29.33129932783125,2.749356050398382,0.46073497244278944,Right,Correct,0.0,0.0,-45,45,2005,745,-0.88
"{'cat': 'RB', 'resp': 'reach'}",30,86,Left,36.40288297266541,60.445393313965305,1.8201441486332703,0.9494740178924951,Left,Correct,0.0,0.0,-45,45,2003,830,-2.43
"{'cat': 'RB', 'resp': 'reach'}",30,87,Left,45.921909781665576,43.30452535909872,2.296095489083279,0.6802258936766872,Left,Correct,0.0,0.0,-45,45,2008,1437,-2.57
"{'cat': 'RB', 'resp': 'reach'}",30,88,Right,57.83638995137488,73.81273587303797,2.8918194975687443,1.1594477438004993,Left,Incorrect,0.0,0.0,-45,45,2009,793,-2.51
"{'cat': 'RB', 'resp': 'reach'}",30,89,Left,46.35696754301286,35.57315879993089,2.317848377150643,0.5587818717542299,Left,Correct,0.0,0.0,-45,45,2005,1826,-2.44
"{'cat': 'RB', 'resp': 'reach'}",30,90,Right,61.41796048759864,41.61597325443623,3.0708980243799324,0.6537021792406309,Right,Correct,0.0,0.0,-45,45,2012,806,-0.85
"{'cat': 'RB', 'resp': 'reach'}",30,91,Left,43.827870386598036,26.642643694890403,2.1913935193299015,0.4185016685203905,Left,Correct,0.0,0.0,-45,45,2007,1159,-2.47
"{'cat': 'RB', 'resp': 'reach'}",30,92,Right,58.7911454309546,16.924222027781425,2.93955727154773,0.2658450579510034,Right,Correct,0.0,0.0,-45,45,2002,615,-0.78
"{'cat': 'RB', 'resp': 'reach'}",30,93,Left,33.76082602636222,77.11244902815505,1.688041301318111,1.2112795168358466,Left,Correct,0.0,0.0,-45,45,2012,896,-2.51
"{'cat': 'RB', 'resp': 'reach'}",30,94,Left,31.005539026481095,58.42140457719326,1.5502769513240549,0.9176812771605372,Left,Correct,0.0,0.0,-45,45,2002,1091,-2.6
"{'cat': 'RB', 'resp': 'reach'}",30,95,Right,57.872061764081586,51.27892620669693,2.8936030882040793,0.805487489274661,Right,Correct,0.0,0.0,-45,45,2005,793,-0.88
"{'cat': 'RB', 'resp': 'reach'}",30,96,Left,38.44424065602067,49.49676555297412,1.9222120328010335,0.7774933751883992,Left,Correct,0.0,0.0,-45,45,2012,864,-2.47
"{'cat': 'RB', 'resp': 'reach'}",30,97,Left,37.279932024218695,37.31958374982334,1.8639966012109346,0.5862146507173701,Left,Correct,0.0,0.0,-45,45,2009,804,-2.49
"{'cat': 'RB', 'resp': 'reach'}",30,98,Left,32.204555182023846,41.76526334437168,1.6102277591011924,0.6560472224896058,Left,Correct,0.0,0.0,-45,45,2009,774,-2.51
"{'cat': 'RB', 'resp': 'reach'}",30,99,Left,47.94464530766125,34.6294189927429,2.397232265383062,0.5439576415284197,Right,Incorrect,0.0,0.0,-45,45,2004,599,-0.86
"{'cat': 'RB', 'resp': 'reach'}",30,100,Left,35.37671337435792,21.750585455026496,1.7688356687178959,0.3416573973839412,Left,Correct,0.0,0.0,-45,45,2002,807,-2.35
"{'cat': 'RB', 'resp': 'reach'}",30,101,Right,67.89360029959659,29.760251368946204,3.394680014979829,0.4674729353483349,Right,Correct,0.0,0.0,-45,45,2002,793,-0.78
"{'cat': 'RB', 'resp': 'reach'}",30,102,Left,42.8993741565886,16.098165907160542,2.14496870782943,0.25286939875102615,Left,Correct,0.0,0.0,-45,45,2006,1047,-2.45
"{'cat': 'RB', 'resp': 'reach'}",30,103,Right,67.88365219168098,56.76365253735622,3.3941826095840493,0.8916413690114097,Right,Correct,0.0,0.0,-45,45,2003,603,-0.89
"{'cat': 'RB', 'resp': 'reach'}",30,104,Right,53.22716538764827,64.28238115086467,2.661358269382413,1.009745281894077,Right,Correct,0.0,0.0,-45,45,2007,922,-0.88
"{'cat': 'RB', 'resp': 'reach'}",30,105,Right,68.11047896574918,62.07785912032309,3.405523948287459,0.9751167308149458,Right,Correct,0.0,0.0,-45,45,2003,690,-0.84
"{'cat': 'RB', 'resp': 'reach'}",30,106,Right,52.87675657964855,58.94763815926365,2.6438378289824276,0.92594733493806,Right,Correct,0.0,0.0,-45,45,2003,792,-0.81
"{'cat': 'RB', 'resp': 'reach'}",30,107,Right,67.57289849720777,44.702826685588676,3.378644924860389,0.7021903595507157,Right,Correct,0.0,0.0,-45,45,2004,723,-0.86
"{'cat': 'RB', 'resp': 'reach'}",30,108,Left,38.3282031077868,21.268863828781605,1.91641015538934,0.33409053177350984,Left,Correct,0.0,0.0,-45,45,2008,856,-2.47
"{'cat': 'RB', 'resp': 'reach'}",30,109,Left,42.78629788220075,69.12205594069377,2.1393148941100377,1.0857667157215312,Left,Correct,0.0,0.0,-45,45,2010,764,-2.44
"{'cat': 'RB', 'resp': 'reach'}",30,110,Left,36.86528809155338,24.895541740094377,1.8432644045776692,0.3910582551890928,Left,Correct,0.0,0.0,-45,45,2009,805,-2.5
"{'cat': 'RB', 'resp': 'reach'}",30,111,Right,52.506317213129286,64.08353672408998,2.6253158606564644,1.006621840942264,Right,Correct,0.0,0.0,-45,45,2003,922,-0.8
"{'cat': 'RB', 'resp': 'reach'}",30,112,Left,35.61337131088467,69.22493959225304,1.7806685655442336,1.0873828083410968,Left,Correct,0.0,0.0,-45,45,2002,875,-2.43
"{'cat': 'RB', 'resp': 'reach'}",30,113,Right,53.56721344805952,76.21483914946853,2.678360672402976,1.1971798938324907,Left,Incorrect,0.0,0.0,-45,45,2011,1284,-2.44
"{'cat': 'RB', 'resp': 'reach'}",30,114,Left,39.89934646700065,26.774050407821445,1.9949673233500322,0.4205658003402733,Left,Correct,0.0,0.0,-45,45,2004,2073,-2.45
"{'cat': 'RB', 'resp': 'reach'}",30,115,Left,35.41274793546387,28.850714382478056,1.7706373967731934,0.45318596177405224,Left,Correct,0.0,0.0,-45,45,2004,844,-2.53
"{'cat': 'RB', 'resp': 'reach'}",30,116,Left,39.47283818532666,29.217445700743998,1.9736419092663329,0.45894656385058014,Left,Correct,0.0,0.0,-45,45,2005,1147,-2.52
"{'cat': 'RB', 'resp': 'reach'}",30,117,Left,42.382070864551785,14.724731874678731,2.1191035432275895,0.23129554741785083,Right,Incorrect,0.0,0.0,-45,45,2012,1061,-0.78
"{'cat': 'RB', 'resp': 'reach'}",30,118,Right,57.42006750799073,63.16940245898822,2.8710033753995368,0.9922626534840722,Right,Correct,0.0,0.0,-45,45,2008,1256,-0.87
"{'cat': 'RB', 'resp': 'reach'}",30,119,Left,35.53937529328948,21.217251112926565,1.776968764664474,0.3332798011286998,Left,Correct,0.0,0.0,-45,45,2007,962,-2.48
"{'cat': 'RB', 'resp': 'reach'}",30,120,Right,60.79270975151302,66.48307963043281,3.039635487575651,1.0443137727749647,Right,Correct,0.0,0.0,-45,45,2002,1036,-0.78
"{'cat': 'RB', 'resp': 'reach'}",30,121,Right,67.33449746987614,49.77356821451108,3.366724873493807,0.7818413812282924,Right,Correct,0.0,0.0,-45,45,2007,825,-0.82
"{'cat': 'RB', 'resp': 'reach'}",30,122,Right,64.39350740227859,69.22397294810986,3.2196753701139293,1.0873676243304027,Right,Correct,0.0,0.0,-45,45,2003,752,-0.79
"{'cat': 'RB', 'resp': 'reach'}",30,123,Right,60.202538065666715,74.91078125310254,3.0101269032833358,1.1766958002970946,Right,Correct,0.0,0.0,-45,45,2008,959,-0.83
"{'cat': 'RB', 'resp': 'reach'}",30,124,Right,59.637790864514066,73.92989125194063,2.9818895432257033,1.161288016188945,Right,Correct,0.0,0.0,-45,45,2001,832,-0.83
"{'cat': 'RB', 'resp': 'reach'}",30,125,Right,56.53316041954113,50.857748895234,2.826658020977056,0.7988716515369078,Right,Correct,0.0,0.0,-45,45,2008,962,-0.8
"{'cat': 'RB', 'resp': 'reach'}",30,126,Left,40.056468585964225,35.20561712677386,2.0028234292982114,0.5530085406528388,Left,Correct,0.0,0.0,-45,45,2007,950,-2.41
"{'cat': 'RB', 'resp': 'reach'}",30,127,Left,45.17070164213341,65.9285702066866,2.25853508210667,1.0356035591150277,Left,Correct,0.0,0.0,-45,45,2004,1084,-2.54
"{'cat': 'RB', 'resp': 'reach'}",30,128,Right,64.5665094673199,82.22919269776324,3.228325473365995,1.2916531384495622,Right,Correct,0.0,0.0,-45,45,2003,883,-0.84
"{'cat': 'RB', 'resp': 'reach'}",30,129,Right,58.34817366333928,27.21277876255962,2.917408683166964,0.4274573292211082,Right,Correct,0.0,0.0,-45,45,2001,718,-0.86
"{'cat': 'RB', 'resp': 'reach'}",30,130,Left,40.27942962617577,89.29836100362357,2.0139714813087886,1.4026953745329653,Left,Correct,0.0,0.0,-45,45,2009,868,-2.48
"{'cat': 'RB', 'resp': 'reach'}",30,131,Left,38.07844829873331,20.329017059645825,1.9039224149366658,0.3193274532464245,Left,Correct,0.0,0.0,-45,45,2003,783,-2.47
"{'cat': 'RB', 'resp': 'reach'}",30,132,Right,63.403278124544194,71.02939781714474,3.17016390622721,1.115727171856244,Right,Correct,0.0,0.0,-45,45,2004,657,-0.76
"{'cat': 'RB', 'resp': 'reach'}",30,133,Left,36.89703648620169,18.99003812847144,1.8448518243100847,0.2982948213789797,Left,Correct,0.0,0.0,-45,45,2008,830,-2.42
"{'cat': 'RB', 'resp': 'reach'}",30,134,Right,62.6713413166327,81.40229142079546,3.133567065831635,1.2786642035647324,Right,Correct,0.0,0.0,-45,45,2009,696,-0.81
"{'cat': 'RB', 'resp': 'reach'}",30,135,Right,58.73159058796716,54.87546720906438,2.936579529398358,0.8619818232315213,Right,Correct,0.0,0.0,-45,45,2006,829,-0.78
"{'cat': 'RB', 'resp': 'reach'}",30,136,Right,56.77003178052616,27.35668264155847,2.838501589026308,0.4297177660665376,Right,Correct,0.0,0.0,-45,45,2010,726,-0.86
"{'cat': 'RB', 'resp': 'reach'}",30,137,Left,44.09314462392994,37.54215876985884,2.2046572311964967,0.5897108509564508,Right,Incorrect,0.0,0.0,-45,45,2011,1139,-0.82
"{'cat': 'RB', 'resp': 'reach'}",30,138,Left,34.51841932111853,18.86574155218674,1.7259209660559265,0.2963423753243678,Left,Correct,0.0,0.0,-45,45,2004,933,-2.44
"{'cat': 'RB', 'resp': 'reach'}",30,139,Right,64.87218170238319,71.92033631394153,3.243609085119159,1.1297220010379299,Right,Correct,0.0,0.0,-45,45,2007,943,-0.89
"{'cat': 'RB', 'resp': 'reach'}",30,140,Left,41.414783438123266,82.27254509406715,2.070739171906163,1.292334116298282,Left,Correct,0.0,0.0,-45,45,2012,871,-2.41
"{'cat': 'RB', 'resp': 'reach'}",30,141,Right,57.26206578631896,31.33798504120954,2.8631032893159483,0.4922559179188536,Right,Correct,0.0,0.0,-45,45,2002,770,-0.85
"{'cat': 'RB', 'resp': 'reach'}",30,142,Right,59.510367674060376,69.7058364390051,2.975518383703019,1.0949367183455505,Right,Correct,0.0,0.0,-45,45,2003,899,-0.8
"{'cat': 'RB', 'resp': 'reach'}",30,143,Left,49.00709827362914,57.65010022213023,2.450354913681457,0.9055656566827981,Right,Incorrect,0.0,0.0,-45,45,2008,706,-0.79
"{'cat': 'RB', 'resp': 'reach'}",30,144,Right,62.9165323508636,56.09433302572363,3.14582661754318,0.8811277227081634,Right,Correct,0.0,0.0,-45,45,2005,964,-0.83
"{'cat': 'RB', 'resp': 'reach'}",30,145,Left,32.73699208324364,27.170833856672804,1.6368496041621823,0.42679846018016054,Left,Correct,0.0,0.0,-45,45,2006,1008,-2.59
"{'cat': 'RB', 'resp': 'reach'}",30,146,Left,35.76586283666517,69.96879008708395,1.7882931418332586,1.0990671845907463,Left,Correct,0.0,0.0,-45,45,2006,945,-2.46
"{'cat': 'RB', 'resp': 'reach'}",30,147,Right,62.915176718649754,87.16522367125583,3.1457588359324875,1.369188131670642,Right,Correct,0.0,0.0,-45,45,2001,930,-0.87
"{'cat': 'RB', 'resp': 'reach'}",30,148,Left,33.726621241772136,23.610385344090776,1.6863310620886067,0.3708710657270985,Left,Correct,0.0,0.0,-45,45,2004,1260,-2.5
"{'cat': 'RB', 'resp': 'reach'}",30,149,Left,49.37116377019772,54.11299392972983,2.4685581885098857,0.8500049209669415,Right,Incorrect,0.0,0.0,-45,45,2004,1549,-0.84
"{'cat': 'RB', 'resp': 'reach'}",30,150,Right,55.11353112717305,37.505388455709614,2.7556765563586523,0.5891332642124438,Right,Correct,0.0,0.0,-45,45,2002,1050,-0.88
"{'cat': 'RB', 'resp': 'reach'}",30,151,Right,63.21324744339025,52.10891538628693,3.160662372169513,0.8185249288204559,Right,Correct,0.0,0.0,-45,45,2008,1035,-0.86
"{'cat': 'RB', 'resp': 'reach'}",30,152,Left,43.76470063020501,13.24234601709803,2.188235031510251,0.2080102848180461,Right,Incorrect,0.0,0.0,-45,45,2006,2538,-0.81
"{'cat': 'RB', 'resp': 'reach'}",30,153,Right,64.89445039684017,20.03870355875514,3.2447225198420084,0.31476721943824393,Right,Correct,0.0,0.0,-45,45,2003,800,-0.87
"{'cat': 'RB', 'resp': 'reach'}",30,154,Left,39.627061708444664,43.424215268621026,1.9813530854222332,0.6821059783790077,Left,Correct,0.0,0.0,-45,45,2003,1348,-2.42
"{'cat': 'RB', 'resp': 'reach'}",30,155,Left,45.94641829840181,33.07456348254474,2.2973209149200904,0.519534028287259,Left,Correct,0.0,0.0,-45,45,2004,1938,-2.47
"{'cat': 'RB', 'resp': 'reach'}",30,156,Right,61.89156390438828,89.26256303042477,3.094578195219414,1.4021330612848915,Right,Correct,0.0,0.0,-45,45,2002,806,-0.76
"{'cat': 'RB', 'resp': 'reach'}",30,157,Right,58.8679191005893,68.12331558353937,2.943395955029465,1.0700785388771317,Right,Correct,0.0,0.0,-45,45,2004,943,-0.85
"{'cat': 'RB', 'resp': 'reach'}",30,158,Left,37.27587815008016,39.60813992600765,1.863793907504008,0.6221632070695111,Left,Correct,0.0,0.0,-45,45,2010,946,-2.39
"{'cat': 'RB', 'resp': 'reach'}",30,159,Left,37.39963173859481,22.119003338524724,1.8699815869297407,0.3474444919651869,Left,Correct,0.0,0.0,-45,45,2008,1018,-2.47
"{'cat': 'RB', 'resp': 'reach'}",30,160,Right,62.667276256100884,25.051620795103428,3.1333638128050443,0.3935099392520711,Right,Correct,0.0,0.0,-45,45,2007,726,-0.79
"{'cat': 'RB', 'resp': 'reach'}",30,161,Right,61.30116362091738,28.17491909521128,3.0650581810458686,0.4425705942250127,Right,Correct,0.0,0.0,-45,45,2007,765,-0.85
"{'cat': 'RB', 'resp': 'reach'}",30,162,Right,52.49887199727929,31.973893921175115,2.6249435998639643,0.5022447512471154,Right,Correct,0.0,0.0,-45,45,2009,783,-0.85
"{'cat': 'RB', 'resp': 'reach'}",30,163,Left,37.728062231626666,75.92276025551041,1.8864031115813333,1.192591929294853,Left,Correct,0.0,0.0,-45,45,2008,929,-2.49
"{'cat': 'RB', 'resp': 'reach'}",30,164,Right,63.26010307099274,84.47289700600183,3.163005153549637,1.326897163307513,Right,Correct,0.0,0.0,-45,45,2011,894,-0.84
"{'cat': 'RB', 'resp': 'reach'}",30,165,Right,53.99305193288322,25.690517766855407,2.6996525966441607,0.40354570941635504,Right,Correct,0.0,0.0,-45,45,2008,821,-0.84
"{'cat': 'RB', 'resp': 'reach'}",30,166,Left,49.33984874330709,47.14207064747581,2.466992437165354,0.7405059141056053,Left,Correct,0.0,0.0,-45,45,2007,1097,-2.39
"{'cat': 'RB', 'resp': 'reach'}",30,167,Right,53.83282303295015,35.41761093913426,2.6916411516475076,0.5563385316704286,Right,Correct,0.0,0.0,-45,45,2009,1017,-0.85
"{'cat': 'RB', 'resp': 'reach'}",30,168,Right,59.91486924189171,60.05808392592509,2.9957434620945858,0.9433901762518275,Right,Correct,0.0,0.0,-45,45,2004,887,-0.87
"{'cat': 'RB', 'resp': 'reach'}",30,169,Left,39.73242129174618,27.931434506523907,1.9866210645873088,0.4387459472495997,Left,Correct,0.0,0.0,-45,45,2005,1002,-2.41
"{'cat': 'RB', 'resp': 'reach'}",30,170,Right,60.5027994949547,36.17904634678641,3.025139974747735,0.568299131084744,Right,Correct,0.0,0.0,-45,45,2004,712,-0.88
"{'cat': 'RB', 'resp': 'reach'}",30,171,Left,40.11352990420138,33.25233376044528,2.005676495210069,0.5223264372826538,Left,Correct,0.0,0.0,-45,45,2007,1029,-2.44
"{'cat': 'RB', 'resp': 'reach'}",30,172,Right,58.83601516965844,81.94466800243458,2.9418007584829216,1.2871838349865157,Left,Incorrect,0.0,0.0,-45,45,2004,1451,-2.45
"{'cat': 'RB', 'resp': 'reach'}",30,173,Left,35.00579990765149,42.139038421068136,1.7502899953825746,0.6619184676648285,Left,Correct,0.0,0.0,-45,45,2012,816,-2.52
"{'cat': 'RB', 'resp': 'reach'}",30,174,Left,42.12176839731478,56.7641569474819,2.1060884198657392,0.8916492922671359,Left,Correct,0.0,0.0,-45,45,2004,898,-2.48
"{'cat': 'RB', 'resp': 'reach'}",30,175,Right,57.08755421280932,52.48116602333465,2.854377710640466,0.8243722281536721,Right,Correct,0.0,0.0,-45,45,2008,773,-0.74
"{'cat': 'RB', 'resp': 'reach'}",30,176,Left,46.50397477368566,49.17175172268446,2.325198738684283,0.7723880698806337,Right,Incorrect,0.0,0.0,-45,45,2007,660,-0.83
"{'cat': 'RB', 'resp': 'reach'}",30,177,Left,43.30521649255768,20.708026142044844,2.165260824627884,0.32528091399096737,Left,Correct,0.0,0.0,-45,45,2006,1294,-2.43
"{'cat': 'RB', 'resp': 'reach'}",30,178,Right,57.863014760788076,21.861078393571518,2.8931507380394037,0.3433930164039742,Right,Correct,0.0,0.0,-45,45,2008,886,-0.84
"{'cat': 'RB', 'resp': 'reach'}",30,179,Left,40.454346774024785,71.68405939921453,2.022717338701239,1.1260105719403337,Left,Correct,0.0,0.0,-45,45,2008,828,-2.54
"{'cat': 'RB', 'resp': 'reach'}",30,180,Left,38.746216531257865,66.13767509067611,1.937310826562893,1.0388881709518836,Left,Correct,0.0,0.0,-45,45,2002,951,-2.44
"{'cat': 'RB', 'resp': 'reach'}",30,181,Right,69.23878348756737,40.618902109848776,3.4619391743783687,0.6380402223259193,Right,Correct,0.0,0.0,-45,45,2008,780,-0.76
"{'cat': 'RB', 'resp': 'reach'}",30,182,Left,33.60187667893566,54.898491539588996,1.680093833946783,0.8623434885696709,Left,Correct,0.0,0.0,-45,45,2006,873,-2.46
"{'cat': 'RB', 'resp': 'reach'}",30,183,Left,35.54576700321477,81.11626941837774,1.7772883501607384,1.2741713804569297,Left,Correct,0.0,0.0,-45,45,2004,702,-2.58
"{'cat': 'RB', 'resp': 'reach'}",30,184,Left,40.52633905052128,45.396061486397,2.026316952526064,0.7130796663378768,Left,Correct,0.0,0.0,-45,45,2012,1003,-2.48
"{'cat': 'RB', 'resp': 'reach'}",30,185,Left,35.83303954869279,28.496727267981615,1.7916519774346396,0.44762554518221487,Left,Correct,0.0,0.0,-45,45,2003,800,-2.47
"{'cat': 'RB', 'resp': 'reach'}",30,186,Right,52.72734975174701,43.83628919948967,2.6363674875873504,0.6885788205487717,Right,Correct,0.0,0.0,-45,45,2004,685,-0.77
"{'cat': 'RB', 'resp': 'reach'}",30,187,Right,67.61934670423366,60.09833026092243,3.380967335211683,0.9440223642036353,Right,Correct,0.0,0.0,-45,45,2005,950,-0.82
"{'cat': 'RB', 'resp': 'reach'}",30,188,Left,33.923570711916604,68.45180653825764,1.69617853559583,1.0752384627276999,Left,Correct,0.0,0.0,-45,45,2006,950,-2.49
"{'cat': 'RB', 'resp': 'reach'}",30,189,Left,32.0756735923426,66.63139816282396,1.6037836796171303,1.0466435548337207,Left,Correct,0.0,0.0,-45,45,2001,1064,-2.4
"{'cat': 'RB', 'resp': 'reach'}",30,190,Right,59.17319358751414,12.600918179712764,2.958659679375707,0.19793475990935844,Right,Correct,0.0,0.0,-45,45,2009,950,-0.84
"{'cat': 'RB', 'resp': 'reach'}",30,191,Right,61.12977219658298,75.1431894243641,3.056488609829149,1.1803464593144424,Right,Correct,0.0,0.0,-45,45,2008,702,-0.85
"{'cat': 'RB', 'resp': 'reach'}",30,192,Left,33.048294758250606,74.6409532467272,1.6524147379125305,1.172457351884287,Left,Correct,0.0,0.0,-45,45,2008,940,-2.43
"{'cat': 'RB', 'resp': 'reach'}",30,193,Left,45.29721265178728,59.66290945660254,2.2648606325893637,0.9371827902032777,Left,Correct,0.0,0.0,-45,45,2007,996,-2.46
"{'cat': 'RB', 'resp': 'reach'}",30,194,Left,37.31811323520581,64.93844370971223,1.8659056617602903,1.0200506884699314,Left,Correct,0.0,0.0,-45,45,2002,865,-2.47
"{'cat': 'RB', 'resp': 'reach'}",30,195,Right,64.66823020114097,31.301617684591964,3.233411510057049,0.4916846608169523,Right,Correct,0.0,0.0,-45,45,2013,773,-0.79
"{'cat': 'RB', 'resp': 'reach'}",30,196,Right,64.46833875563264,78.30379177760763,3.223416937781632,1.2299930849837848,Right,Correct,0.0,0.0,-45,45,2002,760,-0.83
"{'cat': 'RB', 'resp': 'reach'}",30,197,Left,34.784989500302274,50.63399478359391,1.7392494750151137,0.7953569301702127,Left,Correct,0.0,0.0,-45,45,2002,949,-2.46
"{'cat': 'RB', 'resp': 'reach'}",30,198,Left,32.494450616841306,62.63131057608027,1.6247225308420652,0.9838103259525726,Left,Correct,0.0,0.0,-45,45,2004,1025,-2.42
"{'cat': 'RB', 'resp': 'reach'}",30,199,Left,46.54444749704337,77.10553713113626,2.3272223748521683,1.2111709450113635,Left,Correct,0.0,0.0,-45,45,2008,1306,-2.49
"{'cat': 'RB', 'resp': 'reach'}",30,200,Right,66.45628692677042,74.06762100364395,3.3228143463385207,1.1634514700696046,Right,Correct,0.0,0.0,-45,45,2007,813,-0.88
"{'cat': 'RB', 'resp': 'reach'}",30,201,Right,54.70895708736771,19.682890929201275,2.7354478543683856,0.3091781277229395,Right,Correct,0.0,0.0,-45,45,2009,792,-0.91
"{'cat': 'RB', 'resp': 'reach'}",30,202,Left,37.79646030219637,36.79428448937749,1.8898230151098188,0.577963269229606,Left,Correct,0.0,0.0,-45,45,2008,1070,-2.47
"{'cat': 'RB', 'resp': 'reach'}",30,203,Left,44.40263196666062,14.485122009789457,2.2201315983330314,0.2275317644615319,Right,Incorrect,0.0,0.0,-45,45,2005,823,-0.84
"{'cat': 'RB', 'resp': 'reach'}",30,204,Right,68.04701496221297,42.88671249986455,3.4023507481106487,0.67366290463096,Right,Correct,0.0,0.0,-45,45,2008,804,-0.81
"{'cat': 'RB', 'resp': 'reach'}",30,205,Right,56.02989682804917,29.1798765469051,2.8014948414024583,0.4583564289620708,Right,Correct,0.0,0.0,-45,45,2002,874,-0.85
"{'cat': 'RB', 'resp': 'reach'}",30,206,Right,63.906321932655445,19.28719577412937,3.195316096632772,0.30296256276176464,Right,Correct,0.0,0.0,-45,45,2008,740,-0.84
"{'cat': 'RB', 'resp': 'reach'}",30,207,Left,40.6750685162783,76.8556008942891,2.033753425813915,1.2072449557836389,Left,Correct,0.0,0.0,-45,45,2007,727,-2.46
"{'cat': 'RB', 'resp': 'reach'}",30,208,Right,66.14088647276856,81.50965086935678,3.307044323638428,1.2803506018392008,Right,Correct,0.0,0.0,-45,45,2005,870,-0.8
"{'cat': 'RB', 'resp': 'reach'}",30,209,Left,34.817978225079585,80.740799491589,1.7408989112539792,1.2682735126387126,Left,Correct,0.0,0.0,-45,45,2007,769,-2.51
"{'cat': 'RB', 'resp': 'reach'}",30,210,Left,37.90067617297428,65.73143955842673,1.895033808648714,1.0325070381331747,Left,Correct,0.0,0.0,-45,45,2006,887,-2.43
"{'cat': 'RB', 'resp': 'reach'}",30,211,Right,65.90941266766791,21.702157411427894,3.295470633383395,0.34089669145395574,Right,Correct,0.0,0.0,-45,45,2004,764,-0.82
"{'cat': 'RB', 'resp': 'reach'}",30,212,Right,61.241401262712635,72.86325080033991,3.0620700631356317,1.1445332671550925,Right,Correct,0.0,0.0,-45,45,2002,694,-0.83
"{'cat': 'RB', 'resp': 'reach'}",30,213,Left,48.92403342229111,42.81461504290715,2.4462016711145553,0.6725304004253607,Left,Correct,0.0,0.0,-45,45,2013,2044,-2.44
"{'cat': 'RB', 'resp': 'reach'}",30,214,Left,39.76481727987751,36.220250003253675,1.9882408639938758,0.5689463566070372,Left,Correct,0.0,0.0,-45,45,2005,926,-2.43
"{'cat': 'RB', 'resp': 'reach'}",30,215,Right,67.78568421122887,72.1372257617868,3.3892842105614434,1.1331288925178888,Right,Correct,0.0,0.0,-45,45,2009,828,-0.84
"{'cat': 'RB', 'resp': 'reach'}",30,216,Right,54.103726107127514,19.83811277262209,2.7051863053563756,0.311616346737777,Right,Correct,0.0,0.0,-45,45,2011,984,-0.79
"{'cat': 'RB', 'resp': 'reach'}",30,217,Right,65.63584181565828,25.028132564776783,3.2817920907829143,0.39314098699287103,Right,Correct,0.0,0.0,-45,45,2003,747,-0.84
"{'cat': 'RB', 'resp': 'reach'}",30,218,Right,59.7539850091418,29.533044255748056,2.98769925045709,0.46390397436000164,Right,Correct,0.0,0.0,-45,45,2003,748,-0.86
"{'cat': 'RB', 'resp': 'reach'}",30,219,Left,34.464315012350234,75.88357193163705,1.7232157506175116,1.1919763605429181,Left,Correct,0.0,0.0,-45,45,2007,998,-2.42
"{'cat': 'RB', 'resp': 'reach'}",30,220,Left,43.20251057817938,17.41040972618505,2.160125528908969,0.2734820764588562,Left,Correct,0.0,0.0,-45,45,2008,1044,-2.49
"{'cat': 'RB', 'resp': 'reach'}",30,221,Right,55.911945601682746,64.58111257508303,2.7955972800841375,1.0144377441326813,Right,Correct,0.0,0.0,-45,45,2005,995,-0.82
"{'cat': 'RB', 'resp': 'reach'}",30,222,Right,52.62461712112772,60.124643339374245,2.631230856056386,0.9444356890734231,Right,Correct,0.0,0.0,-45,45,2005,739,-0.83
"{'cat': 'RB', 'resp': 'reach'}",30,223,Left,48.14672435873893,58.172737505213384,2.4073362179369466,0.913775223927929,Right,Incorrect,0.0,0.0,-45,45,2005,933,-0.75
"{'cat': 'RB', 'resp': 'reach'}",30,224,Right,58.92428335010458,64.13274001947052,2.9462141675052287,1.0073947244987635,Right,Correct,0.0,0.0,-45,45,2011,935,-0.89
"{'cat': 'RB', 'resp': 'reach'}",30,225,Left,33.88440451678383,64.61077545172925,1.6942202258391916,1.014903687509462,Left,Correct,0.0,0.0,-45,45,2009,851,-2.52
"{'cat': 'RB', 'resp': 'reach'}",30,226,Right,52.543811293489846,45.866629699243774,2.627190564674492,0.7204713345403383,Right,Correct,0.0,0.0,-45,45,2011,1053,-0.79
"{'cat': 'RB', 'resp': 'reach'}",30,227,Left,42.783230224146486,50.36960390688464,2.139161511207324,0.7912038879904827,Left,Correct,0.0,0.0,-45,45,2008,1001,-2.48
"{'cat': 'RB', 'resp': 'reach'}",30,228,Left,37.432460051359385,31.535109596757067,1.8716230025679692,0.4953523431966049,Left,Correct,0.0,0.0,-45,45,2011,826,-2.5
"{'cat': 'RB', 'resp': 'reach'}",30,229,Left,38.35872736936614,71.7463249084575,1.917936368468307,1.1269886362723822,Left,Correct,0.0,0.0,-45,45,2011,798,-2.43
"{'cat': 'RB', 'resp': 'reach'}",30,230,Right,60.838748986086465,42.212357722070806,3.0419374493043234,0.66307016455181,Right,Correct,0.0,0.0,-45,45,2002,783,-0.78
"{'cat': 'RB', 'resp': 'reach'}",30,231,Right,67.92186504804529,46.50030584446047,3.3960932524022645,0.7304250961531776,Right,Correct,0.0,0.0,-45,45,2006,676,-0.79
"{'cat': 'RB', 'resp': 'reach'}",30,232,Left,36.408631019857104,69.80831206321386,1.820431550992855,1.0965464016864819,Left,Correct,0.0,0.0,-45,45,2012,800,-2.38
"{'cat': 'RB', 'resp': 'reach'}",30,233,Left,43.63049947774882,52.16027644253586,2.181524973887441,0.8193317064054172,Left,Correct,0.0,0.0,-45,45,2008,1147,-2.44
"{'cat': 'RB', 'resp': 'reach'}",30,234,Right,63.7424315949419,37.965685334095156,3.187121579747095,0.5963635906704755,Right,Correct,0.0,0.0,-45,45,2003,612,-0.81
"{'cat': 'RB', 'resp': 'reach'}",30,235,Right,58.547623218314136,79.02749566307395,2.927381160915707,1.241360999033562,Right,Correct,0.0,0.0,-45,45,2012,1082,-0.79
"{'cat': 'RB', 'resp': 'reach'}",30,236,Left,33.877566369841894,25.168422812651496,1.6938783184920947,0.3953446610533385,Left,Correct,0.0,0.0,-45,45,2007,862,-2.43
"{'cat': 'RB', 'resp': 'reach'}",30,237,Right,65.78091489996726,57.960764815823595,3.2890457449983628,0.9104455647091858,Right,Correct,0.0,0.0,-45,45,2005,758,-0.83
"{'cat': 'RB', 'resp': 'reach'}",30,238,Right,61.38454693091327,36.496444918569196,3.0692273465456634,0.5732848161916076,Right,Correct,0.0,0.0,-45,45,2005,753,-0.81
"{'cat': 'RB', 'resp': 'reach'}",30,239,Left,45.8477648598663,73.53747256263064,2.292388242993315,1.155123917831607,Left,Correct,0.0,0.0,-45,45,2004,843,-2.43
"{'cat': 'RB', 'resp': 'reach'}",30,240,Right,66.68058374542672,59.561392082995965,3.3340291872713355,0.935588159027607,Right,Correct,0.0,0.0,-45,45,2005,887,-0.84
"{'cat': 'RB', 'resp': 'reach'}",30,241,Left,40.55756729462484,65.11903515384708,2.027878364731242,1.0228874122409073,Left,Correct,0.0,0.0,-45,45,2006,833,-2.53
"{'cat': 'RB', 'resp': 'reach'}",30,242,Left,37.27127969313196,47.26746744495379,1.863563984656598,0.7424756423943077,Left,Correct,0.0,0.0,-45,45,2006,897,-2.49
"{'cat': 'RB', 'resp': 'reach'}",30,243,Right,54.64318233369304,50.35790083610558,2.732159116684652,0.791020056584563,Right,Correct,0.0,0.0,-45,45,2008,767,-0.83
"{'cat': 'RB', 'resp': 'reach'}",30,244,Right,56.8411966840534,28.809597626989337,2.84205983420267,0.45254010128913824,Right,Correct,0.0,0.0,-45,45,2009,825,-0.83
"{'cat': 'RB', 'resp': 'reach'}",30,245,Left,45.89120071760539,22.862065982536564,2.2945600358802696,0.3591164926831099,Left,Correct,0.0,0.0,-45,45,2004,789,-2.44
"{'cat': 'RB', 'resp': 'reach'}",30,246,Left,37.48161043375259,59.5667580520357,1.8740805216876297,0.9356724474721801,Left,Correct,0.0,0.0,-45,45,2003,914,-2.46
"{'cat': 'RB', 'resp': 'reach'}",30,247,Right,65.72046545220488,22.663919115925996,3.2860232726102434,0.3560040089807319,Right,Correct,0.0,0.0,-45,45,2008,760,-0.84
"{'cat': 'RB', 'resp': 'reach'}",30,248,Right,54.4058457236828,18.62775343719222,2.7202922861841397,0.2926040667558255,Right,Correct,0.0,0.0,-45,45,2009,941,-0.87
"{'cat': 'RB', 'resp': 'reach'}",30,249,Left,44.25754822598436,44.802878829410524,2.212877411299218,0.703761974950749,Left,Correct,0.0,0.0,-45,45,2007,1196,-2.41
"{'cat': 'RB', 'resp': 'reach'}",30,250,Right,65.92796706487178,26.33002164092097,3.296398353243589,0.41359101277988797,Right,Correct,0.0,0.0,-45,45,2006,866,-0.84
"{'cat': 'RB', 'resp': 'reach'}",30,251,Right,57.726338861049385,41.456676463812855,2.8863169430524693,0.6511999511048168,Right,Correct,0.0,0.0,-45,45,2002,1092,-0.89
"{'cat': 'RB', 'resp': 'reach'}",30,252,Left,40.35963859000304,79.35566410142034,2.0179819295001518,1.246515856808807,Left,Correct,0.0,0.0,-45,45,2012,830,-2.43
"{'cat': 'RB', 'resp': 'reach'}",30,253,Right,64.39267557748892,39.566983308752675,3.2196337788744462,0.6215167204374368,Right,Correct,0.0,0.0,-45,45,2001,1003,-0.78
"{'cat': 'RB', 'resp': 'reach'}",30,254,Right,61.57191491880337,79.85056704499124,3.0785957459401687,1.2542897740676184,Right,Correct,0.0,0.0,-45,45,2004,896,-0.84
"{'cat': 'RB', 'resp': 'reach'}",30,255,Left,42.91712622468248,47.4342892398183,2.145856311234124,0.7450960730203329,Left,Correct,0.0,0.0,-45,45,2003,897,-2.36
"{'cat': 'RB', 'resp': 'reach'}",30,256,Left,44.667164208706645,48.164230203687076,2.2333582104353322,0.7565619588685547,Left,Correct,0.0,0.0,-45,45,2009,1209,-2.59
"{'cat': 'RB', 'resp': 'reach'}",30,257,Right,60.01274055041544,10.821639279846288,3.0006370275207717,0.16998591230681917,Right,Correct,0.0,0.0,-45,45,2005,807,-0.86
"{'cat': 'RB', 'resp': 'reach'}",30,258,Right,57.346943886768095,17.630647277347393,2.867347194338405,0.27694155982273727,Right,Correct,0.0,0.0,-45,45,2001,796,-0.79
"{'cat': 'RB', 'resp': 'reach'}",30,259,Left,41.18450529482029,71.75533418096445,2.0592252647410145,1.1271301535939924,Left,Correct,0.0,0.0,-45,45,2003,779,-2.43
"{'cat': 'RB', 'resp': 'reach'}",30,260,Right,55.2939262730397,72.75034850086492,2.764696313651985,1.1427598019820724,Right,Correct,0.0,0.0,-45,45,2004,1127,-0.83
"{'cat': 'RB', 'resp': 'reach'}",30,261,Left,36.41371068317895,52.178874334675065,1.8206855341589474,0.819623841412001,Left,Correct,0.0,0.0,-45,45,2007,981,-2.44
"{'cat': 'RB', 'resp': 'reach'}",30,262,Left,31.17290666996221,48.253434711591204,1.5586453334981103,0.7579631800020482,Left,Correct,0.0,0.0,-45,45,2001,1117,-2.48
"{'cat': 'RB', 'resp': 'reach'}",30,263,Left,37.8224962082079,45.688735751387334,1.891124810410395,0.7176769829418188,Left,Correct,0.0,0.0,-45,45,2003,1638,-2.44
"{'cat': 'RB', 'resp': 'reach'}",30,264,Right,65.69381173359963,51.59119881021171,3.284690586679982,0.8103926558602579,Right,Correct,0.0,0.0,-45,45,2005,821,-0.83
"{'cat': 'RB', 'resp': 'reach'}",30,265,Right,55.15721125009632,41.125512446973005,2.7578605625048156,0.64599803889263,Right,Correct,0.0,0.0,-45,45,2002,931,-0.87
"{'cat': 'RB', 'resp': 'reach'}",30,266,Left,32.81281998857838,74.08142591456101,1.640640999428919,1.163668317103207,Left,Correct,0.0,0.0,-45,45,2011,932,-2.61
"{'cat': 'RB', 'resp': 'reach'}",30,267,Right,58.8953221991476,14.029134173409723,2.9447661099573796,0.2203691242770475,Right,Correct,0.0,0.0,-45,45,2004,911,-0.86
"{'cat': 'RB', 'resp': 'reach'}",30,268,Right,62.62258061657419,14.58997781662218,3.1311290308287094,0.22917883562369146,Right,Correct,0.0,0.0,-45,45,2007,792,-0.92
"{'cat': 'RB', 'resp': 'reach'}",30,269,Right,52.042613286002194,37.29276759395934,2.6021306643001094,0.5857934235260708,Right,Correct,0.0,0.0,-45,45,2006,1054,-0.92
"{'cat': 'RB', 'resp': 'reach'}",30,270,Left,41.54613806347767,30.566181964326386,2.0773069031738833,0.480132463537083,Left,Correct,0.0,0.0,-45,45,2001,1259,-2.43
"{'cat': 'RB', 'resp': 'reach'}",30,271,Left,32.70009196931474,63.95795397907862,1.635004598465737,1.0046491917965372,Left,Correct,0.0,0.0,-45,45,2003,819,-2.47
"{'cat': 'RB', 'resp': 'reach'}",30,272,Left,35.796819595288746,17.377875928303936,1.7898409797644375,0.27297103675677276,Left,Correct,0.0,0.0,-45,45,2006,783,-2.45
"{'cat': 'RB', 'resp': 'reach'}",30,273,Right,62.782256177969494,88.34143641192169,3.1391128088984748,1.3876640381963152,Right,Correct,0.0,0.0,-45,45,2006,939,-0.86
"{'cat': 'RB', 'resp': 'reach'}",30,274,Right,55.3789672853379,62.69884753789956,2.768948364266895,0.9848711940680588,Right,Correct,0.0,0.0,-45,45,2007,958,-0.8
"{'cat': 'RB', 'resp': 'reach'}",30,275,Right,62.04851532314852,10.277600895744634,3.102425766157426,0.16144017735299612,Right,Correct,0.0,0.0,-45,45,2007,788,-0.85
"{'cat': 'RB', 'resp': 'reach'}",30,276,Left,35.378478932902595,34.32976861600078,1.7689239466451299,0.5392507444173275,Left,Correct,0.0,0.0,-45,45,2002,916,-2.44
"{'cat': 'RB', 'resp': 'reach'}",30,277,Left,47.834933909963745,49.05169534122759,2.3917466954981874,0.7705022286506266,Right,Incorrect,0.0,0.0,-45,45,2007,2167,-0.82
"{'cat': 'RB', 'resp': 'reach'}",30,278,Right,60.76816025477035,14.946330136036089,3.0384080127385173,0.23477640476749354,Right,Correct,0.0,0.0,-45,45,2004,1000,-0.92
"{'cat': 'RB', 'resp': 'reach'}",30,279,Right,56.798687439735374,56.234052009822655,2.839934371986769,0.8833224233782261,Right,Correct,0.0,0.0,-45,45,2005,807,-0.81
"{'cat': 'RB', 'resp': 'reach'}",30,280,Right,65.33516418580444,19.275474494024248,3.2667582092902223,0.30277844532442005,Right,Correct,0.0,0.0,-45,45,2003,646,-0.8
"{'cat': 'RB', 'resp': 'reach'}",30,281,Right,53.50613840728812,79.8400439914297,2.675306920364406,1.254124478328807,Right,Correct,0.0,0.0,-45,45,2005,1045,-0.91
"{'cat': 'RB', 'resp': 'reach'}",30,282,Left,45.04929671614813,54.92875564540901,2.252464835807406,0.8628188760322292,Left,Correct,0.0,0.0,-45,45,2003,1050,-2.45
"{'cat': 'RB', 'resp': 'reach'}",30,283,Left,40.542197192406846,67.83384406526862,2.0271098596203423,1.0655315309010174,Left,Correct,0.0,0.0,-45,45,2009,1286,-2.4
"{'cat': 'RB', 'resp': 'reach'}",30,284,Left,32.515314123053756,58.062475226929344,1.625765706152688,0.912043228110803,Left,Correct,0.0,0.0,-45,45,2001,867,-2.53
"{'cat': 'RB', 'resp': 'reach'}",30,285,Right,65.63595332644206,74.30222315417205,3.2817976663221033,1.1671365920326815,Right,Correct,0.0,0.0,-45,45,2002,911,-0.82
"{'cat': 'RB', 'resp': 'reach'}",30,286,Right,56.000052872762296,35.94496172049441,2.800002643638115,0.564622138373358,Right,Correct,0.0,0.0,-45,45,2007,741,-0.81
"{'cat': 'RB', 'resp': 'reach'}",30,287,Right,59.805824336997105,54.092824737615864,2.990291216849855,0.849688104038071,Right,Correct,0.0,0.0,-45,45,2012,783,-0.9
"{'cat': 'RB', 'resp': 'reach'}",30,288,Right,65.97595744141323,70.79514462217078,3.2987978720706614,1.1120475312741933,Right,Correct,0.0,0.0,-45,45,2010,860,-0.88
"{'cat': 'RB', 'resp': 'reach'}",30,289,Left,33.89869794302498,41.5077982087804,1.694934897151249,0.6520029695969605,Left,Correct,0.0,0.0,-45,45,2004,945,-2.51
"{'cat': 'RB', 'resp': 'reach'}",30,290,Left,36.32269663199455,19.032960555293656,1.8161348315997277,0.29896904528287427,Left,Correct,0.0,0.0,-45,45,2001,966,-2.45
"{'cat': 'RB', 'resp': 'reach'}",30,291,Right,59.50968902241414,86.21752513203093,2.9754844511207073,1.3543017178274086,Right,Correct,0.0,0.0,-45,45,2006,1364,-0.77
"{'cat': 'RB', 'resp': 'reach'}",30,292,Left,33.59082738545013,77.42718220134486,1.6795413692725065,1.216223333959517,Left,Correct,0.0,0.0,-45,45,2006,1030,-2.46
"{'cat': 'RB', 'resp': 'reach'}",30,293,Right,63.081078686900085,36.55631301130586,3.1540539343450043,0.5742252219932373,Right,Correct,0.0,0.0,-45,45,2007,791,-0.8
"{'cat': 'RB', 'resp': 'reach'}",30,294,Right,64.09816040950189,41.63225796429976,3.204908020475094,0.6539579788649964,Right,Correct,0.0,0.0,-45,45,2003,776,-0.91
"{'cat': 'RB', 'resp': 'reach'}",30,295,Right,64.3498771746561,59.232147107784115,3.217493858732805,0.9304163910508224,Right,Correct,0.0,0.0,-45,45,2002,807,-0.96
"{'cat': 'RB', 'resp': 'reach'}",30,296,Left,35.641952628609,81.02488010641171,1.78209763143045,1.2727358405014841,Left,Correct,0.0,0.0,-45,45,2003,850,-2.46
"{'cat': 'RB', 'resp': 'reach'}",30,297,Left,39.09348424736397,80.90626190368846,1.9546742123681984,1.2708725901301972,Left,Correct,0.0,0.0,-45,45,2004,864,-2.32
"{'cat': 'RB', 'resp': 'reach'}",30,298,Left,37.711977453114706,59.50256678202526,1.8855988726557353,0.9346641333607333,Left,Correct,0.0,0.0,-45,45,2002,1188,-2.41
"{'cat': 'RB', 'resp': 'reach'}",30,299,Left,40.63107756722582,69.77070400190973,2.031553878361291,1.095955655640938,Left,Correct,0.0,0.0,-45,45,2008,1139,-2.38
"{'cat': 'RB', 'resp': 'reach'}",30,300,Right,62.67266736083788,78.40687535999727,3.1336333680418935,1.2316123181094898,Right,Correct,0.0,0.0,-45,45,2004,859,-0.87
"{'cat': 'RB', 'resp': 'reach'}",30,301,Left,47.58357336401093,69.13708780334728,2.3791786682005465,1.0860028356679416,Left,Correct,0.0,0.0,-45,45,2003,1442,-2.45
"{'cat': 'RB', 'resp': 'reach'}",30,302,Left,46.77550988170345,54.13093534834848,2.3387754940851724,0.8502867441115781,Left,Correct,0.0,0.0,-45,45,2005,1265,-2.45
"{'cat': 'RB', 'resp': 'reach'}",30,303,Right,58.195823400904224,52.1251470885794,2.9097911700452115,0.8187798958038424,Right,Correct,0.0,0.0,-45,45,2003,966,-0.89
"{'cat': 'RB', 'resp': 'reach'}",30,304,Right,55.95145412244412,32.903447603818506,2.797572706122206,0.5168461463496645,Right,Correct,0.0,0.0,-45,45,2004,1064,-0.88
"{'cat': 'RB', 'resp': 'reach'}",30,305,Right,64.14021987800264,35.308049010033095,3.2070109939001323,0.5546175369125417,Right,Correct,0.0,0.0,-45,45,2007,959,-0.82
"{'cat': 'RB', 'resp': 'reach'}",30,306,Right,54.20922301697034,41.61941292730707,2.710461150848517,0.6537562094957396,Right,Correct,0.0,0.0,-45,45,2007,1500,-0.85
"{'cat': 'RB', 'resp': 'reach'}",30,307,Right,55.9094070262792,13.587197478028578,2.79547035131396,0.21342719889924172,Right,Correct,0.0,0.0,-45,45,2002,858,-0.82
"{'cat': 'RB', 'resp': 'reach'}",30,308,Right,59.51023324396255,19.474194570623716,2.975511662198128,0.30589993298824847,Right,Correct,0.0,0.0,-45,45,2011,1082,-0.82
"{'cat': 'RB', 'resp': 'reach'}",30,309,Left,35.38593239348422,56.3723240643565,1.7692966196742108,0.8854943957318274,Left,Correct,0.0,0.0,-45,45,2002,1135,-2.32
"{'cat': 'RB', 'resp': 'reach'}",30,310,Right,64.06653625908783,39.79798708375296,3.203326812954391,0.6251453192498989,Right,Correct,0.0,0.0,-45,45,2002,1127,-0.87
"{'cat': 'RB', 'resp': 'reach'}",30,311,Right,54.57272969044995,58.385418679849,2.728636484522497,0.9171160120068895,Right,Correct,0.0,0.0,-45,45,2008,1271,-0.88
"{'cat': 'RB', 'resp': 'reach'}",30,312,Left,39.54700594591196,75.35190837300135,1.977350297295598,1.1836250088929612,Left,Correct,0.0,0.0,-45,45,2003,897,-2.58
"{'cat': 'RB', 'resp': 'reach'}",30,313,Right,55.40295735914708,60.931986610269234,2.770147867957354,0.9571174075172675,Right,Correct,0.0,0.0,-45,45,2002,1270,-0.79
"{'cat': 'RB', 'resp': 'reach'}",30,314,Right,65.40999732998368,65.65263967558909,3.2704998664991844,1.0312692524680422,Right,Correct,0.0,0.0,-45,45,2008,1060,-0.81
"{'cat': 'RB', 'resp': 'reach'}",30,315,Right,59.29456559695058,81.06547011186288,2.9647282798475287,1.273373426816157,Right,Correct,0.0,0.0,-45,45,2012,1273,-0.83
"{'cat': 'RB', 'resp': 'reach'}",30,316,Left,48.275564951989296,40.403906423919985,2.4137782475994647,0.6346630779885823,Right,Incorrect,0.0,0.0,-45,45,2006,1109,-0.82
"{'cat': 'RB', 'resp': 'reach'}",30,317,Left,33.12279234313208,70.56067284408421,1.6561396171566043,1.1083644571966391,Left,Correct,0.0,0.0,-45,45,2009,938,-2.49
"{'cat': 'RB', 'resp': 'reach'}",30,318,Right,67.67322012697139,68.27363422683291,3.3836610063485693,1.0724397386044746,Right,Correct,0.0,0.0,-45,45,2012,911,-0.91
"{'cat': 'RB', 'resp': 'reach'}",30,319,Right,53.590823457815915,61.84814924541227,2.679541172890796,0.9715084565375615,Left,Incorrect,0.0,0.0,-45,45,2012,1629,-2.38
"{'cat': 'RB', 'resp': 'reach'}",30,320,Left,46.83540912648973,46.74033803374752,2.3417704563244865,0.734195512965624,Left,Correct,0.0,0.0,-45,45,2003,1352,-2.42
"{'cat': 'RB', 'resp': 'reach'}",30,321,Right,63.665068267280276,27.725230237775687,3.183253413364014,0.43550689817040844,Right,Correct,0.0,0.0,-45,45,2008,900,-0.85
"{'cat': 'RB', 'resp': 'reach'}",30,322,Left,45.26260164877968,32.645248934045995,2.263130082438984,0.5127903711290446,Left,Correct,0.0,0.0,-45,45,2005,1272,-2.47
"{'cat': 'RB', 'resp': 'reach'}",30,323,Right,66.4350797528406,68.35865708127352,3.3217539876420297,1.0737752744789637,Right,Correct,0.0,0.0,-45,45,2011,843,-0.85
"{'cat': 'RB', 'resp': 'reach'}",30,324,Left,47.342231790973116,58.11113121452439,2.367111589548656,0.9128075145767116,Left,Correct,0.0,0.0,-45,45,2001,2745,-2.47
"{'cat': 'RB', 'resp': 'reach'}",30,325,Right,59.652249150663295,23.42549601684674,2.9826124575331647,0.3679668309661133,Right,Correct,0.0,0.0,-45,45,2005,1054,-0.83
"{'cat': 'RB', 'resp': 'reach'}",30,326,Right,61.23912862279563,39.98033162213608,3.061956431139782,0.628009580560932,Right,Correct,0.0,0.0,-45,45,2009,822,-0.84
"{'cat': 'RB', 'resp': 'reach'}",30,327,Right,58.14448602854343,72.33388070942787,2.9072243014271715,1.1362179412118951,Right,Correct,0.0,0.0,-45,45,2002,1146,-0.78
"{'cat': 'RB', 'resp': 'reach'}",30,328,Right,64.90335615063762,33.436095225458836,3.245167807531881,0.5252129556251511,Right,Correct,0.0,0.0,-45,45,2003,875,-0.82
"{'cat': 'RB', 'resp': 'reach'}",30,329,Right,64.71207936239033,47.093541407448804,3.2356039681195163,0.7397436185858393,Right,Correct,0.0,0.0,-45,45,2006,1277,-0.87
"{'cat': 'RB', 'resp': 'reach'}",30,330,Left,44.10064532380553,33.705656419893295,2.2050322661902766,0.5294472129657921,Left,Correct,0.0,0.0,-45,45,2004,974,-2.46
"{'cat': 'RB', 'resp': 'reach'}",30,331,Right,60.73478553475934,89.81566913882581,3.036739276737967,1.4108212317189333,Right,Correct,0.0,0.0,-45,45,2010,969,-0.84
"{'cat': 'RB', 'resp': 'reach'}",30,332,Left,42.50068198963334,12.68633719661755,2.125034099481667,0.19927651868928317,Left,Correct,0.0,0.0,-45,45,2008,1198,-2.35
"{'cat': 'RB', 'resp': 'reach'}",30,333,Left,34.29521810960363,36.213829483775086,1.7147609054801816,0.5688455033229063,Left,Correct,0.0,0.0,-45,45,2009,980,-2.41
"{'cat': 'RB', 'resp': 'reach'}",30,334,Left,45.39155790787926,33.75773105933409,2.269577895393963,0.5302651994893198,Left,Correct,0.0,0.0,-45,45,2004,1002,-2.49
"{'cat': 'RB', 'resp': 'reach'}",30,335,Right,53.80646942038838,50.73877562495703,2.6903234710194193,0.7970028237775294,Right,Correct,0.0,0.0,-45,45,2007,1633,-0.85
"{'cat': 'RB', 'resp': 'reach'}",30,336,Left,49.16924533111815,51.22074866486538,2.458462266555907,0.8045736385845513,Left,Correct,0.0,0.0,-45,45,2006,1354,-2.4
"{'cat': 'RB', 'resp': 'reach'}",30,337,Left,44.30868324884403,14.906413881112037,2.2154341624422016,0.23414940170135246,Left,Correct,0.0,0.0,-45,45,2008,1153,-2.49
"{'cat': 'RB', 'resp': 'reach'}",30,338,Left,39.33574872846284,48.560579150691964,1.9667874364231421,0.7627877935693979,Left,Correct,0.0,0.0,-45,45,2003,1061,-2.46
"{'cat': 'RB', 'resp': 'reach'}",30,339,Left,40.16663664397145,27.875981657543775,2.008331832198573,0.4378748959347168,Left,Correct,0.0,0.0,-45,45,2003,935,-2.54
"{'cat': 'RB', 'resp': 'reach'}",30,340,Left,37.67251943492564,25.350063498965202,1.883625971746282,0.39819786628191917,Left,Correct,0.0,0.0,-45,45,2010,1053,-2.43
"{'cat': 'RB', 'resp': 'reach'}",30,341,Right,63.13188076703507,40.79387099211831,3.1565940383517535,0.6407886271016433,Right,Correct,0.0,0.0,-45,45,2004,1156,-0.84
"{'cat': 'RB', 'resp': 'reach'}",30,342,Right,65.45156911997476,31.0028120766136,3.272578455998738,0.48699103330257104,Right,Correct,0.0,0.0,-45,45,2006,1040,-0.84
"{'cat': 'RB', 'resp': 'reach'}",30,343,Left,36.939185726295435,84.56151575636875,1.8469592863147717,1.328289183383128,Left,Correct,0.0,0.0,-45,45,2002,1028,-2.37
"{'cat': 'RB', 'resp': 'reach'}",30,344,Left,33.009871713642674,43.19261618432383,1.6504935856821337,0.6784680284699768,Left,Correct,0.0,0.0,-45,45,2007,938,-2.39
"{'cat': 'RB', 'resp': 'reach'}",30,345,Right,54.69313599175616,77.03100090520694,2.734656799587808,1.2100001327123342,Left,Incorrect,0.0,0.0,-45,45,2005,4618,-2.44
"{'cat': 'RB', 'resp': 'reach'}",30,346,Right,62.48849620743299,34.56447942386678,3.1244248103716497,0.5429375731658772,Right,Correct,0.0,0.0,-45,45,2002,1241,-0.86
"{'cat': 'RB', 'resp': 'reach'}",30,347,Right,57.49672479912888,71.66350163887876,2.8748362399564438,1.1256876513961078,Right,Correct,0.0,0.0,-45,45,2001,1762,-0.86
"{'cat': 'RB', 'resp': 'reach'}",30,348,Left,39.7950776921938,45.62049455596532,1.9897538846096898,0.7166050527507691,Left,Correct,0.0,0.0,-45,45,2012,829,-2.43
"{'cat': 'RB', 'resp': 'reach'}",30,349,Left,37.405120919013484,46.15166688855263,1.8702560459506743,0.7249486882400011,Left,Correct,0.0,0.0,-45,45,2002,1176,-2.58
"{'cat': 'RB', 'resp': 'reach'}",30,350,Right,65.06255992317723,50.54335095725971,3.2531279961588613,0.7939331002756888,Right,Correct,0.0,0.0,-45,45,2003,837,-0.84
"{'cat': 'RB', 'resp': 'reach'}",30,351,Right,53.510284762885824,29.65157567281306,2.6755142381442916,0.46576586150535665,Right,Correct,0.0,0.0,-45,45,2007,1127,-0.78
"{'cat': 'RB', 'resp': 'reach'}",30,352,Right,52.44038214858678,45.06341939095593,2.6220191074293386,0.7078545365213149,Right,Correct,0.0,0.0,-45,45,2003,1056,-0.84
"{'cat': 'RB', 'resp': 'reach'}",30,353,Left,33.74379455453704,27.099898899681566,1.687189727726852,0.42568421648132865,Left,Correct,0.0,0.0,-45,45,2007,976,-2.38
"{'cat': 'RB', 'resp': 'reach'}",30,354,Right,61.45522238326074,67.3123227719971,3.072761119163037,1.0573394935828553,Right,Correct,0.0,0.0,-45,45,2005,1023,-0.86
"{'cat': 'RB', 'resp': 'reach'}",30,355,Left,44.65177632327275,44.378019190094264,2.2325888161636374,0.6970882953423351,Left,Correct,0.0,0.0,-45,45,2012,1282,-2.39
"{'cat': 'RB', 'resp': 'reach'}",30,356,Right,58.70084361427401,80.525076291548,2.9350421807137,1.264884940536424,Right,Correct,0.0,0.0,-45,45,2004,1015,-0.82
"{'cat': 'RB', 'resp': 'reach'}",30,357,Left,35.01126612620287,76.5190736763837,1.7505633063101436,1.2019587986061158,Left,Correct,0.0,0.0,-45,45,2009,1115,-2.34
"{'cat': 'RB', 'resp': 'reach'}",30,358,Left,33.974386267566544,41.45881831645319,1.6987193133783274,0.6512335952474165,Left,Correct,0.0,0.0,-45,45,2006,1148,-2.46
"{'cat': 'RB', 'resp': 'reach'}",30,359,Left,38.20585001001356,48.92222572242165,1.9102925005006781,0.7684685246341072,Left,Correct,0.0,0.0,-45,45,2009,1124,-2.48
"{'cat': 'RB', 'resp': 'reach'}",30,360,Right,68.24508376450365,32.41303003004535,3.4122541882251824,0.5091426851148791,Right,Correct,0.0,0.0,-45,45,2004,1009,-0.87
"{'cat': 'RB', 'resp': 'reach'}",30,361,Left,40.31524376683846,84.91409524896446,2.0157621883419226,1.3338274891018536,Left,Correct,0.0,0.0,-45,45,2003,1142,-2.37
"{'cat': 'RB', 'resp': 'reach'}",30,362,Left,39.63390547219574,50.48790969189681,1.9816952736097873,0.7930622309158396,Left,Correct,0.0,0.0,-45,45,2009,1040,-2.49
"{'cat': 'RB', 'resp': 'reach'}",30,363,Left,42.0501065747082,62.7487605721697,2.10250532873541,0.9856552261769661,Left,Correct,0.0,0.0,-45,45,2007,1346,-2.48
"{'cat': 'RB', 'resp': 'reach'}",30,364,Right,64.42243367867438,81.17075986618083,3.221121683933719,1.2750273144094746,Right,Correct,0.0,0.0,-45,45,2006,864,-0.82
"{'cat': 'RB', 'resp': 'reach'}",30,365,Right,58.72615405533685,11.00049338912126,2.9363077027668423,0.1727953460856322,Right,Correct,0.0,0.0,-45,45,2009,1704,-0.88
"{'cat': 'RB', 'resp': 'reach'}",30,366,Right,64.38500291343205,48.25924301234462,3.2192501456716025,0.7580544165769322,Right,Correct,0.0,0.0,-45,45,2009,1087,-0.86
"{'cat': 'RB', 'resp': 'reach'}",30,367,Left,42.52132113882168,82.36849259357186,2.126066056941084,1.2938412560961532,Left,Correct,0.0,0.0,-45,45,2004,1126,-2.45
"{'cat': 'RB', 'resp': 'reach'}",30,368,Left,42.59469051157082,23.904514726363427,2.129734525578541,0.3754912392598619,Left,Correct,0.0,0.0,-45,45,2005,1321,-2.46
"{'cat': 'RB', 'resp': 'reach'}",30,369,Left,31.998278060578045,42.130871893226086,1.5999139030289025,0.6617901881454589,Left,Correct,0.0,0.0,-45,45,2007,807,-2.45
"{'cat': 'RB', 'resp': 'reach'}",30,370,Left,38.608978396831425,40.6050335095115,1.930448919841571,0.6378223748612435,Left,Correct,0.0,0.0,-45,45,2006,945,-2.49
"{'cat': 'RB', 'resp': 'reach'}",30,371,Right,56.380344331297415,14.52810292814226,2.819017216564871,0.22820690714824043,Right,Correct,0.0,0.0,-45,45,2003,1022,-0.79
"{'cat': 'RB', 'resp': 'reach'}",30,372,Right,60.00874662083772,23.14805114930217,3.000437331041886,0.3636087371778423,Right,Correct,0.0,0.0,-45,45,2012,1214,-0.81
"{'cat': 'RB', 'resp': 'reach'}",30,373,Right,54.11841416905776,42.610417458456396,2.705920708452888,0.6693228722694045,Right,Correct,0.0,0.0,-45,45,2001,949,-0.87
"{'cat': 'RB', 'resp': 'reach'}",30,374,Right,55.26359292537944,62.38652089056761,2.763179646268972,0.9799651785641667,Right,Correct,0.0,0.0,-45,45,2003,1107,-0.85
"{'cat': 'RB', 'resp': 'reach'}",30,375,Left,40.32088911536733,71.80520467591633,2.0160444557683666,1.127913517496851,Left,Correct,0.0,0.0,-45,45,2002,1121,-2.38
"{'cat': 'RB', 'resp': 'reach'}",30,376,Right,58.11326900689909,43.41635573444195,2.9056634503449543,0.6819825211048196,Right,Correct,0.0,0.0,-45,45,2003,800,-0.82
"{'cat': 'RB', 'resp': 'reach'}",30,377,Left,41.523182226876045,67.19138544538944,2.0761591113438023,1.055439814498778,Left,Correct,0.0,0.0,-45,45,2009,1145,-2.39
"{'cat': 'RB', 'resp': 'reach'}",30,378,Left,42.07975440956669,66.16004907259955,2.103987720478335,1.0392396206380947,Left,Correct,0.0,0.0,-45,45,2004,1543,-2.51
"{'cat': 'RB', 'resp': 'reach'}",30,379,Right,66.23866843107656,76.74965424954661,3.311933421553828,1.2055807497796613,Right,Correct,0.0,0.0,-45,45,2004,990,-0.82
"{'cat': 'RB', 'resp': 'reach'}",30,380,Left,41.78641834744624,31.126165744987127,2.0893209173723117,0.4889286681943491,Left,Correct,0.0,0.0,-45,45,2006,1176,-2.43
"{'cat': 'RB', 'resp': 'reach'}",30,381,Left,36.93264503408388,64.60787578557417,1.8466322517041942,1.0148581396600085,Left,Correct,0.0,0.0,-45,45,2006,965,-2.45
"{'cat': 'RB', 'resp': 'reach'}",30,382,Right,51.51823022723583,47.26102839784862,2.5759115113617916,0.7423744980788991,Right,Correct,0.0,0.0,-45,45,2008,1091,-0.79
"{'cat': 'RB', 'resp': 'reach'}",30,383,Left,34.748532969020445,41.797608235897634,1.7374266484510223,0.6565552948576011,Left,Correct,0.0,0.0,-45,45,2007,1071,-2.43
"{'cat': 'RB', 'resp': 'reach'}",30,384,Right,63.03797783028551,26.864285689112133,3.151898891514276,0.4219832128242605,Right,Correct,0.0,0.0,-45,45,2008,1031,-0.76
"{'cat': 'RB', 'resp': 'reach'}",30,385,Right,55.17832743537631,78.24598001953156,2.7589163717688154,1.2290849800114703,Right,Correct,0.0,0.0,-45,45,2005,1577,-0.85
"{'cat': 'RB', 'resp': 'reach'}",30,386,Left,35.71526396613638,20.87234300674734,1.7857631983068192,0.32786199726601867,Left,Correct,0.0,0.0,-45,45,2008,1445,-2.39
"{'cat': 'RB', 'resp': 'reach'}",30,387,Left,42.205028332486144,15.776084085588181,2.110251416624307,0.2478101493284934,Left,Correct,0.0,0.0,-45,45,2008,1306,-2.32
"{'cat': 'RB', 'resp': 'reach'}",30,388,Left,40.8236750054844,66.18557421062087,2.04118375027422,1.039640568568543,Left,Correct,0.0,0.0,-45,45,2006,970,-2.45
"{'cat': 'RB', 'resp': 'reach'}",30,389,Right,55.04632939912342,64.93250957348573,2.752316469956171,1.0199574752760585,Right,Correct,0.0,0.0,-45,45,2005,1424,-0.86
"{'cat': 'RB', 'resp': 'reach'}",30,390,Left,38.844333987993764,55.54319209414969,1.942216699399688,0.8724704211995367,Left,Correct,0.0,0.0,-45,45,2009,4730,-2.5
"{'cat': 'RB', 'resp': 'reach'}",30,391,Left,43.24280548404645,73.40967907006399,2.1621402742023226,1.1531165423444871,Left,Correct,0.0,0.0,-45,45,2008,1290,-2.46
"{'cat': 'RB', 'resp': 'reach'}",30,392,Right,63.58603422766959,48.86095344427906,3.17930171138348,0.7675060619397,Right,Correct,0.0,0.0,-45,45,2002,783,-0.87
"{'cat': 'RB', 'resp': 'reach'}",30,393,Right,59.58505271686555,40.094127033998205,2.9792526358432774,0.6297970747105235,Right,Correct,0.0,0.0,-45,45,2005,1068,-0.86
"{'cat': 'RB', 'resp': 'reach'}",30,394,Left,33.97285281158708,22.627012797145543,1.698642640579354,0.35542428588097336,Left,Correct,0.0,0.0,-45,45,2004,1088,-2.48
"{'cat': 'RB', 'resp': 'reach'}",30,395,Left,45.525723153208226,70.47862495479364,2.276286157660411,1.1070756519654499,Left,Correct,0.0,0.0,-45,45,2008,1182,-2.53
"{'cat': 'RB', 'resp': 'reach'}",30,396,Left,43.551365826356964,71.38905944772395,2.1775682913178485,1.1213767235382728,Left,Correct,0.0,0.0,-45,45,2013,1158,-2.47
"{'cat': 'RB', 'resp': 'reach'}",30,397,Left,32.78263557847393,40.46153225917659,1.6391317789236965,0.635568262492078,Left,Correct,0.0,0.0,-45,45,2003,992,-2.49
"{'cat': 'RB', 'resp': 'reach'}",30,398,Right,56.32791469452851,15.102464282482856,2.8163957347264255,0.23722895420475196,Right,Correct,0.0,0.0,-45,45,2001,864,-0.82
"{'cat': 'RB', 'resp': 'reach'}",30,399,Right,54.18662742431724,31.989825060011384,2.7093313712158618,0.5024949969907722,Right,Correct,0.0,0.0,-45,45,2007,5702,-0.8
