condition,subject,trial,cat,x,y,xt,yt,resp,fb,rotation,su,target_angle_left,target_angle_right,rt,mt,ep
"{'cat': 'II', 'resp': 'reach'}",52,0,Left,34.57986642702782,57.15482461715131,1.7289933213513908,0.897785885672278,Right,Incorrect,0.0,0.0,-45,45,2007,2249,-0.91
"{'cat': 'II', 'resp': 'reach'}",52,1,Right,48.479358437682535,30.332307964771093,2.423967921884127,0.47645877934274017,Right,Correct,0.0,0.0,-45,45,2003,3661,-0.95
"{'cat': 'II', 'resp': 'reach'}",52,2,Right,61.72851788815907,45.76455887290738,3.0864258944079537,0.718868009749517,Right,Correct,0.0,0.0,-45,45,2013,3269,-0.92
"{'cat': 'II', 'resp': 'reach'}",52,3,Right,77.6494811851085,57.10968965470972,3.8824740592554248,0.8970769073401453,Right,Correct,0.0,0.0,-45,45,2004,1730,-0.92
"{'cat': 'II', 'resp': 'reach'}",52,4,Right,42.42404817382923,16.276330132266445,2.1212024086914614,0.2556679958546522,Left,Incorrect,0.0,0.0,-45,45,2002,1597,-2.47
"{'cat': 'II', 'resp': 'reach'}",52,5,Left,57.039265684075175,77.39660672591194,2.8519632842037588,1.2157430555145163,Right,Incorrect,0.0,0.0,-45,45,2009,3508,-0.94
"{'cat': 'II', 'resp': 'reach'}",52,6,Right,44.42482599917571,35.92028176786661,2.2212412999587854,0.5642344665840257,Right,Correct,0.0,0.0,-45,45,2009,1121,-0.95
"{'cat': 'II', 'resp': 'reach'}",52,7,Left,43.805818640823475,72.34447299465917,2.1902909320411736,1.1363843244392322,Right,Incorrect,0.0,0.0,-45,45,2007,1716,-0.96
"{'cat': 'II', 'resp': 'reach'}",52,8,Left,29.99192548296396,43.46421807182401,1.499596274148198,0.6827343409423351,Right,Incorrect,0.0,0.0,-45,45,2013,4473,-0.95
"{'cat': 'II', 'resp': 'reach'}",52,9,Left,56.07689647678414,74.85284065698683,2.8038448238392073,1.1757856715415862,Right,Incorrect,0.0,0.0,-45,45,2012,1156,-0.9
"{'cat': 'II', 'resp': 'reach'}",52,10,Left,25.8408756350919,46.41182513031556,1.292043781754595,0.7290352443454676,Left,Correct,0.0,0.0,-45,45,2006,1382,-2.56
"{'cat': 'II', 'resp': 'reach'}",52,11,Right,42.137320021218166,26.704284725028018,2.1068660010609084,0.4194699235575908,Right,Correct,0.0,0.0,-45,45,2002,3657,-0.95
"{'cat': 'II', 'resp': 'reach'}",52,12,Right,81.8759500195139,62.16056722895736,4.093797500975694,0.9764159067473345,Left,Incorrect,0.0,0.0,-45,45,2012,2030,-2.61
"{'cat': 'II', 'resp': 'reach'}",52,13,Left,44.72047009528484,60.4554996726941,2.236023504764242,0.9496327682041797,Left,Correct,0.0,0.0,-45,45,2001,2556,-2.49
"{'cat': 'II', 'resp': 'reach'}",52,14,Right,57.37232444341315,25.8202450228194,2.8686162221706577,0.4055834603878893,Right,Correct,0.0,0.0,-45,45,2003,3946,-0.88
"{'cat': 'II', 'resp': 'reach'}",52,15,Left,38.07631475897322,54.70126937405584,1.9038157379486609,0.8592455300378509,Left,Correct,0.0,0.0,-45,45,2004,1837,-2.62
"{'cat': 'II', 'resp': 'reach'}",52,16,Left,20.343609683217576,46.355900101676745,1.017180484160879,0.7281567760498501,Left,Correct,0.0,0.0,-45,45,2006,1517,-2.54
"{'cat': 'II', 'resp': 'reach'}",52,17,Right,67.66451237001854,49.105471743299745,3.3832256185009273,0.7713469463990583,Right,Correct,0.0,0.0,-45,45,2004,3548,-0.83
"{'cat': 'II', 'resp': 'reach'}",52,18,Right,64.08600213599067,51.44391338713872,3.2043001067995336,0.8080791018447231,Right,Correct,0.0,0.0,-45,45,2003,1754,-0.86
"{'cat': 'II', 'resp': 'reach'}",52,19,Right,63.30707095430153,42.427597013653966,3.1653535477150765,0.6664511354378178,Right,Correct,0.0,0.0,-45,45,2008,1256,-0.9
"{'cat': 'II', 'resp': 'reach'}",52,20,Left,43.70808103138944,55.100849216658595,2.185404051569472,0.8655221155280677,Right,Incorrect,0.0,0.0,-45,45,2012,2883,-0.89
"{'cat': 'II', 'resp': 'reach'}",52,21,Left,27.6290134605362,38.57572161969199,1.3814506730268101,0.6059460182367467,Left,Correct,0.0,0.0,-45,45,2007,1126,-2.5
"{'cat': 'II', 'resp': 'reach'}",52,22,Left,10.537639865206362,31.400201460373427,0.526881993260318,0.4932332111457433,Left,Correct,0.0,0.0,-45,45,2003,2403,-2.5
"{'cat': 'II', 'resp': 'reach'}",52,23,Right,33.975970593020165,10.167137375766163,1.6987985296510084,0.15970502043872592,Right,Correct,0.0,0.0,-45,45,2001,2675,-0.83
"{'cat': 'II', 'resp': 'reach'}",52,24,Right,84.88472131111195,64.20933084991798,4.244236065555597,1.008597810450094,Right,Correct,0.0,0.0,-45,45,2006,3844,-0.81
"{'cat': 'II', 'resp': 'reach'}",52,25,Right,79.61775858004532,52.85546820704273,3.9808879290022663,0.8302517531064717,Right,Correct,0.0,0.0,-45,45,2010,1077,-0.83
"{'cat': 'II', 'resp': 'reach'}",52,26,Right,45.357857852299034,35.14604995835496,2.267892892614952,0.552072861759339,Right,Correct,0.0,0.0,-45,45,2001,1210,-0.83
"{'cat': 'II', 'resp': 'reach'}",52,27,Right,49.37521139156465,32.71692459270248,2.468760569578232,0.5139162497424269,Right,Correct,0.0,0.0,-45,45,2005,1032,-0.81
"{'cat': 'II', 'resp': 'reach'}",52,28,Left,41.60956075247273,62.209369522780975,2.0804780376236365,0.9771824913861074,Right,Incorrect,0.0,0.0,-45,45,2006,1834,-0.79
"{'cat': 'II', 'resp': 'reach'}",52,29,Left,30.869692767862638,52.34135829564522,1.5434846383931318,0.8221761335025509,Left,Correct,0.0,0.0,-45,45,2003,1553,-2.54
"{'cat': 'II', 'resp': 'reach'}",52,30,Left,59.03496770230402,83.81943148380829,2.9517483851152013,1.3166325508880257,Left,Correct,0.0,0.0,-45,45,2008,2650,-2.44
"{'cat': 'II', 'resp': 'reach'}",52,31,Right,61.033370475690326,28.17339607145103,3.051668523784516,0.4425466706237305,Right,Correct,0.0,0.0,-45,45,2007,1462,-0.77
"{'cat': 'II', 'resp': 'reach'}",52,32,Right,44.226150874582935,33.90191518221081,2.2113075437291467,0.5325300383952888,Right,Correct,0.0,0.0,-45,45,2003,1477,-0.76
"{'cat': 'II', 'resp': 'reach'}",52,33,Right,59.63591274629503,27.07449919711145,2.981795637314751,0.4252852388863404,Right,Correct,0.0,0.0,-45,45,2006,1619,-0.73
"{'cat': 'II', 'resp': 'reach'}",52,34,Left,59.25787138488374,73.8975421741595,2.962893569244187,1.160779878063407,Right,Incorrect,0.0,0.0,-45,45,2004,1419,-0.78
"{'cat': 'II', 'resp': 'reach'}",52,35,Left,20.45677620776815,43.3927058172495,1.0228388103884074,0.6816110290742705,Left,Correct,0.0,0.0,-45,45,2009,1047,-2.58
"{'cat': 'II', 'resp': 'reach'}",52,36,Left,27.165271345138883,55.50442240542477,1.358263567256944,0.871861428353136,Left,Correct,0.0,0.0,-45,45,2002,2118,-2.47
"{'cat': 'II', 'resp': 'reach'}",52,37,Left,17.946285148149656,44.161853212452364,0.8973142574074828,0.6936927681057558,Left,Correct,0.0,0.0,-45,45,2006,1054,-2.37
"{'cat': 'II', 'resp': 'reach'}",52,38,Right,88.6711074470999,66.97317567458859,4.433555372354995,1.0520121834343308,Right,Correct,0.0,0.0,-45,45,2006,3735,-0.73
"{'cat': 'II', 'resp': 'reach'}",52,39,Left,44.79980140616862,54.253140990519796,2.2399900703084312,0.8522063458499413,Right,Incorrect,0.0,0.0,-45,45,2002,5168,-0.69
"{'cat': 'II', 'resp': 'reach'}",52,40,Left,32.311617250485156,65.57711600279485,1.6155808625242576,1.0300829293899298,Left,Correct,0.0,0.0,-45,45,2007,2334,-2.42
"{'cat': 'II', 'resp': 'reach'}",52,41,Right,55.98700837339705,33.16197876542986,2.7993504186698526,0.5209071443398758,Right,Correct,0.0,0.0,-45,45,2011,1294,-0.77
"{'cat': 'II', 'resp': 'reach'}",52,42,Left,22.878272166097606,46.08299887441784,1.1439136083048802,0.7238700535962889,Left,Correct,0.0,0.0,-45,45,2005,1088,-2.55
"{'cat': 'II', 'resp': 'reach'}",52,43,Left,44.455553365700155,74.09482207515327,2.2227776682850076,1.1638787435017217,Left,Correct,0.0,0.0,-45,45,2006,3560,-2.51
"{'cat': 'II', 'resp': 'reach'}",52,44,Right,37.60629697678529,16.854413443046134,1.8803148488392645,0.2647485072661939,Right,Correct,0.0,0.0,-45,45,2001,1327,-0.77
"{'cat': 'II', 'resp': 'reach'}",52,45,Left,65.56363540200792,86.07746350553052,3.2781817701003955,1.3521016349430908,Right,Incorrect,0.0,0.0,-45,45,2012,1177,-0.79
"{'cat': 'II', 'resp': 'reach'}",52,46,Left,57.242774829452685,69.3701208797691,2.8621387414726343,1.0896633106725928,Left,Correct,0.0,0.0,-45,45,2008,2416,-2.46
"{'cat': 'II', 'resp': 'reach'}",52,47,Right,33.57375557225586,17.8656876232373,1.6786877786127932,0.280633564942462,Right,Correct,0.0,0.0,-45,45,2005,6283,-0.75
"{'cat': 'II', 'resp': 'reach'}",52,48,Left,62.34873884244237,73.41977078893497,3.117436942122118,1.153275062693823,Left,Correct,0.0,0.0,-45,45,2006,4247,-2.5
"{'cat': 'II', 'resp': 'reach'}",52,49,Right,33.26678327404451,18.724643645858915,1.6633391637022257,0.29412601459458587,Right,Correct,0.0,0.0,-45,45,2008,2108,-0.74
"{'cat': 'II', 'resp': 'reach'}",52,50,Right,45.58206554841573,21.36437889373914,2.2791032774207864,0.33559087890539857,Right,Correct,0.0,0.0,-45,45,2013,3609,-0.76
"{'cat': 'II', 'resp': 'reach'}",52,51,Left,43.64154317706622,75.80888022512337,2.182077158853311,1.1908031059605806,Left,Correct,0.0,0.0,-45,45,2003,1998,-2.6
"{'cat': 'II', 'resp': 'reach'}",52,52,Left,49.97069702513005,65.12974407881622,2.4985348512565024,1.0230556276409617,Left,Correct,0.0,0.0,-45,45,2003,3654,-2.48
"{'cat': 'II', 'resp': 'reach'}",52,53,Left,36.01897074847995,50.789118769747205,1.8009485374239975,0.7977936120466864,Right,Incorrect,0.0,0.0,-45,45,2004,1751,-0.73
"{'cat': 'II', 'resp': 'reach'}",52,54,Right,45.86204163536869,22.19597963649027,2.2931020817684344,0.3486536328261324,Right,Correct,0.0,0.0,-45,45,2005,3921,-0.73
"{'cat': 'II', 'resp': 'reach'}",52,55,Right,84.90671696549055,69.28406161983264,4.245335848274527,1.0883114949786439,Right,Correct,0.0,0.0,-45,45,2009,8743,-0.77
"{'cat': 'II', 'resp': 'reach'}",52,56,Left,15.052095042568705,30.902235526166724,0.7526047521284354,0.4854111805425345,Left,Correct,0.0,0.0,-45,45,2004,2282,-2.41
"{'cat': 'II', 'resp': 'reach'}",52,57,Left,60.91759469006112,72.16728836734244,3.0458797345030564,1.1336011148216956,Left,Correct,0.0,0.0,-45,45,2012,3262,-2.45
"{'cat': 'II', 'resp': 'reach'}",52,58,Left,42.45286534202318,64.79587305298699,2.122643267101159,1.017811193831004,Right,Incorrect,0.0,0.0,-45,45,2004,3303,-0.74
"{'cat': 'II', 'resp': 'reach'}",52,59,Left,42.02646724744767,72.3924018048526,2.1013233623723835,1.1371371884292272,Left,Correct,0.0,0.0,-45,45,2003,2275,-2.38
"{'cat': 'II', 'resp': 'reach'}",52,60,Right,51.25133859014435,43.5610309022625,2.5625669295072173,0.6842550733267292,Right,Correct,0.0,0.0,-45,45,2012,4304,-0.69
"{'cat': 'II', 'resp': 'reach'}",52,61,Left,33.18979740102205,52.19309364815382,1.6594898700511025,0.8198471978658206,Right,Incorrect,0.0,0.0,-45,45,2004,4559,-0.69
"{'cat': 'II', 'resp': 'reach'}",52,62,Left,53.706298810341245,63.35258028735283,2.685314940517062,0.9951400040835261,Left,Correct,0.0,0.0,-45,45,2003,4272,-2.5
"{'cat': 'II', 'resp': 'reach'}",52,63,Left,25.260397774889157,35.520345722421645,1.263019888744458,0.5579522858726473,Left,Correct,0.0,0.0,-45,45,2006,1244,-2.43
"{'cat': 'II', 'resp': 'reach'}",52,64,Right,53.90212042514507,45.504621964582256,2.6951060212572537,0.7147849303415618,Left,Incorrect,0.0,0.0,-45,45,2007,1878,-2.47
"{'cat': 'II', 'resp': 'reach'}",52,65,Right,64.28907781812921,54.32224990837578,3.214453890906461,0.8532919061931109,Left,Incorrect,0.0,0.0,-45,45,2006,2715,-2.33
"{'cat': 'II', 'resp': 'reach'}",52,66,Left,54.80978119121868,67.47698465710785,2.740489059560934,1.059925996425806,Right,Incorrect,0.0,0.0,-45,45,2001,2714,-0.7
"{'cat': 'II', 'resp': 'reach'}",52,67,Left,35.512467032511445,63.342726036518215,1.7756233516255722,0.9949852138733827,Right,Incorrect,0.0,0.0,-45,45,2009,10115,-0.74
"{'cat': 'II', 'resp': 'reach'}",52,68,Left,27.81946730385249,52.04475225367976,1.3909733651926246,0.8175170566903058,Right,Incorrect,0.0,0.0,-45,45,2003,2203,-0.71
"{'cat': 'II', 'resp': 'reach'}",52,69,Right,70.80953511594225,40.12999891700541,3.540476755797113,0.6303605489311527,Right,Correct,0.0,0.0,-45,45,2001,8913,-0.72
"{'cat': 'II', 'resp': 'reach'}",52,70,Left,33.08759127173473,49.424775495988754,1.6543795635867367,0.7763625580176156,Right,Incorrect,0.0,0.0,-45,45,2008,2634,-0.72
"{'cat': 'II', 'resp': 'reach'}",52,71,Left,18.071709747635996,43.27706008347411,0.9035854873817998,0.6797944701360318,Left,Correct,0.0,0.0,-45,45,2012,1256,-2.51
"{'cat': 'II', 'resp': 'reach'}",52,72,Right,42.008791122162435,32.033374723782586,2.100439556108122,0.5031790735096217,Right,Correct,0.0,0.0,-45,45,2001,4686,-0.85
"{'cat': 'II', 'resp': 'reach'}",52,73,Right,65.76055502115715,53.514859827053044,3.2880277510578573,0.840609452452787,Right,Correct,0.0,0.0,-45,45,2008,4317,-0.76
"{'cat': 'II', 'resp': 'reach'}",52,74,Left,47.67348961457792,74.39466748468287,2.383674480728896,1.1685887041806757,Left,Correct,0.0,0.0,-45,45,2004,2074,-2.59
"{'cat': 'II', 'resp': 'reach'}",52,75,Left,43.83872223578916,75.65514802155374,2.1919361117894582,1.188388286153808,Left,Correct,0.0,0.0,-45,45,2009,3620,-2.34
"{'cat': 'II', 'resp': 'reach'}",52,76,Left,39.79529822109125,69.12059395732241,1.9897649110545625,1.0857437509404357,Left,Correct,0.0,0.0,-45,45,2003,4122,-2.37
"{'cat': 'II', 'resp': 'reach'}",52,77,Left,29.111159909007455,52.190163279653326,1.4555579954503728,0.8198011677450534,Right,Incorrect,0.0,0.0,-45,45,2007,4115,-0.87
"{'cat': 'II', 'resp': 'reach'}",52,78,Left,64.13485505684115,80.01144331400135,3.2067427528420573,1.2568168125919141,Left,Correct,0.0,0.0,-45,45,2001,27455,-2.44
"{'cat': 'II', 'resp': 'reach'}",52,79,Left,20.477137422279313,46.976442877962945,1.0238568711139657,0.7379042391859447,Left,Correct,0.0,0.0,-45,45,2012,1450,-2.46
"{'cat': 'II', 'resp': 'reach'}",52,80,Left,56.96221455380183,80.97212715408446,2.848110727690091,1.2719071990640516,Left,Correct,0.0,0.0,-45,45,2001,2903,-2.37
"{'cat': 'II', 'resp': 'reach'}",52,81,Right,45.6619514447647,19.407764931214366,2.283097572238235,0.3048564586525033,Right,Correct,0.0,0.0,-45,45,2001,3902,-0.84
"{'cat': 'II', 'resp': 'reach'}",52,82,Right,33.12019547210602,10.552595681559104,1.656009773605301,0.16575978534744729,Right,Correct,0.0,0.0,-45,45,2003,2078,-0.87
"{'cat': 'II', 'resp': 'reach'}",52,83,Left,35.185204003484934,46.029294256822475,1.7592602001742466,0.7230264634357817,Right,Incorrect,0.0,0.0,-45,45,2009,2730,-0.84
"{'cat': 'II', 'resp': 'reach'}",52,84,Right,66.92463112510771,47.69520999564127,3.3462315562553853,0.7491946066686453,Right,Correct,0.0,0.0,-45,45,2002,1924,-0.82
"{'cat': 'II', 'resp': 'reach'}",52,85,Left,42.972693310365294,54.905104824848834,2.1486346655182644,0.8624473698116131,Right,Incorrect,0.0,0.0,-45,45,2005,3135,-0.81
"{'cat': 'II', 'resp': 'reach'}",52,86,Right,49.16618997819117,27.207622863095985,2.4583094989095584,0.42737634054172013,Right,Correct,0.0,0.0,-45,45,2001,1381,-0.84
"{'cat': 'II', 'resp': 'reach'}",52,87,Right,33.072641253736705,20.43993116055667,1.6536320626868355,0.3210696878694297,Right,Correct,0.0,0.0,-45,45,2008,2476,-0.75
"{'cat': 'II', 'resp': 'reach'}",52,88,Left,28.030831487223445,39.07686546288894,1.4015415743611723,0.613817967317643,Left,Correct,0.0,0.0,-45,45,2008,6224,-2.35
"{'cat': 'II', 'resp': 'reach'}",52,89,Left,24.647707918979137,48.42889021400401,1.2323853959489568,0.7607192285891082,Left,Correct,0.0,0.0,-45,45,2003,1552,-2.47
"{'cat': 'II', 'resp': 'reach'}",52,90,Right,58.18922596548144,27.93729788592224,2.9094612982740724,0.4388380489978149,Right,Correct,0.0,0.0,-45,45,2012,1612,-0.87
"{'cat': 'II', 'resp': 'reach'}",52,91,Left,55.20750087322429,80.668602446229,2.7603750436612144,1.2671394441021433,Left,Correct,0.0,0.0,-45,45,2001,1405,-2.36
"{'cat': 'II', 'resp': 'reach'}",52,92,Left,42.01528652892281,65.17715279808932,2.1007643264461406,1.0238003220618843,Left,Correct,0.0,0.0,-45,45,2001,2632,-2.3
"{'cat': 'II', 'resp': 'reach'}",52,93,Left,19.677023040444595,40.429602721937954,0.9838511520222297,0.6350667144939709,Left,Correct,0.0,0.0,-45,45,2007,950,-2.22
"{'cat': 'II', 'resp': 'reach'}",52,94,Left,49.63514286150961,68.4401708552769,2.4817571430754803,1.0750556898468409,Left,Correct,0.0,0.0,-45,45,2009,2598,-2.35
"{'cat': 'II', 'resp': 'reach'}",52,95,Left,49.75381418160609,67.16287983012774,2.4876907090803044,1.0549920493413167,Left,Correct,0.0,0.0,-45,45,2003,3794,-2.36
"{'cat': 'II', 'resp': 'reach'}",52,96,Left,22.231079424202907,51.96471116230735,1.1115539712101452,0.8162597741671014,Left,Correct,0.0,0.0,-45,45,2008,1242,-2.29
"{'cat': 'II', 'resp': 'reach'}",52,97,Left,16.15925306090385,31.39081950282884,0.8079626530451925,0.4930858397012514,Left,Correct,0.0,0.0,-45,45,2009,908,-2.4
"{'cat': 'II', 'resp': 'reach'}",52,98,Left,43.91369109990284,54.79532602647521,2.1956845549951423,0.8607229684791606,Left,Correct,0.0,0.0,-45,45,2003,3518,-2.41
"{'cat': 'II', 'resp': 'reach'}",52,99,Right,56.769294166979726,31.181890415094124,2.8384647083489862,0.4898039892655085,Right,Correct,0.0,0.0,-45,45,2006,2873,-0.76
"{'cat': 'II', 'resp': 'reach'}",52,100,Left,14.344213930424058,33.44575498934188,0.717210696521203,0.525364690841403,Left,Correct,0.0,0.0,-45,45,2008,882,-2.56
"{'cat': 'II', 'resp': 'reach'}",52,101,Left,51.55992236367466,61.93683349360011,2.577996118183733,0.9729015054505417,Left,Correct,0.0,0.0,-45,45,2007,6850,-2.31
"{'cat': 'II', 'resp': 'reach'}",52,102,Right,45.09317879458956,32.45392652147866,2.2546589397294783,0.5097850857001014,Right,Correct,0.0,0.0,-45,45,2009,6527,-0.77
"{'cat': 'II', 'resp': 'reach'}",52,103,Right,47.95915387330378,33.728650652841175,2.3979576936651887,0.5298084055323121,Right,Correct,0.0,0.0,-45,45,2006,8015,-0.81
"{'cat': 'II', 'resp': 'reach'}",52,104,Left,15.571036764328166,39.5294303110021,0.7785518382164084,0.6209268393281696,Left,Correct,0.0,0.0,-45,45,2012,959,-2.29
"{'cat': 'II', 'resp': 'reach'}",52,105,Right,52.364528368097304,31.99033107748854,2.6182264184048654,0.5025029454947162,Right,Correct,0.0,0.0,-45,45,2007,3207,-0.79
"{'cat': 'II', 'resp': 'reach'}",52,106,Right,33.05516208596421,16.35446505184952,1.6527581042982107,0.2568953363014073,Right,Correct,0.0,0.0,-45,45,2004,1275,-0.82
"{'cat': 'II', 'resp': 'reach'}",52,107,Left,27.22350703030377,54.91632766797924,1.3611753515151888,0.8626236578192674,Left,Correct,0.0,0.0,-45,45,2006,4173,-2.39
"{'cat': 'II', 'resp': 'reach'}",52,108,Left,46.79073257358841,73.88025772699237,2.3395366286794204,1.1605083746021987,Left,Correct,0.0,0.0,-45,45,2002,2250,-2.36
"{'cat': 'II', 'resp': 'reach'}",52,109,Left,17.25503887065737,41.98311692858343,0.8627519435328685,0.6594692585881949,Left,Correct,0.0,0.0,-45,45,2006,1703,-2.24
"{'cat': 'II', 'resp': 'reach'}",52,110,Left,51.12922014020106,62.73381691507421,2.556461007010053,0.9854204917602212,Left,Correct,0.0,0.0,-45,45,2006,1288,-2.39
"{'cat': 'II', 'resp': 'reach'}",52,111,Left,22.17390893617831,45.32403240868279,1.1086954468089154,0.7119482362309177,Left,Correct,0.0,0.0,-45,45,2004,4009,-2.44
"{'cat': 'II', 'resp': 'reach'}",52,112,Right,60.89920245794469,50.92976404038441,3.0449601228972347,0.8000028627916664,Right,Correct,0.0,0.0,-45,45,2008,5856,-0.82
"{'cat': 'II', 'resp': 'reach'}",52,113,Right,75.51547175894049,48.827252382805796,3.775773587947025,0.7669766869039871,Right,Correct,0.0,0.0,-45,45,2004,2476,-0.92
"{'cat': 'II', 'resp': 'reach'}",52,114,Left,45.42697175174079,72.45544821007613,2.271348587587039,1.1381275190466544,Left,Correct,0.0,0.0,-45,45,2006,1479,-2.38
"{'cat': 'II', 'resp': 'reach'}",52,115,Right,39.83607636637721,29.183171434175406,1.9918038183188604,0.45840818493028485,Right,Correct,0.0,0.0,-45,45,2007,1314,-0.85
"{'cat': 'II', 'resp': 'reach'}",52,116,Right,53.71469825123046,33.89306132707486,2.685734912561523,0.5323909623640336,Right,Correct,0.0,0.0,-45,45,2004,1010,-0.88
"{'cat': 'II', 'resp': 'reach'}",52,117,Right,49.63237500300214,27.59656964910254,2.481618750150107,0.433485902369498,Right,Correct,0.0,0.0,-45,45,2007,910,-0.82
"{'cat': 'II', 'resp': 'reach'}",52,118,Left,36.61568164600288,58.85392270714579,1.830784082300144,0.9244752560585536,Left,Correct,0.0,0.0,-45,45,2012,2058,-2.43
"{'cat': 'II', 'resp': 'reach'}",52,119,Right,81.88881910707946,60.45049763220669,4.094440955353973,0.9495541963359386,Left,Incorrect,0.0,0.0,-45,45,2009,1899,-2.52
"{'cat': 'II', 'resp': 'reach'}",52,120,Right,71.44795062825646,61.95667947545906,3.5723975314128236,0.9732132454045984,Right,Correct,0.0,0.0,-45,45,2002,1455,-0.83
"{'cat': 'II', 'resp': 'reach'}",52,121,Right,64.34753171857957,44.27946061294131,3.217376585928979,0.695540140832675,Right,Correct,0.0,0.0,-45,45,2006,1649,-0.83
"{'cat': 'II', 'resp': 'reach'}",52,122,Left,50.100514569854795,70.32540806014873,2.5050257284927397,1.1046689266123384,Left,Correct,0.0,0.0,-45,45,2004,2881,-2.34
"{'cat': 'II', 'resp': 'reach'}",52,123,Right,43.479342574812314,35.38221992202278,2.1739671287406157,0.5557826108736259,Right,Correct,0.0,0.0,-45,45,2008,1348,-0.88
"{'cat': 'II', 'resp': 'reach'}",52,124,Right,52.55617861313845,29.840338066661587,2.627808930656922,0.4687309342542994,Right,Correct,0.0,0.0,-45,45,2013,1050,-0.85
"{'cat': 'II', 'resp': 'reach'}",52,125,Right,57.334134897002436,28.693179606015473,2.866706744850122,0.4507114112919534,Right,Correct,0.0,0.0,-45,45,2003,820,-0.9
"{'cat': 'II', 'resp': 'reach'}",52,126,Right,43.473457046142414,31.02795065275216,2.1736728523071207,0.48738590913316404,Right,Correct,0.0,0.0,-45,45,2003,1215,-0.87
"{'cat': 'II', 'resp': 'reach'}",52,127,Left,18.91760459753272,45.54570343988057,0.9458802298766359,0.7154302366465408,Left,Correct,0.0,0.0,-45,45,2001,5112,-2.66
"{'cat': 'II', 'resp': 'reach'}",52,128,Left,56.1220819342837,76.27971990443982,2.806104096714185,1.1981990383483763,Right,Incorrect,0.0,0.0,-45,45,2004,1981,-0.95
"{'cat': 'II', 'resp': 'reach'}",52,129,Right,67.52373966214577,57.475683922800485,3.3761869831072886,0.9028259318595949,Right,Correct,0.0,0.0,-45,45,2006,3336,-0.91
"{'cat': 'II', 'resp': 'reach'}",52,130,Left,61.122319658313735,75.92842141086774,3.0561159829156868,1.1926808545152603,Right,Incorrect,0.0,0.0,-45,45,2011,1079,-0.84
"{'cat': 'II', 'resp': 'reach'}",52,131,Left,19.49599077021297,32.89929630603622,0.9747995385106485,0.5167809379165861,Left,Correct,0.0,0.0,-45,45,2004,1555,-2.43
"{'cat': 'II', 'resp': 'reach'}",52,132,Right,36.38513095758468,13.256984956025164,1.819256547879234,0.20824023273299533,Right,Correct,0.0,0.0,-45,45,2003,1347,-0.89
"{'cat': 'II', 'resp': 'reach'}",52,133,Left,68.40352583367935,82.71130920118901,3.4201762916839673,1.2992262067762466,Left,Correct,0.0,0.0,-45,45,2003,1367,-2.37
"{'cat': 'II', 'resp': 'reach'}",52,134,Right,47.765401871098135,30.746546625706685,2.388270093554907,0.4829656250128809,Right,Correct,0.0,0.0,-45,45,2010,851,-0.75
"{'cat': 'II', 'resp': 'reach'}",52,135,Left,29.323539875180277,47.09292051347316,1.466176993759014,0.7397338656060767,Left,Correct,0.0,0.0,-45,45,2014,2669,-2.36
"{'cat': 'II', 'resp': 'reach'}",52,136,Left,37.43168211828602,52.677303764418724,1.8715841059143008,0.827453152586079,Right,Incorrect,0.0,0.0,-45,45,2005,9488,-0.75
"{'cat': 'II', 'resp': 'reach'}",52,137,Left,64.4146537306463,79.0143101630858,3.220732686532315,1.2411538816840784,Left,Correct,0.0,0.0,-45,45,2012,1505,-2.36
"{'cat': 'II', 'resp': 'reach'}",52,138,Right,81.01878240508287,51.4618536755457,4.050939120254144,0.8083609072360362,Right,Correct,0.0,0.0,-45,45,2001,3252,-0.75
"{'cat': 'II', 'resp': 'reach'}",52,139,Left,43.606078345478075,67.74124081349002,2.180303917273904,1.0640769224235866,Left,Correct,0.0,0.0,-45,45,2003,1646,-2.36
"{'cat': 'II', 'resp': 'reach'}",52,140,Left,52.21472996892112,72.13307136224915,2.610736498446056,1.1330636353625512,Left,Correct,0.0,0.0,-45,45,2005,2265,-2.47
"{'cat': 'II', 'resp': 'reach'}",52,141,Right,38.87419091378729,22.972479175218538,1.9437095456893645,0.3608508590580553,Right,Correct,0.0,0.0,-45,45,2004,1145,-0.72
"{'cat': 'II', 'resp': 'reach'}",52,142,Right,80.61197525677696,54.24947016494003,4.030598762838848,0.8521486846565712,Left,Incorrect,0.0,0.0,-45,45,2001,2288,-2.38
"{'cat': 'II', 'resp': 'reach'}",52,143,Left,53.6498573622746,79.85388699916757,2.68249286811373,1.2543419237858717,Right,Incorrect,0.0,0.0,-45,45,2003,2344,-0.78
"{'cat': 'II', 'resp': 'reach'}",52,144,Left,22.07157377530429,51.54038843758904,1.1035786887652146,0.8095945283934702,Left,Correct,0.0,0.0,-45,45,2006,1253,-2.38
"{'cat': 'II', 'resp': 'reach'}",52,145,Right,78.66351442648315,52.58404505775185,3.9331757213241576,0.8259882482473395,Right,Correct,0.0,0.0,-45,45,2008,2117,-0.8
"{'cat': 'II', 'resp': 'reach'}",52,146,Left,48.778735858451284,55.94868686063147,2.438936792922564,0.8788399180967781,Right,Incorrect,0.0,0.0,-45,45,2009,1693,-0.8
"{'cat': 'II', 'resp': 'reach'}",52,147,Right,56.53878573252378,26.80887326792091,2.826939286626189,0.4211127965476006,Right,Correct,0.0,0.0,-45,45,2002,979,-0.82
"{'cat': 'II', 'resp': 'reach'}",52,148,Left,17.695105610934846,40.32887257886066,0.8847552805467422,0.6334844491065376,Left,Correct,0.0,0.0,-45,45,2004,1070,-2.46
"{'cat': 'II', 'resp': 'reach'}",52,149,Right,67.38594852508159,37.97067754141892,3.369297426254079,0.5964420080797431,Right,Correct,0.0,0.0,-45,45,2006,2574,-0.9
"{'cat': 'II', 'resp': 'reach'}",52,150,Right,44.4065737800384,34.08527264050312,2.22032868900192,0.5354102106150489,Left,Incorrect,0.0,0.0,-45,45,2008,1576,-2.49
"{'cat': 'II', 'resp': 'reach'}",52,151,Right,33.63791926704634,13.882660075212396,1.6818959633523172,0.21806831452285794,Right,Correct,0.0,0.0,-45,45,2008,967,-0.93
"{'cat': 'II', 'resp': 'reach'}",52,152,Right,67.01251685491854,34.23688472127248,3.3506258427459272,0.5377917276107513,Left,Incorrect,0.0,0.0,-45,45,2009,6402,-2.33
"{'cat': 'II', 'resp': 'reach'}",52,153,Right,35.7694623752932,16.593881955705587,1.7884731187646599,0.2606560882329045,Right,Correct,0.0,0.0,-45,45,2007,848,-0.78
"{'cat': 'II', 'resp': 'reach'}",52,154,Left,56.67972845521244,66.06126695483452,2.8339864227606224,1.0376879547607116,Left,Correct,0.0,0.0,-45,45,2005,3917,-2.46
"{'cat': 'II', 'resp': 'reach'}",52,155,Left,35.9757253097397,51.62838926769265,1.7987862654869848,0.8109768422002868,Right,Incorrect,0.0,0.0,-45,45,2005,3494,-0.71
"{'cat': 'II', 'resp': 'reach'}",52,156,Right,69.08697269082437,42.38321973318793,3.4543486345412187,0.6657540587463258,Right,Correct,0.0,0.0,-45,45,2004,2752,-0.75
"{'cat': 'II', 'resp': 'reach'}",52,157,Left,41.32847429876844,58.68466909655691,2.066423714938422,0.9218166265604558,Left,Correct,0.0,0.0,-45,45,2002,1997,-2.42
"{'cat': 'II', 'resp': 'reach'}",52,158,Right,53.11659133061851,32.78345166693004,2.6558295665309255,0.5149612545807174,Right,Correct,0.0,0.0,-45,45,2003,1126,-0.75
"{'cat': 'II', 'resp': 'reach'}",52,159,Right,65.14078356150483,46.85208253695963,3.2570391780752415,0.735950791517475,Right,Correct,0.0,0.0,-45,45,2011,2211,-0.75
"{'cat': 'II', 'resp': 'reach'}",52,160,Left,64.1825999107427,81.13850636648502,3.2091299955371344,1.2745206776209899,Left,Correct,0.0,0.0,-45,45,2008,1136,-2.37
"{'cat': 'II', 'resp': 'reach'}",52,161,Right,49.587861293115125,19.46704291469958,2.4793930646557563,0.30578759503968717,Right,Correct,0.0,0.0,-45,45,2009,1122,-0.77
"{'cat': 'II', 'resp': 'reach'}",52,162,Right,50.8959627496463,39.98602543231851,2.544798137482315,0.6280990187221324,Right,Correct,0.0,0.0,-45,45,2007,1954,-0.81
"{'cat': 'II', 'resp': 'reach'}",52,163,Right,80.04571975497157,56.69398813171481,4.002285987748579,0.8905470830865109,Left,Incorrect,0.0,0.0,-45,45,2001,4283,-2.24
"{'cat': 'II', 'resp': 'reach'}",52,164,Right,47.29821925675459,28.003996180998115,2.3649109628377296,0.4398857433669015,Right,Correct,0.0,0.0,-45,45,2002,972,-0.8
"{'cat': 'II', 'resp': 'reach'}",52,165,Left,32.127989503809886,49.146483604810385,1.6063994751904942,0.7719911592132176,Right,Incorrect,0.0,0.0,-45,45,2004,2565,-0.86
"{'cat': 'II', 'resp': 'reach'}",52,166,Left,14.237430159276236,33.4820401361307,0.7118715079638119,0.525934656594334,Left,Correct,0.0,0.0,-45,45,2010,982,-2.29
"{'cat': 'II', 'resp': 'reach'}",52,167,Right,52.55978810258125,38.948513166966706,2.6279894051290626,0.6118018141679398,Right,Correct,0.0,0.0,-45,45,2007,2061,-0.83
"{'cat': 'II', 'resp': 'reach'}",52,168,Left,45.954895552002135,60.71587598850702,2.2977447776001068,0.953722749808813,Right,Incorrect,0.0,0.0,-45,45,2012,1646,-0.89
"{'cat': 'II', 'resp': 'reach'}",52,169,Left,56.67408729392373,81.25297847613139,2.8337043646961866,1.27631880131452,Left,Correct,0.0,0.0,-45,45,2005,1286,-2.35
"{'cat': 'II', 'resp': 'reach'}",52,170,Left,41.9959290872681,67.25335700876603,2.099796454363405,1.056413261539955,Right,Incorrect,0.0,0.0,-45,45,2001,3292,-0.88
"{'cat': 'II', 'resp': 'reach'}",52,171,Left,29.107113298981645,40.233965787111266,1.4553556649490822,0.6319936567078591,Right,Incorrect,0.0,0.0,-45,45,2007,1499,-0.86
"{'cat': 'II', 'resp': 'reach'}",52,172,Right,40.052349208755594,26.386166909086434,2.0026174604377798,0.4144729405899002,Right,Correct,0.0,0.0,-45,45,2004,1042,-0.89
"{'cat': 'II', 'resp': 'reach'}",52,173,Right,43.72460947611625,26.055332087874955,2.1862304738058125,0.4092761993705519,Right,Correct,0.0,0.0,-45,45,2012,1012,-0.88
"{'cat': 'II', 'resp': 'reach'}",52,174,Right,77.40014802205701,64.51506093014915,3.8700074011028507,1.0134002073202724,Right,Correct,0.0,0.0,-45,45,2007,6312,-0.86
"{'cat': 'II', 'resp': 'reach'}",52,175,Left,45.33998045982825,68.09862668771059,2.266999022991412,1.0696907266083273,Right,Incorrect,0.0,0.0,-45,45,2008,1829,-0.81
"{'cat': 'II', 'resp': 'reach'}",52,176,Right,78.56827526880636,64.05392791381267,3.928413763440318,1.0061567468380204,Right,Correct,0.0,0.0,-45,45,2012,12366,-0.8
"{'cat': 'II', 'resp': 'reach'}",52,177,Right,77.37244269067676,60.430299901384814,3.868622134533838,0.9492369311220926,Right,Correct,0.0,0.0,-45,45,2002,1151,-0.89
"{'cat': 'II', 'resp': 'reach'}",52,178,Right,78.59226574812601,64.81418633657313,3.9296132874063003,1.0180988582168904,Right,Correct,0.0,0.0,-45,45,2003,1469,-0.83
"{'cat': 'II', 'resp': 'reach'}",52,179,Right,87.43860374678692,68.05419347066437,4.371930187339347,1.0689927712670884,Right,Correct,0.0,0.0,-45,45,2005,3113,-0.85
"{'cat': 'II', 'resp': 'reach'}",52,180,Right,83.64208891935311,65.58980647727131,4.1821044459676555,1.0302822708968589,Right,Correct,0.0,0.0,-45,45,2002,1022,-0.85
"{'cat': 'II', 'resp': 'reach'}",52,181,Right,38.683889114063874,26.452664862078624,1.9341944557031936,0.4155174879928953,Right,Correct,0.0,0.0,-45,45,2007,1561,-0.85
"{'cat': 'II', 'resp': 'reach'}",52,182,Right,70.2538114303379,52.93808874259567,3.5126905715168952,0.8315495534441153,Right,Correct,0.0,0.0,-45,45,2003,2003,-0.8
"{'cat': 'II', 'resp': 'reach'}",52,183,Right,32.871803460592844,16.26986266980195,1.6435901730296423,0.2555664051918231,Right,Correct,0.0,0.0,-45,45,2001,1055,-0.87
"{'cat': 'II', 'resp': 'reach'}",52,184,Right,45.063584220229956,32.43660122065766,2.253179211011498,0.509512940511199,Right,Correct,0.0,0.0,-45,45,2003,1494,-0.84
"{'cat': 'II', 'resp': 'reach'}",52,185,Left,37.32506243425931,56.44879981064089,1.8662531217129654,0.8866956739453516,Left,Correct,0.0,0.0,-45,45,2009,3981,-2.45
"{'cat': 'II', 'resp': 'reach'}",52,186,Left,48.13974156776653,74.92768875988081,2.4069870783883265,1.1769613827925205,Left,Correct,0.0,0.0,-45,45,2010,6710,-2.51
"{'cat': 'II', 'resp': 'reach'}",52,187,Right,37.80331004746479,14.54755313314137,1.8901655023732393,0.2285124302539205,Right,Correct,0.0,0.0,-45,45,2007,919,-0.8
"{'cat': 'II', 'resp': 'reach'}",52,188,Left,55.121928889005574,69.89804359806794,2.7560964444502787,1.0979559013399465,Right,Incorrect,0.0,0.0,-45,45,2012,2255,-0.82
"{'cat': 'II', 'resp': 'reach'}",52,189,Right,52.47665685455348,42.038396311270546,2.623832842727674,0.6603375851009191,Right,Correct,0.0,0.0,-45,45,2009,1028,-0.83
"{'cat': 'II', 'resp': 'reach'}",52,190,Left,48.94145477790154,58.84730969348812,2.447072738895077,0.9243713790829285,Right,Incorrect,0.0,0.0,-45,45,2005,4113,-0.89
"{'cat': 'II', 'resp': 'reach'}",52,191,Right,88.88177652957103,69.01240153943996,4.444088826478551,1.0840442684144675,Right,Correct,0.0,0.0,-45,45,2008,3357,-0.84
"{'cat': 'II', 'resp': 'reach'}",52,192,Right,33.81802480224232,14.086407507726527,1.690901240112116,0.2212687717087288,Right,Correct,0.0,0.0,-45,45,2006,1118,-0.93
"{'cat': 'II', 'resp': 'reach'}",52,193,Left,48.24565112807669,79.41431792816334,2.4122825564038344,1.2474371889648108,Left,Correct,0.0,0.0,-45,45,2005,2968,-2.41
"{'cat': 'II', 'resp': 'reach'}",52,194,Left,58.71597567133897,75.06213621585358,2.9357987835669483,1.1790732784924098,Left,Correct,0.0,0.0,-45,45,2009,2848,-2.28
"{'cat': 'II', 'resp': 'reach'}",52,195,Right,62.72744990491488,31.05634475758226,3.1363724952457437,0.4878319226888616,Right,Correct,0.0,0.0,-45,45,2002,1018,-0.84
"{'cat': 'II', 'resp': 'reach'}",52,196,Left,21.3570855802896,52.84999994603875,1.06785427901448,0.8301658578634816,Left,Correct,0.0,0.0,-45,45,2001,1248,-2.37
"{'cat': 'II', 'resp': 'reach'}",52,197,Right,60.23127559368602,52.167625864508096,3.011563779684301,0.8194471508557976,Right,Correct,0.0,0.0,-45,45,2009,1713,-0.87
"{'cat': 'II', 'resp': 'reach'}",52,198,Right,87.45983327681952,62.213329393789536,4.372991663840976,0.9772446928944558,Right,Correct,0.0,0.0,-45,45,2008,1979,-0.87
"{'cat': 'II', 'resp': 'reach'}",52,199,Right,69.63143089589882,36.80295359863898,3.4815715447949405,0.5780994432794513,Right,Correct,0.0,0.0,-45,45,2007,1325,-0.91
"{'cat': 'II', 'resp': 'reach'}",52,200,Right,78.40673025823608,61.401405110452345,3.920336512911804,0.9644910160754394,Right,Correct,0.0,0.0,-45,45,2007,3630,-0.88
"{'cat': 'II', 'resp': 'reach'}",52,201,Right,61.667020283982026,29.362504070737728,3.0833510141991014,0.4612251353981502,Right,Correct,0.0,0.0,-45,45,2005,4127,-0.9
"{'cat': 'II', 'resp': 'reach'}",52,202,Right,79.41942927708266,48.319837977468886,3.970971463854133,0.7590062400633267,Right,Correct,0.0,0.0,-45,45,2009,824,-0.86
"{'cat': 'II', 'resp': 'reach'}",52,203,Right,66.27300363975114,43.45474183802876,3.313650181987557,0.6825854886099608,Right,Correct,0.0,0.0,-45,45,2001,918,-0.87
"{'cat': 'II', 'resp': 'reach'}",52,204,Right,63.19586668164792,42.696036657421814,3.159793334082396,0.6706677755017844,Right,Correct,0.0,0.0,-45,45,2006,2413,-0.93
"{'cat': 'II', 'resp': 'reach'}",52,205,Right,56.12353301719731,25.702303964180118,2.806176650859866,0.40373084657100033,Right,Correct,0.0,0.0,-45,45,2002,866,-0.92
"{'cat': 'II', 'resp': 'reach'}",52,206,Left,33.0985966727446,41.41172847048391,1.65492983363723,0.6504939096766376,Left,Correct,0.0,0.0,-45,45,2012,2360,-2.38
"{'cat': 'II', 'resp': 'reach'}",52,207,Left,23.132510010659566,41.19188980528192,1.1566255005329782,0.6470406919987698,Left,Correct,0.0,0.0,-45,45,2008,1408,-2.31
"{'cat': 'II', 'resp': 'reach'}",52,208,Right,65.98964206663462,39.51293545725082,3.2994821033317305,0.6206677387713342,Right,Correct,0.0,0.0,-45,45,2006,1028,-0.79
"{'cat': 'II', 'resp': 'reach'}",52,209,Right,74.83453230945065,44.61336181171205,3.7417266154725324,0.7007850485980901,Right,Correct,0.0,0.0,-45,45,2006,820,-0.83
"{'cat': 'II', 'resp': 'reach'}",52,210,Left,33.076393212201026,51.183340159471214,1.6538196606100513,0.8039860271559109,Left,Correct,0.0,0.0,-45,45,2003,4884,-2.43
"{'cat': 'II', 'resp': 'reach'}",52,211,Left,15.7245214968986,40.62317138097879,0.78622607484493,0.6381072838800104,Left,Correct,0.0,0.0,-45,45,2009,1246,-2.48
"{'cat': 'II', 'resp': 'reach'}",52,212,Left,59.48548888744807,76.1605203025722,2.9742744443724036,1.1963266553806855,Left,Correct,0.0,0.0,-45,45,2007,1550,-2.52
"{'cat': 'II', 'resp': 'reach'}",52,213,Right,54.394818489571634,29.83440671088738,2.719740924478582,0.46863776473566904,Right,Correct,0.0,0.0,-45,45,2005,968,-0.81
"{'cat': 'II', 'resp': 'reach'}",52,214,Left,26.74166826191558,57.41427230309745,1.3370834130957792,0.9018612803930744,Left,Correct,0.0,0.0,-45,45,2002,2128,-2.27
"{'cat': 'II', 'resp': 'reach'}",52,215,Left,41.640300674238325,71.61378900354211,2.082015033711916,1.1249067671462871,Left,Correct,0.0,0.0,-45,45,2007,8098,-2.55
"{'cat': 'II', 'resp': 'reach'}",52,216,Left,52.359973939514916,71.02880881612927,2.617998696975746,1.115717919849928,Right,Incorrect,0.0,0.0,-45,45,2005,6030,-0.98
"{'cat': 'II', 'resp': 'reach'}",52,217,Right,40.0563629019279,23.690631440408847,2.002818145096395,0.37213156846045914,Right,Correct,0.0,0.0,-45,45,2002,2285,-0.94
"{'cat': 'II', 'resp': 'reach'}",52,218,Left,34.732837660653836,51.54013154930642,1.736641883032692,0.8095904932017629,Left,Correct,0.0,0.0,-45,45,2006,3361,-2.37
"{'cat': 'II', 'resp': 'reach'}",52,219,Right,49.6514342180847,42.75501766828686,2.482571710904235,0.6715942470539591,Right,Correct,0.0,0.0,-45,45,2005,6951,-0.91
"{'cat': 'II', 'resp': 'reach'}",52,220,Right,63.15928740713443,48.77264440717798,3.1579643703567215,0.7661189068286881,Left,Incorrect,0.0,0.0,-45,45,2013,6095,-2.42
"{'cat': 'II', 'resp': 'reach'}",52,221,Left,50.36526666677137,77.07986261533608,2.5182633333385684,1.2107676506602518,Left,Correct,0.0,0.0,-45,45,2005,1291,-2.46
"{'cat': 'II', 'resp': 'reach'}",52,222,Left,52.18107060785131,60.90516591094564,2.6090535303925657,0.9566961089574717,Right,Incorrect,0.0,0.0,-45,45,2001,3319,-0.83
"{'cat': 'II', 'resp': 'reach'}",52,223,Right,89.13830573489577,64.60283069533847,4.456915286744788,1.0147788915679026,Right,Correct,0.0,0.0,-45,45,2004,2138,-0.77
"{'cat': 'II', 'resp': 'reach'}",52,224,Left,55.29025137183201,79.26746683876954,2.7645125685916003,1.2451304574467545,Left,Correct,0.0,0.0,-45,45,2005,1393,-2.41
"{'cat': 'II', 'resp': 'reach'}",52,225,Right,68.68135675381657,54.45072572887111,3.4340678376908285,0.8553099996622711,Right,Correct,0.0,0.0,-45,45,2003,3986,-0.8
"{'cat': 'II', 'resp': 'reach'}",52,226,Right,55.90059497890189,39.359748643750336,2.795029748945095,0.6182614859317344,Right,Correct,0.0,0.0,-45,45,2005,1144,-0.82
"{'cat': 'II', 'resp': 'reach'}",52,227,Right,80.54784164170928,51.86655919941909,4.0273920820854645,0.8147180067393758,Right,Correct,0.0,0.0,-45,45,2007,1897,-0.92
"{'cat': 'II', 'resp': 'reach'}",52,228,Right,56.33691340138026,46.129873475538446,2.8168456700690125,0.7246063581088911,Right,Correct,0.0,0.0,-45,45,2007,1131,-0.94
"{'cat': 'II', 'resp': 'reach'}",52,229,Left,39.028209801782594,53.986368587792605,1.9514104900891298,0.8480158947470001,Left,Correct,0.0,0.0,-45,45,2013,4432,-2.55
"{'cat': 'II', 'resp': 'reach'}",52,230,Left,25.859388868837385,40.931130681500726,1.2929694434418693,0.6429446972606323,Right,Incorrect,0.0,0.0,-45,45,2005,2087,-0.93
"{'cat': 'II', 'resp': 'reach'}",52,231,Left,39.944952403916034,52.10995216503691,1.9972476201958016,0.8185412145029772,Right,Incorrect,0.0,0.0,-45,45,2007,1303,-0.83
"{'cat': 'II', 'resp': 'reach'}",52,232,Right,39.9305909787668,16.762090818988153,1.9965295489383401,0.2632983068786905,Right,Correct,0.0,0.0,-45,45,2006,1047,-0.91
"{'cat': 'II', 'resp': 'reach'}",52,233,Right,47.00373252214972,38.839882995361116,2.350186626107486,0.610095455422568,Right,Correct,0.0,0.0,-45,45,2005,1347,-0.87
"{'cat': 'II', 'resp': 'reach'}",52,234,Right,66.7162390394532,58.46537819238218,3.33581195197266,0.9183720130926839,Right,Correct,0.0,0.0,-45,45,2006,2083,-0.87
"{'cat': 'II', 'resp': 'reach'}",52,235,Right,38.60631773296843,11.737392536120986,1.9303158866484214,0.1843705308188868,Right,Correct,0.0,0.0,-45,45,2003,924,-0.93
"{'cat': 'II', 'resp': 'reach'}",52,236,Left,56.893031871875905,67.98232285488484,2.8446515935937953,1.0678638302743786,Left,Correct,0.0,0.0,-45,45,2004,7648,-2.27
"{'cat': 'II', 'resp': 'reach'}",52,237,Left,20.62548903430817,32.772719927602466,1.0312744517154087,0.5147926808135586,Left,Correct,0.0,0.0,-45,45,2002,1585,-2.51
"{'cat': 'II', 'resp': 'reach'}",52,238,Left,44.17538833374791,76.0178720198031,2.2087694166873955,1.1940859413947122,Left,Correct,0.0,0.0,-45,45,2007,4153,-2.44
"{'cat': 'II', 'resp': 'reach'}",52,239,Right,78.20240819263698,61.71672291529907,3.9101204096318494,0.969444016571702,Right,Correct,0.0,0.0,-45,45,2012,1753,-0.72
"{'cat': 'II', 'resp': 'reach'}",52,240,Right,61.910957457354385,46.889339303867075,3.095547872867719,0.7365360194435399,Right,Correct,0.0,0.0,-45,45,2001,2553,-0.91
"{'cat': 'II', 'resp': 'reach'}",52,241,Left,53.12357555917464,66.89688406740557,2.656178777958732,1.050813797671047,Right,Incorrect,0.0,0.0,-45,45,2012,12457,-0.86
"{'cat': 'II', 'resp': 'reach'}",52,242,Right,62.30018403789082,50.40598140147676,3.1150092018945412,0.7917753043393156,Right,Correct,0.0,0.0,-45,45,2005,1146,-0.8
"{'cat': 'II', 'resp': 'reach'}",52,243,Right,43.18014794995938,31.44326146918549,2.1590073974979687,0.4939095961824807,Right,Correct,0.0,0.0,-45,45,2004,1652,-0.94
"{'cat': 'II', 'resp': 'reach'}",52,244,Right,57.947854421485026,43.67021973831005,2.897392721074251,0.6859702075526342,Right,Correct,0.0,0.0,-45,45,2002,1016,-0.81
"{'cat': 'II', 'resp': 'reach'}",52,245,Right,64.0431383998885,32.45140979709697,3.202156919994425,0.5097455530859584,Right,Correct,0.0,0.0,-45,45,2005,3079,-0.75
"{'cat': 'II', 'resp': 'reach'}",52,246,Right,76.1023365016609,62.176617386947,3.805116825083045,0.9766680220394806,Right,Correct,0.0,0.0,-45,45,2009,1474,-0.79
"{'cat': 'II', 'resp': 'reach'}",52,247,Left,26.91762427555959,42.689033342589546,1.3458812137779796,0.6705577676896453,Left,Correct,0.0,0.0,-45,45,2008,1126,-2.39
"{'cat': 'II', 'resp': 'reach'}",52,248,Right,48.4339245926136,24.564855741314233,2.42169622963068,0.3858638516670293,Right,Correct,0.0,0.0,-45,45,2006,1284,-0.78
"{'cat': 'II', 'resp': 'reach'}",52,249,Left,10.488059358191176,33.46433730499581,0.5244029679095589,0.5256565811731284,Left,Correct,0.0,0.0,-45,45,2008,1048,-2.48
"{'cat': 'II', 'resp': 'reach'}",52,250,Right,48.92222412810352,31.978912117194298,2.446111206405176,0.5023235768858562,Right,Correct,0.0,0.0,-45,45,2007,1785,-0.84
"{'cat': 'II', 'resp': 'reach'}",52,251,Left,28.684754556274903,58.362961545141104,1.434237727813745,0.9167632561597946,Left,Correct,0.0,0.0,-45,45,2009,1808,-2.42
"{'cat': 'II', 'resp': 'reach'}",52,252,Left,12.281226001278789,38.494930658535104,0.6140613000639394,0.6046769567865118,Left,Correct,0.0,0.0,-45,45,2002,995,-2.48
"{'cat': 'II', 'resp': 'reach'}",52,253,Left,23.03324830031588,54.67757426993671,1.151662415015794,0.8588733282127172,Left,Correct,0.0,0.0,-45,45,2003,4890,-2.47
"{'cat': 'II', 'resp': 'reach'}",52,254,Left,50.67197343406374,71.40695950242792,2.533598671703187,1.121657896940057,Left,Correct,0.0,0.0,-45,45,2004,2862,-2.41
"{'cat': 'II', 'resp': 'reach'}",52,255,Right,66.81637922766596,46.49058604813497,3.340818961383298,0.7302724179495248,Right,Correct,0.0,0.0,-45,45,2007,1000,-0.86
"{'cat': 'II', 'resp': 'reach'}",52,256,Left,43.95220303828133,63.909310451299966,2.1976101519140667,1.0038851010489669,Right,Incorrect,0.0,0.0,-45,45,2006,5908,-0.81
"{'cat': 'II', 'resp': 'reach'}",52,257,Right,54.23133856426303,39.12068296650233,2.711566928213151,0.6145062510548953,Right,Correct,0.0,0.0,-45,45,2007,1054,-0.78
"{'cat': 'II', 'resp': 'reach'}",52,258,Right,56.76089357370914,34.412304811953554,2.838044678685457,0.5405472199516298,Right,Correct,0.0,0.0,-45,45,2006,830,-0.8
"{'cat': 'II', 'resp': 'reach'}",52,259,Right,60.45511706441012,29.25108457091533,3.022755853220506,0.45947496198760673,Right,Correct,0.0,0.0,-45,45,2005,846,-0.77
"{'cat': 'II', 'resp': 'reach'}",52,260,Left,63.00624366309921,73.40045074876623,3.1503121831549605,1.152971584212517,Left,Correct,0.0,0.0,-45,45,2003,1570,-2.39
"{'cat': 'II', 'resp': 'reach'}",52,261,Left,24.140160547253284,51.17710572861601,1.2070080273626642,0.8038880969450408,Left,Correct,0.0,0.0,-45,45,2012,1079,-2.44
"{'cat': 'II', 'resp': 'reach'}",52,262,Right,53.36637325346932,31.80479435789155,2.6683186626734656,0.49958854151843096,Right,Correct,0.0,0.0,-45,45,2008,865,-0.74
"{'cat': 'II', 'resp': 'reach'}",52,263,Right,54.173251130276086,37.1355537967928,2.7086625565138043,0.583323914974964,Right,Correct,0.0,0.0,-45,45,2004,1018,-0.87
"{'cat': 'II', 'resp': 'reach'}",52,264,Left,25.260972847266988,47.3738764401316,1.2630486423633493,0.7441471109819402,Left,Correct,0.0,0.0,-45,45,2009,1800,-2.42
"{'cat': 'II', 'resp': 'reach'}",52,265,Left,42.14130968990775,65.39072938941483,2.1070654844953878,1.027155175313319,Left,Correct,0.0,0.0,-45,45,2014,1659,-2.34
"{'cat': 'II', 'resp': 'reach'}",52,266,Right,53.28570808197209,41.11554257831217,2.6642854040986044,0.6458414325619194,Right,Correct,0.0,0.0,-45,45,2004,887,-0.75
"{'cat': 'II', 'resp': 'reach'}",52,267,Left,41.96811414749583,57.350002126652726,2.0984057073747917,0.9008517268222562,Left,Correct,0.0,0.0,-45,45,2009,7609,-2.42
"{'cat': 'II', 'resp': 'reach'}",52,268,Left,29.816679699736376,52.742529473049586,1.4908339849868186,0.8284777156213787,Left,Correct,0.0,0.0,-45,45,2010,3445,-2.48
"{'cat': 'II', 'resp': 'reach'}",52,269,Right,75.33424640269321,53.61463766751554,3.7667123201346606,0.8421767591057271,Right,Correct,0.0,0.0,-45,45,2013,1098,-0.78
"{'cat': 'II', 'resp': 'reach'}",52,270,Left,19.806800058693053,43.7824501360238,0.9903400029346527,0.687733118517469,Left,Correct,0.0,0.0,-45,45,2002,953,-2.4
"{'cat': 'II', 'resp': 'reach'}",52,271,Right,72.58644742675486,62.18465120513044,3.6293223713377425,0.9767942169604076,Right,Correct,0.0,0.0,-45,45,2003,1094,-0.78
"{'cat': 'II', 'resp': 'reach'}",52,272,Left,61.06720258445459,71.39945188019476,3.05336012922273,1.1215399674857889,Left,Correct,0.0,0.0,-45,45,2002,1363,-2.37
"{'cat': 'II', 'resp': 'reach'}",52,273,Left,32.67829300585359,62.56814339528521,1.6339146502926796,0.9828180981969038,Left,Correct,0.0,0.0,-45,45,2003,5375,-2.45
"{'cat': 'II', 'resp': 'reach'}",52,274,Right,60.057173929559426,29.031232887219854,3.0028586964779715,0.45602153981572147,Right,Correct,0.0,0.0,-45,45,2006,1175,-0.71
"{'cat': 'II', 'resp': 'reach'}",52,275,Right,36.682082489807186,14.275704734216685,1.8341041244903593,0.2242422455891608,Right,Correct,0.0,0.0,-45,45,2001,922,-0.75
"{'cat': 'II', 'resp': 'reach'}",52,276,Right,55.22975100527534,37.802433337365514,2.7614875502637672,0.593799234302427,Right,Correct,0.0,0.0,-45,45,2012,988,-0.74
"{'cat': 'II', 'resp': 'reach'}",52,277,Left,34.876087409700865,43.63753773502595,1.7438043704850432,0.6854568398455245,Left,Correct,0.0,0.0,-45,45,2002,1864,-2.41
"{'cat': 'II', 'resp': 'reach'}",52,278,Right,51.140193015414454,23.52496225481465,2.557009650770723,0.3695292429785144,Right,Correct,0.0,0.0,-45,45,2009,962,-0.77
"{'cat': 'II', 'resp': 'reach'}",52,279,Right,70.19667649250823,50.01921643377845,3.5098338246254115,0.7857000144333813,Right,Correct,0.0,0.0,-45,45,2004,1826,-0.79
"{'cat': 'II', 'resp': 'reach'}",52,280,Right,76.68810141017329,51.36078347752566,3.8344050705086645,0.8067733002780532,Right,Correct,0.0,0.0,-45,45,2011,1225,-0.78
"{'cat': 'II', 'resp': 'reach'}",52,281,Left,20.09917763403361,45.10046587045376,1.0049588817016804,0.7084364612604735,Left,Correct,0.0,0.0,-45,45,2008,1083,-2.46
"{'cat': 'II', 'resp': 'reach'}",52,282,Right,65.05189181271906,38.39012788867233,3.2525945906359532,0.6030307187271281,Right,Correct,0.0,0.0,-45,45,2006,966,-0.77
"{'cat': 'II', 'resp': 'reach'}",52,283,Right,56.144551754643565,28.127784845760985,2.807227587732178,0.44183021116598514,Right,Correct,0.0,0.0,-45,45,2004,890,-0.79
"{'cat': 'II', 'resp': 'reach'}",52,284,Left,25.767162422361956,36.13242327171161,1.2883581211180979,0.5675667775340304,Left,Correct,0.0,0.0,-45,45,2008,1601,-2.48
"{'cat': 'II', 'resp': 'reach'}",52,285,Right,58.90910362445639,51.501163030590575,2.94545518122282,0.8089783771411679,Left,Incorrect,0.0,0.0,-45,45,2003,3276,-2.5
"{'cat': 'II', 'resp': 'reach'}",52,286,Left,20.068794479562452,37.52088070935953,1.0034397239781228,0.5893766159637144,Left,Correct,0.0,0.0,-45,45,2012,1146,-2.44
"{'cat': 'II', 'resp': 'reach'}",52,287,Right,57.85364392788189,50.312776734232685,2.8926821963940945,0.7903112488498443,Right,Correct,0.0,0.0,-45,45,2009,2023,-0.84
"{'cat': 'II', 'resp': 'reach'}",52,288,Left,59.456272798637535,71.64829797663174,2.9728136399318768,1.1254488328279935,Left,Correct,0.0,0.0,-45,45,2013,1664,-2.39
"{'cat': 'II', 'resp': 'reach'}",52,289,Left,35.45478971727176,44.18963841386044,1.7727394858635879,0.6941292170288664,Right,Incorrect,0.0,0.0,-45,45,2009,11217,-0.77
"{'cat': 'II', 'resp': 'reach'}",52,290,Left,53.79725730824656,71.69677747044368,2.689862865412328,1.12621034693604,Left,Correct,0.0,0.0,-45,45,2003,1769,-2.35
"{'cat': 'II', 'resp': 'reach'}",52,291,Left,49.57529940673549,77.50256353356873,2.4787649703367745,1.2174074211571786,Left,Correct,0.0,0.0,-45,45,2001,1355,-2.4
"{'cat': 'II', 'resp': 'reach'}",52,292,Right,80.44693737400776,60.44899054753974,4.022346868700388,0.9495305231053485,Right,Correct,0.0,0.0,-45,45,2001,2319,-0.77
"{'cat': 'II', 'resp': 'reach'}",52,293,Right,43.84661905093981,25.109637331333296,2.1923309525469903,0.3944212608721035,Right,Correct,0.0,0.0,-45,45,2004,1118,-0.82
"{'cat': 'II', 'resp': 'reach'}",52,294,Right,66.79502443861378,51.978535904620394,3.339751221930689,0.8164769327115436,Right,Correct,0.0,0.0,-45,45,2010,3484,-0.8
"{'cat': 'II', 'resp': 'reach'}",52,295,Left,23.215485294664294,48.16479320406388,1.1607742647332147,0.7565708024577933,Left,Correct,0.0,0.0,-45,45,2004,4576,-2.57
"{'cat': 'II', 'resp': 'reach'}",52,296,Right,53.785365533850296,33.85777648973074,2.6892682766925144,0.5318367094351165,Right,Correct,0.0,0.0,-45,45,2005,951,-0.88
"{'cat': 'II', 'resp': 'reach'}",52,297,Right,56.03846819846203,46.55288356798287,2.8019234099231016,0.7312509851029798,Right,Correct,0.0,0.0,-45,45,2005,1322,-0.93
"{'cat': 'II', 'resp': 'reach'}",52,298,Left,56.658026538191365,66.48876452416782,2.8329013269095684,1.0444030708769365,Left,Correct,0.0,0.0,-45,45,2007,6325,-2.38
"{'cat': 'II', 'resp': 'reach'}",52,299,Right,69.10060784746369,39.46179446496281,3.455030392373185,0.6198644179429875,Right,Correct,0.0,0.0,-45,45,2002,1031,-0.95
"{'cat': 'II', 'resp': 'reach'}",52,300,Right,51.432487312198724,41.85063695028828,2.5716243656099365,0.657388267955396,Right,Correct,0.0,0.0,-45,45,2012,916,-0.91
"{'cat': 'II', 'resp': 'reach'}",52,301,Left,46.90031047743819,77.17674347246455,2.3450155238719095,1.2122894516053933,Left,Correct,0.0,0.0,-45,45,2009,2892,-2.45
"{'cat': 'II', 'resp': 'reach'}",52,302,Left,56.125591339177944,83.3511196645146,2.8062795669588976,1.309276326032614,Left,Correct,0.0,0.0,-45,45,2002,1915,-2.45
"{'cat': 'II', 'resp': 'reach'}",52,303,Right,65.04655919968806,51.93713000829487,3.2523279599844033,0.8158265304129859,Right,Correct,0.0,0.0,-45,45,2002,2216,-0.85
"{'cat': 'II', 'resp': 'reach'}",52,304,Left,50.11264693151098,64.89990676639422,2.505632346575549,1.0194453515798332,Right,Incorrect,0.0,0.0,-45,45,2012,2695,-0.94
"{'cat': 'II', 'resp': 'reach'}",52,305,Right,66.46218770232079,43.35860186882963,3.323109385116039,0.6810753255051993,Right,Correct,0.0,0.0,-45,45,2003,1147,-0.94
"{'cat': 'II', 'resp': 'reach'}",52,306,Left,61.10573100888915,74.97857335480661,3.0552865504444577,1.1777606761405193,Left,Correct,0.0,0.0,-45,45,2001,1518,-2.77
"{'cat': 'II', 'resp': 'reach'}",52,307,Left,63.586097855905145,80.09610897530663,3.179304892795257,1.258146737689754,Left,Correct,0.0,0.0,-45,45,2008,3156,-2.39
"{'cat': 'II', 'resp': 'reach'}",52,308,Right,36.7732576953446,12.268812565526382,1.83866288476723,0.1927180571206391,Right,Correct,0.0,0.0,-45,45,2006,976,-0.91
"{'cat': 'II', 'resp': 'reach'}",52,309,Left,57.57786164987917,86.33018841797693,2.8788930824939585,1.3560714285846949,Left,Correct,0.0,0.0,-45,45,2004,4120,-2.48
"{'cat': 'II', 'resp': 'reach'}",52,310,Left,27.505998348636552,51.626974408376746,1.3752999174318277,0.8109546176421232,Left,Correct,0.0,0.0,-45,45,2002,1560,-2.38
"{'cat': 'II', 'resp': 'reach'}",52,311,Left,13.730389699819202,31.310969262786042,0.68651948499096,0.4918315550637222,Left,Correct,0.0,0.0,-45,45,2012,1020,-2.48
"{'cat': 'II', 'resp': 'reach'}",52,312,Right,40.49199224636892,15.963543363893635,2.024599612318446,0.2507547527863517,Right,Correct,0.0,0.0,-45,45,2007,718,-0.77
"{'cat': 'II', 'resp': 'reach'}",52,313,Left,26.29451434462292,57.67516851830901,1.3147257172311462,0.9059594285583644,Left,Correct,0.0,0.0,-45,45,2004,14721,-2.62
"{'cat': 'II', 'resp': 'reach'}",52,314,Right,85.80026287194917,57.87938771113362,4.2900131435974584,0.9091672961378636,Right,Correct,0.0,0.0,-45,45,2002,1780,-0.74
"{'cat': 'II', 'resp': 'reach'}",52,315,Left,23.987806786740094,37.83157290734137,1.1993903393370047,0.5942569575972515,Left,Correct,0.0,0.0,-45,45,2008,2247,-2.5
"{'cat': 'II', 'resp': 'reach'}",52,316,Left,28.251090399927534,44.03111468413011,1.4125545199963767,0.6916391321051641,Left,Correct,0.0,0.0,-45,45,2004,2280,-2.4
"{'cat': 'II', 'resp': 'reach'}",52,317,Right,70.8134621575841,52.18547239792551,3.540673107879205,0.8197274835471785,Right,Correct,0.0,0.0,-45,45,2006,3092,-0.74
"{'cat': 'II', 'resp': 'reach'}",52,318,Right,44.7016746387045,19.610764153337442,2.2350837319352252,0.30804516297703477,Right,Correct,0.0,0.0,-45,45,2008,934,-0.77
"{'cat': 'II', 'resp': 'reach'}",52,319,Right,65.93421619229218,45.8891364575178,3.296710809614609,0.7208248698725872,Right,Correct,0.0,0.0,-45,45,2001,1779,-0.84
"{'cat': 'II', 'resp': 'reach'}",52,320,Right,78.11448532220152,55.537123518162886,3.905724266110076,0.8723750962308472,Right,Correct,0.0,0.0,-45,45,2008,2177,-0.82
"{'cat': 'II', 'resp': 'reach'}",52,321,Left,46.852224784797144,73.01735398340682,2.3426112392398575,1.1469539142941814,Left,Correct,0.0,0.0,-45,45,2009,3885,-2.41
"{'cat': 'II', 'resp': 'reach'}",52,322,Left,56.31170545166758,81.70836489571525,2.815585272583379,1.2834719944660657,Left,Correct,0.0,0.0,-45,45,2005,1372,-2.63
"{'cat': 'II', 'resp': 'reach'}",52,323,Left,20.23061708596024,39.1462175096293,1.011530854298012,0.6149073467203977,Left,Correct,0.0,0.0,-45,45,2009,1056,-2.48
"{'cat': 'II', 'resp': 'reach'}",52,324,Right,46.93098883292359,33.12004563703631,2.3465494416461796,0.5202484602993599,Right,Correct,0.0,0.0,-45,45,2006,1016,-0.86
"{'cat': 'II', 'resp': 'reach'}",52,325,Left,19.556460051909333,32.99533332037225,0.9778230025954667,0.5182894838101398,Left,Correct,0.0,0.0,-45,45,2010,951,-2.48
"{'cat': 'II', 'resp': 'reach'}",52,326,Left,47.58999046972568,69.27721794327813,2.3794995234862837,1.0882039947587079,Left,Correct,0.0,0.0,-45,45,2002,5405,-2.43
"{'cat': 'II', 'resp': 'reach'}",52,327,Right,88.9621741759791,69.35481504262025,4.448108708798955,1.0894228871448732,Right,Correct,0.0,0.0,-45,45,2004,906,-0.85
"{'cat': 'II', 'resp': 'reach'}",52,328,Left,14.989264798427602,37.420470800001084,0.7494632399213801,0.5877993807957738,Left,Correct,0.0,0.0,-45,45,2004,1021,-2.45
"{'cat': 'II', 'resp': 'reach'}",52,329,Left,13.470290599491435,39.08550391387008,0.6735145299745717,0.6139536597883466,Left,Correct,0.0,0.0,-45,45,2008,1003,-2.43
"{'cat': 'II', 'resp': 'reach'}",52,330,Left,52.51729435009519,73.78818342247168,2.6258647175047596,1.1590620748088658,Right,Incorrect,0.0,0.0,-45,45,2007,1943,-0.83
"{'cat': 'II', 'resp': 'reach'}",52,331,Left,54.037609034745515,73.55002404580728,2.7018804517372756,1.155321076068304,Right,Incorrect,0.0,0.0,-45,45,2013,2340,-0.81
"{'cat': 'II', 'resp': 'reach'}",52,332,Right,39.10695646232166,29.41168259769912,1.955347823116083,0.46199762989323157,Right,Correct,0.0,0.0,-45,45,2003,1060,-0.89
"{'cat': 'II', 'resp': 'reach'}",52,333,Left,53.35370847524942,60.9419987045353,2.6676854237624705,0.957274677126234,Left,Correct,0.0,0.0,-45,45,2003,13549,-2.47
"{'cat': 'II', 'resp': 'reach'}",52,334,Left,56.653669493942374,80.01616613620638,2.832683474697119,1.2568909985096317,Left,Correct,0.0,0.0,-45,45,2008,1464,-2.39
"{'cat': 'II', 'resp': 'reach'}",52,335,Left,35.35910039700464,46.69979191384613,1.7679550198502318,0.7335586160035551,Right,Incorrect,0.0,0.0,-45,45,2004,1729,-0.88
"{'cat': 'II', 'resp': 'reach'}",52,336,Right,52.89358489369677,34.49582051511543,2.644679244684838,0.5418590815491936,Right,Correct,0.0,0.0,-45,45,2004,949,-0.89
"{'cat': 'II', 'resp': 'reach'}",52,337,Right,31.412388204631416,13.354799701574475,1.570619410231571,0.20977670316314764,Right,Correct,0.0,0.0,-45,45,2008,850,-0.85
"{'cat': 'II', 'resp': 'reach'}",52,338,Right,65.26960484368236,36.53706761548422,3.263480242184118,0.5739229160225938,Right,Correct,0.0,0.0,-45,45,2003,933,-0.9
"{'cat': 'II', 'resp': 'reach'}",52,339,Left,40.56577829683888,48.65510527468412,2.028288914841944,0.7642726064529282,Right,Incorrect,0.0,0.0,-45,45,2010,8387,-0.86
"{'cat': 'II', 'resp': 'reach'}",52,340,Right,48.459514821103525,24.48969856892129,2.4229757410551764,0.384683285563758,Right,Correct,0.0,0.0,-45,45,2009,770,-0.84
"{'cat': 'II', 'resp': 'reach'}",52,341,Right,61.5393895084053,38.45178481912373,3.076969475420265,0.6039992235258731,Right,Correct,0.0,0.0,-45,45,2002,1203,-0.8
"{'cat': 'II', 'resp': 'reach'}",52,342,Right,58.521176801230126,44.390907812985745,2.9260588400615064,0.6972907493572887,Right,Correct,0.0,0.0,-45,45,2002,1009,-0.79
"{'cat': 'II', 'resp': 'reach'}",52,343,Right,42.766729141723026,15.789895074789634,2.1383364570861514,0.24802709183956384,Right,Correct,0.0,0.0,-45,45,2004,863,-0.77
"{'cat': 'II', 'resp': 'reach'}",52,344,Left,19.19759220249641,39.751114463463665,0.9598796101248205,0.6244090458521221,Left,Correct,0.0,0.0,-45,45,2001,1137,-2.32
"{'cat': 'II', 'resp': 'reach'}",52,345,Left,45.022860761417235,63.708218000672126,2.251143038070862,1.000726348221043,Left,Correct,0.0,0.0,-45,45,2008,3716,-2.33
"{'cat': 'II', 'resp': 'reach'}",52,346,Left,57.94318601079247,79.59461511093775,2.8971593005396237,1.2502692904891457,Right,Incorrect,0.0,0.0,-45,45,2002,1124,-0.73
"{'cat': 'II', 'resp': 'reach'}",52,347,Left,56.35857060433925,66.51516372129673,2.8179285302169625,1.0448177484957408,Right,Incorrect,0.0,0.0,-45,45,2002,2761,-0.74
"{'cat': 'II', 'resp': 'reach'}",52,348,Left,20.305583502992977,40.792856910523824,1.0152791751496488,0.6407726979452063,Left,Correct,0.0,0.0,-45,45,2004,1189,-2.42
"{'cat': 'II', 'resp': 'reach'}",52,349,Right,72.07810022710842,43.26670284665586,3.6039050113554207,0.6796317790405332,Right,Correct,0.0,0.0,-45,45,2003,1142,-0.78
"{'cat': 'II', 'resp': 'reach'}",52,350,Right,62.322536192187016,33.95198443302658,3.116126809609351,0.5333165243479566,Right,Correct,0.0,0.0,-45,45,2009,942,-0.82
"{'cat': 'II', 'resp': 'reach'}",52,351,Right,71.20543369509562,59.84830539015417,3.560271684754781,0.9400949827175339,Right,Correct,0.0,0.0,-45,45,2004,4130,-0.72
"{'cat': 'II', 'resp': 'reach'}",52,352,Left,39.094145813374446,64.8558459596164,1.9547072906687222,1.0187532460454107,Left,Correct,0.0,0.0,-45,45,2003,2227,-2.32
"{'cat': 'II', 'resp': 'reach'}",52,353,Right,84.51724828630724,56.88016635987521,4.225862414315362,0.8934715638557462,Right,Correct,0.0,0.0,-45,45,2003,949,-0.73
"{'cat': 'II', 'resp': 'reach'}",52,354,Left,31.159355032922544,54.82412664527616,1.5579677516461272,0.86117536754138,Left,Correct,0.0,0.0,-45,45,2012,1516,-2.43
"{'cat': 'II', 'resp': 'reach'}",52,355,Right,78.28524845341607,53.69593521980366,3.914262422670804,0.843453778070843,Right,Correct,0.0,0.0,-45,45,2007,914,-0.82
"{'cat': 'II', 'resp': 'reach'}",52,356,Left,48.95915871815707,80.2082625111635,2.4479579359078536,1.2599084413113641,Left,Correct,0.0,0.0,-45,45,2005,4156,-2.39
"{'cat': 'II', 'resp': 'reach'}",52,357,Left,25.314956868671395,52.22142550695937,1.2657478434335698,0.820292233663251,Left,Correct,0.0,0.0,-45,45,2007,2380,-2.32
"{'cat': 'II', 'resp': 'reach'}",52,358,Left,42.96636536480834,65.50181943561307,2.1483182682404167,1.0289001736784358,Left,Correct,0.0,0.0,-45,45,2012,3789,-2.35
"{'cat': 'II', 'resp': 'reach'}",52,359,Right,56.74534485862165,42.263116147220515,2.8372672429310826,0.6638674760296006,Right,Correct,0.0,0.0,-45,45,2007,2712,-0.77
"{'cat': 'II', 'resp': 'reach'}",52,360,Left,29.046382899277965,42.65779155762995,1.4523191449638984,0.6700670228790748,Left,Correct,0.0,0.0,-45,45,2001,5422,-2.39
"{'cat': 'II', 'resp': 'reach'}",52,361,Right,77.7770509188495,53.55370825508184,3.888852545942475,0.8412196821332808,Right,Correct,0.0,0.0,-45,45,2007,1099,-0.7
"{'cat': 'II', 'resp': 'reach'}",52,362,Right,75.91987992458169,47.33754833924063,3.7959939962290843,0.7435764705075503,Right,Correct,0.0,0.0,-45,45,2009,1531,-0.73
"{'cat': 'II', 'resp': 'reach'}",52,363,Right,53.653437778933785,30.583036815067423,2.6826718889466896,0.48039721891341003,Right,Correct,0.0,0.0,-45,45,2002,987,-0.75
"{'cat': 'II', 'resp': 'reach'}",52,364,Right,56.0642728804919,28.830745756559494,2.803213644024595,0.45287229533161205,Right,Correct,0.0,0.0,-45,45,2009,965,-0.85
"{'cat': 'II', 'resp': 'reach'}",52,365,Right,75.97302161137043,49.9267775560144,3.798651080568521,0.7842479879369331,Right,Correct,0.0,0.0,-45,45,2013,1821,-0.82
"{'cat': 'II', 'resp': 'reach'}",52,366,Left,26.915807924180008,49.13466694400569,1.3457903962090003,0.7718055435393476,Left,Correct,0.0,0.0,-45,45,2004,1087,-2.36
"{'cat': 'II', 'resp': 'reach'}",52,367,Left,27.04423499254383,40.21522520264875,1.3522117496271915,0.6316992802955022,Left,Correct,0.0,0.0,-45,45,2012,2371,-2.42
"{'cat': 'II', 'resp': 'reach'}",52,368,Left,37.64211078187075,66.75592162837549,1.8821055390935373,1.048599564856602,Left,Correct,0.0,0.0,-45,45,2009,3238,-2.35
"{'cat': 'II', 'resp': 'reach'}",52,369,Left,62.19988911834389,81.91206861131398,3.1099944559171946,1.2866717649482353,Right,Incorrect,0.0,0.0,-45,45,2002,1363,-0.82
"{'cat': 'II', 'resp': 'reach'}",52,370,Left,62.33988495097188,75.13218918451146,3.1169942475485937,1.1801736679508987,Left,Correct,0.0,0.0,-45,45,2004,2174,-2.39
"{'cat': 'II', 'resp': 'reach'}",52,371,Left,61.63741206513566,73.30912369221528,3.081870603256783,1.151537022162845,Right,Incorrect,0.0,0.0,-45,45,2007,1441,-0.83
"{'cat': 'II', 'resp': 'reach'}",52,372,Right,39.95128421050169,29.703066681036326,1.9975642105250844,0.46657468037115735,Right,Correct,0.0,0.0,-45,45,2006,810,-0.81
"{'cat': 'II', 'resp': 'reach'}",52,373,Left,27.94395014608856,56.07107515031404,1.397197507304428,0.8807623888555389,Left,Correct,0.0,0.0,-45,45,2005,3482,-2.41
"{'cat': 'II', 'resp': 'reach'}",52,374,Left,13.721344290116566,30.88858863117144,0.6860672145058282,0.48519681561722705,Left,Correct,0.0,0.0,-45,45,2009,821,-2.38
"{'cat': 'II', 'resp': 'reach'}",52,375,Right,72.28206451942432,57.05482255890166,3.6141032259712165,0.8962150570145734,Right,Correct,0.0,0.0,-45,45,2002,882,-0.86
"{'cat': 'II', 'resp': 'reach'}",52,376,Left,41.51274873022662,50.84357701164938,2.075637436511331,0.7986490401101229,Left,Correct,0.0,0.0,-45,45,2007,2071,-2.36
"{'cat': 'II', 'resp': 'reach'}",52,377,Left,19.15892957274961,48.40975390865298,0.9579464786374805,0.7604186362075699,Left,Correct,0.0,0.0,-45,45,2012,893,-2.37
"{'cat': 'II', 'resp': 'reach'}",52,378,Left,24.52670458385746,37.909261688161465,1.2263352291928729,0.5954772901127053,Left,Correct,0.0,0.0,-45,45,2005,2223,-2.44
"{'cat': 'II', 'resp': 'reach'}",52,379,Right,72.42172470101066,41.94099289223908,3.621086235050533,0.6588075757726001,Right,Correct,0.0,0.0,-45,45,2001,773,-0.8
"{'cat': 'II', 'resp': 'reach'}",52,380,Left,27.458930241951165,51.19564316336961,1.3729465120975584,0.8041792822892323,Left,Correct,0.0,0.0,-45,45,2012,1117,-2.37
"{'cat': 'II', 'resp': 'reach'}",52,381,Left,48.353337332169374,63.92908769156485,2.4176668666084686,1.0041957612125891,Right,Incorrect,0.0,0.0,-45,45,2009,1978,-0.87
"{'cat': 'II', 'resp': 'reach'}",52,382,Right,56.21992885875569,33.541537938730755,2.8109964429377845,0.5268692458920994,Right,Correct,0.0,0.0,-45,45,2005,826,-0.89
"{'cat': 'II', 'resp': 'reach'}",52,383,Left,18.850465796112502,44.63169701289549,0.942523289805625,0.70107305726479,Left,Correct,0.0,0.0,-45,45,2006,1167,-2.38
"{'cat': 'II', 'resp': 'reach'}",52,384,Right,47.58007882523238,35.60113573352724,2.379003941261619,0.5592213323995112,Right,Correct,0.0,0.0,-45,45,2006,769,-0.86
"{'cat': 'II', 'resp': 'reach'}",52,385,Right,68.8478420780987,59.355508826988,3.4423921039049343,0.9323541524047482,Left,Incorrect,0.0,0.0,-45,45,2009,4660,-2.34
"{'cat': 'II', 'resp': 'reach'}",52,386,Right,55.42537881551627,24.897384778249616,2.7712689407758138,0.39108720556473664,Right,Correct,0.0,0.0,-45,45,2008,717,-0.86
"{'cat': 'II', 'resp': 'reach'}",52,387,Right,79.30109199863094,48.938094440462876,3.9650545999315465,0.7687177898742085,Right,Correct,0.0,0.0,-45,45,2012,863,-0.86
"{'cat': 'II', 'resp': 'reach'}",52,388,Right,69.64877425084529,39.102563575436704,3.4824387125422644,0.614221632325599,Right,Correct,0.0,0.0,-45,45,2005,610,-0.84
"{'cat': 'II', 'resp': 'reach'}",52,389,Right,39.6943374623022,21.129321168577764,1.9847168731151101,0.33189860079271605,Right,Correct,0.0,0.0,-45,45,2004,742,-0.88
