condition,subject,trial,cat,x,y,xt,yt,resp,fb,rotation,su,target_angle_left,target_angle_right,rt,mt,ep
"{'cat': 'II', 'resp': 'button'}",55,0,Left,46.01532458459484,70.6529482503668,2.300766229229742,1.109813915889061,Left,Correct,0.0,0.0,-45,45,2879,-1,-1
"{'cat': 'II', 'resp': 'button'}",55,1,Left,52.618299139003554,68.65741201435151,2.630914956950178,1.0784681059938714,Left,Correct,0.0,0.0,-45,45,1807,-1,-1
"{'cat': 'II', 'resp': 'button'}",55,2,Right,54.15324523028583,35.41118039264997,2.707662261514292,0.5562375208824604,Left,Incorrect,0.0,0.0,-45,45,1489,-1,-1
"{'cat': 'II', 'resp': 'button'}",55,3,Left,31.14215773115302,57.5389273155579,1.557107886557651,0.9038193567499688,Left,Correct,0.0,0.0,-45,45,5560,-1,-1
"{'cat': 'II', 'resp': 'button'}",55,4,Right,61.77126735683703,30.814642467519107,3.0885633678418514,0.4840352719947703,Right,Correct,0.0,0.0,-45,45,2008,-1,-1
"{'cat': 'II', 'resp': 'button'}",55,5,Left,36.73097054973093,61.54760333980051,1.8365485274865463,0.9667874924918795,Left,Correct,0.0,0.0,-45,45,2214,-1,-1
"{'cat': 'II', 'resp': 'button'}",55,6,Left,47.62739286594777,63.63473892271932,2.3813696432973885,0.9995721415635976,Left,Correct,0.0,0.0,-45,45,5220,-1,-1
"{'cat': 'II', 'resp': 'button'}",55,7,Right,39.429656544711875,14.514151148558732,1.9714828272355935,0.22798775310701985,Right,Correct,0.0,0.0,-45,45,3313,-1,-1
"{'cat': 'II', 'resp': 'button'}",55,8,Left,53.87505508726027,73.30057293856495,2.6937527543630138,1.1514027072385922,Left,Correct,0.0,0.0,-45,45,2400,-1,-1
"{'cat': 'II', 'resp': 'button'}",55,9,Right,33.006966464156534,18.07297875710367,1.6503483232078267,0.28388968645900636,Right,Correct,0.0,0.0,-45,45,3346,-1,-1
"{'cat': 'II', 'resp': 'button'}",55,10,Left,20.130479245126125,32.84194851064365,1.0065239622563062,0.5158801208530617,Right,Incorrect,0.0,0.0,-45,45,4669,-1,-1
"{'cat': 'II', 'resp': 'button'}",55,11,Left,22.51628846191028,33.79195163439471,1.1258144230955138,0.5308027350253801,Left,Correct,0.0,0.0,-45,45,3546,-1,-1
"{'cat': 'II', 'resp': 'button'}",55,12,Left,19.02987315289704,43.95189293653002,0.9514936576448519,0.6903947198038392,Right,Incorrect,0.0,0.0,-45,45,1343,-1,-1
"{'cat': 'II', 'resp': 'button'}",55,13,Right,32.27986838373098,13.485562027315396,1.613993419186549,0.21183071297271766,Left,Incorrect,0.0,0.0,-45,45,7967,-1,-1
"{'cat': 'II', 'resp': 'button'}",55,14,Right,63.001238971368366,48.42771179607819,3.1500619485684185,0.7607007180436152,Left,Incorrect,0.0,0.0,-45,45,1537,-1,-1
"{'cat': 'II', 'resp': 'button'}",55,15,Left,30.17633191333325,55.29716751971689,1.5088165956666626,0.8686058762213336,Right,Incorrect,0.0,0.0,-45,45,2494,-1,-1
"{'cat': 'II', 'resp': 'button'}",55,16,Left,42.589402122762095,66.12958390911524,2.129470106138105,1.0387610749691312,Left,Correct,0.0,0.0,-45,45,3313,-1,-1
"{'cat': 'II', 'resp': 'button'}",55,17,Right,38.591075999357656,13.237012868572087,1.929553799967883,0.20792651191689812,Right,Correct,0.0,0.0,-45,45,3471,-1,-1
"{'cat': 'II', 'resp': 'button'}",55,18,Left,28.44617015249092,40.51720837991057,1.4223085076245463,0.6364428209514693,Left,Correct,0.0,0.0,-45,45,4111,-1,-1
"{'cat': 'II', 'resp': 'button'}",55,19,Left,12.894357202798307,37.27213564263437,0.6447178601399153,0.5854693375925121,Right,Incorrect,0.0,0.0,-45,45,4679,-1,-1
"{'cat': 'II', 'resp': 'button'}",55,20,Right,81.06542932237684,58.59633336868719,4.053271466118843,0.9204290521918307,Left,Incorrect,0.0,0.0,-45,45,6373,-1,-1
"{'cat': 'II', 'resp': 'button'}",55,21,Left,64.4629068457831,84.72875277935893,3.223145342289155,1.330916136397299,Right,Incorrect,0.0,0.0,-45,45,1694,-1,-1
"{'cat': 'II', 'resp': 'button'}",55,22,Right,49.19664207637234,38.70952175069397,2.4598321038186173,0.6080477457797725,Right,Correct,0.0,0.0,-45,45,3116,-1,-1
"{'cat': 'II', 'resp': 'button'}",55,23,Left,58.33616224729604,79.06673739312214,2.9168081123648015,1.2419774066877294,Left,Correct,0.0,0.0,-45,45,1265,-1,-1
"{'cat': 'II', 'resp': 'button'}",55,24,Left,31.935006018826215,47.56726114595539,1.5967503009413107,0.7471847908376033,Left,Correct,0.0,0.0,-45,45,5185,-1,-1
"{'cat': 'II', 'resp': 'button'}",55,25,Right,58.17763901065627,50.57412177320832,2.908881950532814,0.7944164471223343,Right,Correct,0.0,0.0,-45,45,5267,-1,-1
"{'cat': 'II', 'resp': 'button'}",55,26,Left,14.636755083864315,40.18621939309032,0.7318377541932157,0.631243658104401,Right,Incorrect,0.0,0.0,-45,45,8131,-1,-1
"{'cat': 'II', 'resp': 'button'}",55,27,Right,80.06353291256984,58.52242791735206,4.003176645628492,0.9192681480769573,Left,Incorrect,0.0,0.0,-45,45,5010,-1,-1
"{'cat': 'II', 'resp': 'button'}",55,28,Left,65.37478560885515,76.1219009062624,3.2687392804427575,1.1957200233220209,Right,Incorrect,0.0,0.0,-45,45,2017,-1,-1
"{'cat': 'II', 'resp': 'button'}",55,29,Right,52.1139319954236,28.468108410531173,2.6056965997711803,0.44717600122061274,Left,Incorrect,0.0,0.0,-45,45,8147,-1,-1
"{'cat': 'II', 'resp': 'button'}",55,30,Right,75.88698306530141,56.57134383887101,3.7943491532650704,0.888620591039497,Right,Correct,0.0,0.0,-45,45,1235,-1,-1
"{'cat': 'II', 'resp': 'button'}",55,31,Left,27.903002714116028,51.974416410908646,1.3951501357058016,0.8164122238556369,Left,Correct,0.0,0.0,-45,45,2722,-1,-1
"{'cat': 'II', 'resp': 'button'}",55,32,Right,48.18980344923179,40.89706050051938,2.4094901724615894,0.642409524109245,Left,Incorrect,0.0,0.0,-45,45,15472,-1,-1
"{'cat': 'II', 'resp': 'button'}",55,33,Right,64.19090047280962,41.994403029668874,3.209545023640481,0.6596465402494834,Right,Correct,0.0,0.0,-45,45,2649,-1,-1
"{'cat': 'II', 'resp': 'button'}",55,34,Left,45.33735153140549,58.51169205607886,2.2668675765702746,0.9190995095624278,Left,Correct,0.0,0.0,-45,45,5188,-1,-1
"{'cat': 'II', 'resp': 'button'}",55,35,Right,63.8067364569709,42.99293122626981,3.190336822848545,0.6753313844837022,Right,Correct,0.0,0.0,-45,45,3248,-1,-1
"{'cat': 'II', 'resp': 'button'}",55,36,Right,78.55954764654255,58.297019205291974,3.927977382327128,0.9157274363076418,Left,Incorrect,0.0,0.0,-45,45,1416,-1,-1
"{'cat': 'II', 'resp': 'button'}",55,37,Right,62.89564736494403,36.57798485311197,3.144782368247202,0.5745656424882765,Left,Incorrect,0.0,0.0,-45,45,3947,-1,-1
"{'cat': 'II', 'resp': 'button'}",55,38,Right,49.415752947016614,19.119184730621573,2.470787647350831,0.3003234514617344,Left,Incorrect,0.0,0.0,-45,45,18347,-1,-1
"{'cat': 'II', 'resp': 'button'}",55,39,Right,54.81439699211322,37.453489530269124,2.7407198496056604,0.5883180377979785,Right,Correct,0.0,0.0,-45,45,351,-1,-1
"{'cat': 'II', 'resp': 'button'}",55,40,Left,60.436272629102945,77.97803441991095,3.0218136314551476,1.2248761003748212,Right,Incorrect,0.0,0.0,-45,45,5691,-1,-1
"{'cat': 'II', 'resp': 'button'}",55,41,Right,46.00624553264882,38.2803072252143,2.300312276632441,0.6013056597794676,Right,Correct,0.0,0.0,-45,45,7806,-1,-1
"{'cat': 'II', 'resp': 'button'}",55,42,Right,46.26875286281895,36.164726370119496,2.3134376431409476,0.5680741934172623,Right,Correct,0.0,0.0,-45,45,12901,-1,-1
"{'cat': 'II', 'resp': 'button'}",55,43,Left,26.199181747991773,37.62304864939265,1.3099590873995886,0.5909814662129166,Left,Correct,0.0,0.0,-45,45,24396,-1,-1
"{'cat': 'II', 'resp': 'button'}",55,44,Right,80.7732139460986,55.374115885768916,4.03866069730493,0.8698145783288076,Left,Incorrect,0.0,0.0,-45,45,19339,-1,-1
"{'cat': 'II', 'resp': 'button'}",55,45,Left,39.67162809910352,57.11403127976596,1.983581404955176,0.8971451054270521,Right,Incorrect,0.0,0.0,-45,45,1939,-1,-1
"{'cat': 'II', 'resp': 'button'}",55,46,Left,30.56856177701528,54.038131092145,1.528428088850764,0.8488289782640245,Left,Correct,0.0,0.0,-45,45,3544,-1,-1
"{'cat': 'II', 'resp': 'button'}",55,47,Right,52.37782526868441,29.445023805567658,2.6188912634342203,0.46252135236173963,Left,Incorrect,0.0,0.0,-45,45,2094,-1,-1
"{'cat': 'II', 'resp': 'button'}",55,48,Right,78.37343954196277,46.79159118507529,3.918671977098138,0.7350005955840473,Right,Correct,0.0,0.0,-45,45,3393,-1,-1
"{'cat': 'II', 'resp': 'button'}",55,49,Left,39.051502221534705,62.383966453657166,1.952575111076735,0.9799250535630072,Right,Incorrect,0.0,0.0,-45,45,3823,-1,-1
"{'cat': 'II', 'resp': 'button'}",55,50,Left,40.73571764265979,63.029041105410194,2.0367858821329894,0.9900578624978288,Left,Correct,0.0,0.0,-45,45,1642,-1,-1
"{'cat': 'II', 'resp': 'button'}",55,51,Left,31.296528219938303,40.99870760462561,1.564826410996915,0.644006193086839,Left,Correct,0.0,0.0,-45,45,14388,-1,-1
"{'cat': 'II', 'resp': 'button'}",55,52,Left,18.962815080290316,44.735947031874886,0.9481407540145157,0.7027106127336012,Right,Incorrect,0.0,0.0,-45,45,7516,-1,-1
"{'cat': 'II', 'resp': 'button'}",55,53,Right,78.88233005190082,63.25545686298656,3.944116502595041,0.9936143929011233,Right,Correct,0.0,0.0,-45,45,7668,-1,-1
"{'cat': 'II', 'resp': 'button'}",55,54,Right,34.66918174172718,17.35099297145897,1.733459087086359,0.2725487602581182,Left,Incorrect,0.0,0.0,-45,45,21689,-1,-1
"{'cat': 'II', 'resp': 'button'}",55,55,Right,79.350771861378,54.124333960815676,3.9675385930689004,0.8501830497586954,Right,Correct,0.0,0.0,-45,45,953,-1,-1
"{'cat': 'II', 'resp': 'button'}",55,56,Right,40.16577983044976,28.48974185609191,2.008288991522488,0.4475158185888399,Left,Incorrect,0.0,0.0,-45,45,4033,-1,-1
"{'cat': 'II', 'resp': 'button'}",55,57,Right,72.6406149023189,51.61458955889456,3.6320307451159453,0.8107600768813779,Left,Incorrect,0.0,0.0,-45,45,2509,-1,-1
"{'cat': 'II', 'resp': 'button'}",55,58,Right,80.19570736922614,66.33481191448413,4.009785368461308,1.0419847889390201,Right,Correct,0.0,0.0,-45,45,2685,-1,-1
"{'cat': 'II', 'resp': 'button'}",55,59,Left,47.17734338516629,77.81278129812485,2.3588671692583145,1.2222803104078914,Right,Incorrect,0.0,0.0,-45,45,1824,-1,-1
"{'cat': 'II', 'resp': 'button'}",55,60,Right,34.53419413376811,12.847575482996692,1.7267097066884054,0.20180924376911374,Left,Incorrect,0.0,0.0,-45,45,1290,-1,-1
"{'cat': 'II', 'resp': 'button'}",55,61,Right,71.72271649128491,60.744401388212765,3.586135824564246,0.9541708257395943,Right,Correct,0.0,0.0,-45,45,1302,-1,-1
"{'cat': 'II', 'resp': 'button'}",55,62,Right,40.14913099114725,22.19646532446456,2.0074565495573626,0.3486612619949922,Right,Correct,0.0,0.0,-45,45,1325,-1,-1
"{'cat': 'II', 'resp': 'button'}",55,63,Right,46.661201283247024,39.30412754119557,2.333060064162351,0.6173877916958812,Right,Correct,0.0,0.0,-45,45,1452,-1,-1
"{'cat': 'II', 'resp': 'button'}",55,64,Left,20.205377203338745,32.54583803280225,1.0102688601669372,0.5112288283438743,Left,Correct,0.0,0.0,-45,45,1155,-1,-1
"{'cat': 'II', 'resp': 'button'}",55,65,Right,44.61925274467373,28.912860046593927,2.2309626372336866,0.45416214358324664,Left,Incorrect,0.0,0.0,-45,45,1035,-1,-1
"{'cat': 'II', 'resp': 'button'}",55,66,Left,66.74964250147578,79.78070513812939,3.3374821250737887,1.2531923858008038,Right,Incorrect,0.0,0.0,-45,45,927,-1,-1
"{'cat': 'II', 'resp': 'button'}",55,67,Right,48.96050164182863,19.53288595658884,2.4480250820914313,0.30682185512313365,Right,Correct,0.0,0.0,-45,45,599,-1,-1
"{'cat': 'II', 'resp': 'button'}",55,68,Right,58.83932999845805,49.99533365038724,2.9419664999229025,0.7853248645491356,Left,Incorrect,0.0,0.0,-45,45,382,-1,-1
"{'cat': 'II', 'resp': 'button'}",55,69,Right,62.67235004662408,51.52352528522483,3.133617502331204,0.8093296426155514,Right,Correct,0.0,0.0,-45,45,5452,-1,-1
"{'cat': 'II', 'resp': 'button'}",55,70,Left,50.019588179232635,64.44121946225106,2.5009794089616317,1.0122403082548777,Right,Incorrect,0.0,0.0,-45,45,5549,-1,-1
"{'cat': 'II', 'resp': 'button'}",55,71,Left,55.16122591703166,73.6115568675331,2.7580612958515824,1.1562876313717465,Left,Correct,0.0,0.0,-45,45,5284,-1,-1
"{'cat': 'II', 'resp': 'button'}",55,72,Right,70.42470103924876,40.8626527284816,3.521235051962438,0.6418690480899436,Left,Incorrect,0.0,0.0,-45,45,1406,-1,-1
"{'cat': 'II', 'resp': 'button'}",55,73,Left,66.86538677366005,89.03313544287678,3.3432693386830024,1.3985292211670337,Right,Incorrect,0.0,0.0,-45,45,1229,-1,-1
"{'cat': 'II', 'resp': 'button'}",55,74,Left,20.133365254764026,47.077870498644884,1.0066682627382013,0.7394974605259721,Right,Incorrect,0.0,0.0,-45,45,6046,-1,-1
"{'cat': 'II', 'resp': 'button'}",55,75,Left,40.21878766112368,51.72421775646909,2.010939383056184,0.8124821125820101,Left,Correct,0.0,0.0,-45,45,2910,-1,-1
"{'cat': 'II', 'resp': 'button'}",55,76,Right,48.734122063614365,40.689573813266065,2.4367061031807182,0.6391503308472816,Right,Correct,0.0,0.0,-45,45,2730,-1,-1
"{'cat': 'II', 'resp': 'button'}",55,77,Left,31.906251606551706,59.725760343608364,1.5953125803275854,0.9381700496277231,Right,Incorrect,0.0,0.0,-45,45,5566,-1,-1
"{'cat': 'II', 'resp': 'button'}",55,78,Right,66.62293884425007,54.99528409327354,3.331146942212504,0.863863902447559,Left,Incorrect,0.0,0.0,-45,45,652,-1,-1
"{'cat': 'II', 'resp': 'button'}",55,79,Right,60.40258196372091,33.492371120719525,3.0201290981860454,0.526096935320777,Right,Correct,0.0,0.0,-45,45,1395,-1,-1
"{'cat': 'II', 'resp': 'button'}",55,80,Right,41.40425326658338,17.879837741560138,2.070212663329169,0.28085583448131424,Right,Correct,0.0,0.0,-45,45,632,-1,-1
"{'cat': 'II', 'resp': 'button'}",55,81,Left,34.44401125088756,48.78260410523069,1.7222005625443781,0.7662753533998602,Right,Incorrect,0.0,0.0,-45,45,3847,-1,-1
"{'cat': 'II', 'resp': 'button'}",55,82,Right,34.36795301162871,13.088816437670793,1.7183976505814353,0.20559864782385948,Left,Incorrect,0.0,0.0,-45,45,2206,-1,-1
"{'cat': 'II', 'resp': 'button'}",55,83,Left,11.014706284039793,31.759962609970668,0.5507353142019896,0.4988843260688518,Right,Incorrect,0.0,0.0,-45,45,15303,-1,-1
"{'cat': 'II', 'resp': 'button'}",55,84,Right,68.31889387391983,45.18615415877596,3.4159446936959914,0.7097824497459322,Right,Correct,0.0,0.0,-45,45,768,-1,-1
"{'cat': 'II', 'resp': 'button'}",55,85,Left,33.239213544437874,50.742039529922394,1.6619606772218936,0.7970540930768354,Left,Correct,0.0,0.0,-45,45,757,-1,-1
"{'cat': 'II', 'resp': 'button'}",55,86,Right,55.28586961640846,45.2717209985082,2.7642934808204234,0.7111265305214006,Right,Correct,0.0,0.0,-45,45,896,-1,-1
"{'cat': 'II', 'resp': 'button'}",55,87,Left,19.804597798025533,39.859460225316255,0.9902298899012766,0.6261109370995406,Right,Incorrect,0.0,0.0,-45,45,956,-1,-1
"{'cat': 'II', 'resp': 'button'}",55,88,Right,33.468049886215695,16.896974813633292,1.6734024943107846,0.26541705971201063,Left,Incorrect,0.0,0.0,-45,45,712,-1,-1
"{'cat': 'II', 'resp': 'button'}",55,89,Right,64.45130749890181,55.20323955142052,3.222565374945091,0.867130459145501,Right,Correct,0.0,0.0,-45,45,3156,-1,-1
"{'cat': 'II', 'resp': 'button'}",55,90,Right,35.88142727300709,22.94124478005576,1.7940713636503545,0.36036023032614184,Left,Incorrect,0.0,0.0,-45,45,746,-1,-1
"{'cat': 'II', 'resp': 'button'}",55,91,Right,89.10420114509137,64.80105819486567,4.455210057254568,1.0178926418491734,Left,Incorrect,0.0,0.0,-45,45,4236,-1,-1
"{'cat': 'II', 'resp': 'button'}",55,92,Right,63.37299260011207,47.11003436882202,3.1686496300056035,0.7400026894172695,Right,Correct,0.0,0.0,-45,45,1801,-1,-1
"{'cat': 'II', 'resp': 'button'}",55,93,Left,33.067226886596764,59.404180596550766,1.653361344329838,0.9331186867732261,Right,Incorrect,0.0,0.0,-45,45,501,-1,-1
"{'cat': 'II', 'resp': 'button'}",55,94,Left,38.51971429430211,46.44440567493997,1.9259857147151056,0.7295470183436776,Right,Incorrect,0.0,0.0,-45,45,7548,-1,-1
"{'cat': 'II', 'resp': 'button'}",55,95,Right,54.88120628890817,40.09188595445809,2.744060314445408,0.6297618719154268,Left,Incorrect,0.0,0.0,-45,45,374,-1,-1
"{'cat': 'II', 'resp': 'button'}",55,96,Left,43.49021819288886,70.96231498281094,2.174510909644443,1.1146734371586189,Left,Correct,0.0,0.0,-45,45,302,-1,-1
"{'cat': 'II', 'resp': 'button'}",55,97,Left,66.78255719553731,87.26451884342467,3.3391278597768657,1.3707478565877549,Right,Incorrect,0.0,0.0,-45,45,311,-1,-1
"{'cat': 'II', 'resp': 'button'}",55,98,Right,52.68192013899392,26.21371140789326,2.634096006949696,0.4117640159118021,Left,Incorrect,0.0,0.0,-45,45,652,-1,-1
"{'cat': 'II', 'resp': 'button'}",55,99,Right,87.38209411892274,61.98922657432473,4.369104705946137,0.9737244940380588,Left,Incorrect,0.0,0.0,-45,45,435,-1,-1
"{'cat': 'II', 'resp': 'button'}",55,100,Left,56.69256655425427,77.78379208460797,2.8346283277127133,1.2218249489068014,Right,Incorrect,0.0,0.0,-45,45,411,-1,-1
"{'cat': 'II', 'resp': 'button'}",55,101,Right,76.4251884022436,61.850566860495746,3.8212594201121806,0.9715464323464887,Left,Incorrect,0.0,0.0,-45,45,3591,-1,-1
"{'cat': 'II', 'resp': 'button'}",55,102,Left,30.192548105237677,58.4412316936194,1.5096274052618839,0.9179927207770686,Right,Incorrect,0.0,0.0,-45,45,4961,-1,-1
"{'cat': 'II', 'resp': 'button'}",55,103,Right,44.444818489168725,20.507181610095383,2.2222409244584362,0.3221260554605368,Left,Incorrect,0.0,0.0,-45,45,5751,-1,-1
"{'cat': 'II', 'resp': 'button'}",55,104,Right,60.24061459317067,47.411112096239115,3.0120307296585334,0.744732007300335,Right,Correct,0.0,0.0,-45,45,689,-1,-1
"{'cat': 'II', 'resp': 'button'}",55,105,Left,37.42295159966308,69.29032495840259,1.8711475799831538,1.0884098792708352,Left,Correct,0.0,0.0,-45,45,4054,-1,-1
"{'cat': 'II', 'resp': 'button'}",55,106,Right,83.84458927315146,56.22382321313459,4.192229463657572,0.8831617498155745,Right,Correct,0.0,0.0,-45,45,3505,-1,-1
"{'cat': 'II', 'resp': 'button'}",55,107,Right,58.74678441045221,41.81870731967855,2.9373392205226105,0.6568867184906192,Right,Correct,0.0,0.0,-45,45,5125,-1,-1
"{'cat': 'II', 'resp': 'button'}",55,108,Left,59.06586158491073,72.25042531061655,2.9532930792455363,1.134907026872855,Right,Incorrect,0.0,0.0,-45,45,1043,-1,-1
"{'cat': 'II', 'resp': 'button'}",55,109,Right,77.32483676376238,53.41297206317047,3.866241838188119,0.8390090032002661,Right,Correct,0.0,0.0,-45,45,1347,-1,-1
"{'cat': 'II', 'resp': 'button'}",55,110,Right,41.63065791247118,31.227441777439736,2.081532895623559,0.49051950839203834,Right,Correct,0.0,0.0,-45,45,962,-1,-1
"{'cat': 'II', 'resp': 'button'}",55,111,Right,37.68485314778799,11.94971766573794,1.8842426573893993,0.1877057261557724,Left,Incorrect,0.0,0.0,-45,45,6567,-1,-1
"{'cat': 'II', 'resp': 'button'}",55,112,Right,86.91893339081163,62.786046727791245,4.345946669540582,0.9862409157398724,Right,Correct,0.0,0.0,-45,45,1126,-1,-1
"{'cat': 'II', 'resp': 'button'}",55,113,Left,30.62174902366539,63.310496310344035,1.5310874511832697,0.9944789505185027,Right,Incorrect,0.0,0.0,-45,45,933,-1,-1
"{'cat': 'II', 'resp': 'button'}",55,114,Right,33.31278475034925,20.158497671868535,1.6656392375174625,0.3166489409667457,Left,Incorrect,0.0,0.0,-45,45,1110,-1,-1
"{'cat': 'II', 'resp': 'button'}",55,115,Left,21.538076881672218,34.48097670370077,1.076903844083611,0.5416259155047356,Left,Correct,0.0,0.0,-45,45,313,-1,-1
"{'cat': 'II', 'resp': 'button'}",55,116,Right,52.41163919648067,35.9610295475481,2.620581959824033,0.564874531210513,Left,Incorrect,0.0,0.0,-45,45,4826,-1,-1
"{'cat': 'II', 'resp': 'button'}",55,117,Right,56.96424416057647,24.411463845740222,2.8482122080288237,0.38345437740575156,Left,Incorrect,0.0,0.0,-45,45,1362,-1,-1
"{'cat': 'II', 'resp': 'button'}",55,118,Left,59.933206847747435,75.101423733397,2.9966603423873717,1.1796904053748707,Left,Correct,0.0,0.0,-45,45,1607,-1,-1
"{'cat': 'II', 'resp': 'button'}",55,119,Right,54.13547362889068,38.20083916164931,2.706773681444534,0.6000573783560138,Right,Correct,0.0,0.0,-45,45,492,-1,-1
"{'cat': 'II', 'resp': 'button'}",55,120,Right,69.19372949352994,41.26578619776434,3.459686474676497,0.6482014538175178,Left,Incorrect,0.0,0.0,-45,45,427,-1,-1
"{'cat': 'II', 'resp': 'button'}",55,121,Left,43.36012336821425,52.36410713232339,2.1680061684107126,0.8225334713934802,Left,Correct,0.0,0.0,-45,45,444,-1,-1
"{'cat': 'II', 'resp': 'button'}",55,122,Left,16.776684998534872,44.117343200673034,0.8388342499267436,0.69299360647567,Right,Incorrect,0.0,0.0,-45,45,391,-1,-1
"{'cat': 'II', 'resp': 'button'}",55,123,Left,44.735555772734706,59.99647934597335,2.236777788636735,0.9424224937728081,Right,Incorrect,0.0,0.0,-45,45,559,-1,-1
"{'cat': 'II', 'resp': 'button'}",55,124,Right,46.87091916987694,38.52956467222827,2.343545958493847,0.6052209866014258,Right,Correct,0.0,0.0,-45,45,614,-1,-1
"{'cat': 'II', 'resp': 'button'}",55,125,Right,62.05254833206508,42.907925265993555,3.1026274166032537,0.6739961139821261,Right,Correct,0.0,0.0,-45,45,728,-1,-1
"{'cat': 'II', 'resp': 'button'}",55,126,Right,44.293596000556335,19.62787018941981,2.2146798000278167,0.3083138639634769,Left,Incorrect,0.0,0.0,-45,45,2756,-1,-1
"{'cat': 'II', 'resp': 'button'}",55,127,Right,63.06284834127302,50.474127779364835,3.1531424170636506,0.7928457451400254,Left,Incorrect,0.0,0.0,-45,45,454,-1,-1
"{'cat': 'II', 'resp': 'button'}",55,128,Left,55.02457099143086,71.53689673924349,2.7512285495715436,1.1236989462830949,Right,Incorrect,0.0,0.0,-45,45,554,-1,-1
"{'cat': 'II', 'resp': 'button'}",55,129,Right,58.39632116210652,28.030724320294393,2.919816058105326,0.44030558799718805,Left,Incorrect,0.0,0.0,-45,45,532,-1,-1
"{'cat': 'II', 'resp': 'button'}",55,130,Left,17.258610905963767,37.71315091718944,0.8629305452981884,0.5923967893258275,Right,Incorrect,0.0,0.0,-45,45,319,-1,-1
"{'cat': 'II', 'resp': 'button'}",55,131,Left,21.351154174137868,33.823125585216076,1.0675577087068933,0.531292414299799,Left,Correct,0.0,0.0,-45,45,311,-1,-1
"{'cat': 'II', 'resp': 'button'}",55,132,Left,30.971591363420536,61.474976403192926,1.5485795681710268,0.965646671239384,Right,Incorrect,0.0,0.0,-45,45,2246,-1,-1
"{'cat': 'II', 'resp': 'button'}",55,133,Right,47.95624331257233,28.799664183392338,2.3978121656286167,0.4523840671219923,Right,Correct,0.0,0.0,-45,45,3031,-1,-1
"{'cat': 'II', 'resp': 'button'}",55,134,Right,72.03980499708496,60.52665685898211,3.6019902498542478,0.9507505026726422,Right,Correct,0.0,0.0,-45,45,15883,-1,-1
"{'cat': 'II', 'resp': 'button'}",55,135,Left,27.152293779047028,50.01651131050741,1.3576146889523515,0.7856575224564044,Right,Incorrect,0.0,0.0,-45,45,23587,-1,-1
"{'cat': 'II', 'resp': 'button'}",55,136,Right,77.90087785052444,52.63690038923331,3.895043892526222,0.8268184978527655,Right,Correct,0.0,0.0,-45,45,2383,-1,-1
"{'cat': 'II', 'resp': 'button'}",55,137,Right,71.29293736907894,58.800309130549664,3.5646468684539467,0.9236330959667183,Left,Incorrect,0.0,0.0,-45,45,8734,-1,-1
"{'cat': 'II', 'resp': 'button'}",55,138,Right,70.77006916485982,60.22220881952832,3.538503458242991,0.945968244051903,Right,Correct,0.0,0.0,-45,45,2232,-1,-1
"{'cat': 'II', 'resp': 'button'}",55,139,Left,47.22612094299244,54.36618260229015,2.361306047149622,0.8539819993353799,Right,Incorrect,0.0,0.0,-45,45,2403,-1,-1
"{'cat': 'II', 'resp': 'button'}",55,140,Left,55.699789803708725,74.41600299051848,2.784989490185436,1.1689238415226448,Left,Correct,0.0,0.0,-45,45,6296,-1,-1
"{'cat': 'II', 'resp': 'button'}",55,141,Right,76.96347739515562,60.252748976374505,3.848173869757781,0.9464479677138404,Left,Incorrect,0.0,0.0,-45,45,3601,-1,-1
"{'cat': 'II', 'resp': 'button'}",55,142,Left,35.46839498622292,54.00819362236263,1.7734197493111459,0.8483587215883478,Right,Incorrect,0.0,0.0,-45,45,11079,-1,-1
"{'cat': 'II', 'resp': 'button'}",55,143,Right,54.71369607412623,32.6491990897292,2.7356848037063117,0.5128524200294191,Right,Correct,0.0,0.0,-45,45,2834,-1,-1
"{'cat': 'II', 'resp': 'button'}",55,144,Right,44.443734606320646,28.420001499760914,2.2221867303160323,0.446420339633299,Right,Correct,0.0,0.0,-45,45,5521,-1,-1
"{'cat': 'II', 'resp': 'button'}",55,145,Left,24.18903763501794,41.029010283450326,1.209451881750897,0.6444821864527381,Left,Correct,0.0,0.0,-45,45,3817,-1,-1
"{'cat': 'II', 'resp': 'button'}",55,146,Left,28.522540341960454,43.25971119908591,1.4261270170980227,0.6795219544973221,Right,Incorrect,0.0,0.0,-45,45,2741,-1,-1
"{'cat': 'II', 'resp': 'button'}",55,147,Right,70.7670721748062,39.60437247746404,3.5383536087403105,0.622104028126174,Right,Correct,0.0,0.0,-45,45,3126,-1,-1
"{'cat': 'II', 'resp': 'button'}",55,148,Left,53.47529650247348,78.3471203068689,2.6737648251236745,1.2306736879298752,Left,Correct,0.0,0.0,-45,45,1209,-1,-1
"{'cat': 'II', 'resp': 'button'}",55,149,Left,57.11085431530255,81.40511202839535,2.8555427157651274,1.2787085095653046,Right,Incorrect,0.0,0.0,-45,45,904,-1,-1
"{'cat': 'II', 'resp': 'button'}",55,150,Right,31.181919336320036,16.762018804643233,1.5590959668160018,0.2632971756800057,Left,Incorrect,0.0,0.0,-45,45,587,-1,-1
"{'cat': 'II', 'resp': 'button'}",55,151,Right,61.756252116063244,31.68500255674129,3.087812605803162,0.4977068563061612,Left,Incorrect,0.0,0.0,-45,45,1403,-1,-1
"{'cat': 'II', 'resp': 'button'}",55,152,Left,48.190735965086276,79.83024890047179,2.409536798254314,1.2539706173998342,Right,Incorrect,0.0,0.0,-45,45,949,-1,-1
"{'cat': 'II', 'resp': 'button'}",55,153,Left,15.850352316557792,30.731161383833165,0.7925176158278896,0.4827239541986631,Left,Correct,0.0,0.0,-45,45,553,-1,-1
"{'cat': 'II', 'resp': 'button'}",55,154,Right,38.84652370990872,16.046358166069975,1.9423261854954361,0.25205560465698007,Left,Incorrect,0.0,0.0,-45,45,1534,-1,-1
"{'cat': 'II', 'resp': 'button'}",55,155,Left,29.884980840125507,48.56745215915762,1.4942490420062753,0.7628957545339167,Right,Incorrect,0.0,0.0,-45,45,10373,-1,-1
"{'cat': 'II', 'resp': 'button'}",55,156,Right,48.48895856906233,25.026634231284405,2.424447928453117,0.39311745122540964,Left,Incorrect,0.0,0.0,-45,45,11615,-1,-1
"{'cat': 'II', 'resp': 'button'}",55,157,Right,60.18676565576305,51.06887584234295,3.009338282788152,0.8021880258669692,Right,Correct,0.0,0.0,-45,45,1742,-1,-1
"{'cat': 'II', 'resp': 'button'}",55,158,Left,53.712945781760176,69.67937102068491,2.6856472890880085,1.0945210005267063,Right,Incorrect,0.0,0.0,-45,45,710,-1,-1
"{'cat': 'II', 'resp': 'button'}",55,159,Right,52.09798526438119,33.88648469123876,2.6048992632190595,0.5322876568098935,Left,Incorrect,0.0,0.0,-45,45,7233,-1,-1
"{'cat': 'II', 'resp': 'button'}",55,160,Left,59.092409166213635,68.16763410867463,2.9546204583106817,1.070774692642046,Left,Correct,0.0,0.0,-45,45,3781,-1,-1
"{'cat': 'II', 'resp': 'button'}",55,161,Left,22.674752135253755,46.0565113217546,1.1337376067626876,0.7234539880919968,Right,Incorrect,0.0,0.0,-45,45,1485,-1,-1
"{'cat': 'II', 'resp': 'button'}",55,162,Right,62.893329220564674,38.27511916320085,3.1446664610282333,0.6012241658919285,Left,Incorrect,0.0,0.0,-45,45,2241,-1,-1
"{'cat': 'II', 'resp': 'button'}",55,163,Right,61.66177797422053,46.95309253772125,3.083088898711026,0.7375374528991341,Right,Correct,0.0,0.0,-45,45,3272,-1,-1
"{'cat': 'II', 'resp': 'button'}",55,164,Right,88.37910618299583,68.77449388367845,4.4189553091497915,1.0803072236966018,Right,Correct,0.0,0.0,-45,45,1002,-1,-1
"{'cat': 'II', 'resp': 'button'}",55,165,Left,34.01632888955611,58.776831086444936,1.7008164444778056,0.9232643037123179,Right,Incorrect,0.0,0.0,-45,45,1378,-1,-1
"{'cat': 'II', 'resp': 'button'}",55,166,Left,48.323718399994654,59.54707514462452,2.4161859199997324,0.9353632690855589,Left,Correct,0.0,0.0,-45,45,650,-1,-1
"{'cat': 'II', 'resp': 'button'}",55,167,Left,16.24848941260965,33.21321100486475,0.8124244706304825,0.521711898475054,Right,Incorrect,0.0,0.0,-45,45,9427,-1,-1
"{'cat': 'II', 'resp': 'button'}",55,168,Right,80.87227551215139,61.21258368599777,4.04361377560757,0.9615250160759051,Right,Correct,0.0,0.0,-45,45,16829,-1,-1
"{'cat': 'II', 'resp': 'button'}",55,169,Left,39.42160297059796,68.79121489377387,1.971080148529898,1.0805698767089837,Left,Correct,0.0,0.0,-45,45,5868,-1,-1
"{'cat': 'II', 'resp': 'button'}",55,170,Left,36.89434388408811,50.811371403450664,1.8447171942044054,0.7981431555995155,Left,Correct,0.0,0.0,-45,45,6312,-1,-1
"{'cat': 'II', 'resp': 'button'}",55,171,Right,62.92033638538966,31.395178905049,3.146016819269483,0.493154317031196,Right,Correct,0.0,0.0,-45,45,8013,-1,-1
"{'cat': 'II', 'resp': 'button'}",55,172,Left,34.17050332221026,50.73963561261043,1.708525166110513,0.7970163324319998,Left,Correct,0.0,0.0,-45,45,9472,-1,-1
"{'cat': 'II', 'resp': 'button'}",55,173,Right,62.95336579065088,54.6480611402305,3.147668289532544,0.85840973705537,Left,Incorrect,0.0,0.0,-45,45,6143,-1,-1
"{'cat': 'II', 'resp': 'button'}",55,174,Right,72.5165478020087,41.879115613173354,3.6258273901004348,0.6578356097459152,Left,Incorrect,0.0,0.0,-45,45,10370,-1,-1
"{'cat': 'II', 'resp': 'button'}",55,175,Right,57.433370381122344,42.60248471947553,2.8716685190561173,0.6691982650968787,Right,Correct,0.0,0.0,-45,45,10447,-1,-1
"{'cat': 'II', 'resp': 'button'}",55,176,Right,48.40186466742626,25.551351009173693,2.420093233371313,0.40135968309857106,Right,Correct,0.0,0.0,-45,45,4942,-1,-1
"{'cat': 'II', 'resp': 'button'}",55,177,Right,63.96807563837664,36.42464499522126,3.198403781918832,0.5721569856330166,Right,Correct,0.0,0.0,-45,45,14010,-1,-1
"{'cat': 'II', 'resp': 'button'}",55,178,Right,80.44615652954768,66.13727353348014,4.022307826477384,1.0388818633061991,Left,Incorrect,0.0,0.0,-45,45,8863,-1,-1
"{'cat': 'II', 'resp': 'button'}",55,179,Left,55.41735557904363,75.05818502509581,2.7708677789521814,1.179011213333122,Left,Correct,0.0,0.0,-45,45,8240,-1,-1
"{'cat': 'II', 'resp': 'button'}",55,180,Right,77.21902608477237,63.19164769948833,3.8609513042386188,0.9926120809047344,Right,Correct,0.0,0.0,-45,45,2869,-1,-1
"{'cat': 'II', 'resp': 'button'}",55,181,Left,40.401114606318714,68.65165231563333,2.020055730315936,1.078377632857972,Right,Incorrect,0.0,0.0,-45,45,8481,-1,-1
"{'cat': 'II', 'resp': 'button'}",55,182,Left,24.95320164226229,55.7263884842409,1.2476600821131145,0.8753480633659103,Left,Correct,0.0,0.0,-45,45,6046,-1,-1
"{'cat': 'II', 'resp': 'button'}",55,183,Left,42.84631897679567,66.46752676433954,2.1423159488397836,1.0440694689256602,Left,Correct,0.0,0.0,-45,45,8450,-1,-1
"{'cat': 'II', 'resp': 'button'}",55,184,Right,81.38989226817282,62.353217635184535,4.069494613408641,0.9794420522519063,Right,Correct,0.0,0.0,-45,45,2835,-1,-1
"{'cat': 'II', 'resp': 'button'}",55,185,Right,64.72692863284641,32.013279726123955,3.2363464316423203,0.5028634220245304,Right,Correct,0.0,0.0,-45,45,5343,-1,-1
"{'cat': 'II', 'resp': 'button'}",55,186,Right,64.62592232274633,52.5463938932374,3.2312961161373166,0.8253968251381509,Right,Correct,0.0,0.0,-45,45,2192,-1,-1
"{'cat': 'II', 'resp': 'button'}",55,187,Right,43.41320911125982,16.33439854476844,2.1706604555629907,0.25658013234526167,Left,Incorrect,0.0,0.0,-45,45,11043,-1,-1
"{'cat': 'II', 'resp': 'button'}",55,188,Right,61.33570765544245,32.79870990663558,3.0667853827721223,0.5152009304495455,Right,Correct,0.0,0.0,-45,45,4017,-1,-1
"{'cat': 'II', 'resp': 'button'}",55,189,Left,23.516601367599133,44.5249412078279,1.1758300683799567,0.699396141000148,Left,Correct,0.0,0.0,-45,45,1400,-1,-1
"{'cat': 'II', 'resp': 'button'}",55,190,Left,44.721192122177136,70.99559229228893,2.236059606108857,1.1151961559135553,Right,Incorrect,0.0,0.0,-45,45,1227,-1,-1
"{'cat': 'II', 'resp': 'button'}",55,191,Right,79.0144991530512,57.385775300008675,3.95072495765256,0.9014136505153093,Right,Correct,0.0,0.0,-45,45,1143,-1,-1
"{'cat': 'II', 'resp': 'button'}",55,192,Right,44.14016398678357,26.544771840268893,2.2070081993391786,0.41696430102302984,Right,Correct,0.0,0.0,-45,45,1363,-1,-1
"{'cat': 'II', 'resp': 'button'}",55,193,Left,38.1444157275475,50.635978678940745,1.9072207863773754,0.7953880931254482,Right,Incorrect,0.0,0.0,-45,45,1988,-1,-1
"{'cat': 'II', 'resp': 'button'}",55,194,Left,34.76113490026232,61.63780202320096,1.7380567450131161,0.9682043300975511,Left,Correct,0.0,0.0,-45,45,2123,-1,-1
"{'cat': 'II', 'resp': 'button'}",55,195,Right,77.63960045713559,49.30953754909708,3.8819800228567796,0.7745524045807671,Right,Correct,0.0,0.0,-45,45,1105,-1,-1
"{'cat': 'II', 'resp': 'button'}",55,196,Left,25.898952230755807,40.51430323681319,1.2949476115377903,0.6363971870704076,Left,Correct,0.0,0.0,-45,45,874,-1,-1
"{'cat': 'II', 'resp': 'button'}",55,197,Right,52.905865780489,37.283257859102,2.64529328902445,0.5856440449602438,Right,Correct,0.0,0.0,-45,45,910,-1,-1
"{'cat': 'II', 'resp': 'button'}",55,198,Left,44.57076560102308,62.11179481496486,2.228538280051154,0.9756497914598512,Right,Incorrect,0.0,0.0,-45,45,1640,-1,-1
"{'cat': 'II', 'resp': 'button'}",55,199,Left,51.35229766726221,69.14253884022912,2.56761488336311,1.0860884603550538,Right,Incorrect,0.0,0.0,-45,45,1086,-1,-1
"{'cat': 'II', 'resp': 'button'}",55,200,Left,28.634519330251454,55.719227378255916,1.4317259665125726,0.8752355769761402,Left,Correct,0.0,0.0,-45,45,711,-1,-1
"{'cat': 'II', 'resp': 'button'}",55,201,Left,22.89769123607373,43.89601403204381,1.1448845618036865,0.6895169760247165,Left,Correct,0.0,0.0,-45,45,1302,-1,-1
"{'cat': 'II', 'resp': 'button'}",55,202,Left,19.20721028769135,41.55142986462954,0.9603605143845675,0.6526883340443584,Left,Correct,0.0,0.0,-45,45,1692,-1,-1
"{'cat': 'II', 'resp': 'button'}",55,203,Left,30.34658262293761,58.80575338951179,1.5173291311468804,0.9237186141865166,Left,Correct,0.0,0.0,-45,45,2104,-1,-1
"{'cat': 'II', 'resp': 'button'}",55,204,Right,42.326099521744865,29.092559653639512,2.1163049760872434,0.4569848584099835,Right,Correct,0.0,0.0,-45,45,818,-1,-1
"{'cat': 'II', 'resp': 'button'}",55,205,Right,58.22770430425933,26.600044779338955,2.9113852152129662,0.417832526319654,Right,Correct,0.0,0.0,-45,45,1884,-1,-1
"{'cat': 'II', 'resp': 'button'}",55,206,Left,53.36456933383979,81.58825045292602,2.6682284666919895,1.2815852412107824,Right,Incorrect,0.0,0.0,-45,45,3214,-1,-1
"{'cat': 'II', 'resp': 'button'}",55,207,Right,66.58277310602124,38.33331629670899,3.329138655301062,0.6021383243273744,Right,Correct,0.0,0.0,-45,45,907,-1,-1
"{'cat': 'II', 'resp': 'button'}",55,208,Left,39.567007049779825,67.67035906868165,1.9783503524889912,1.0629635145797687,Right,Incorrect,0.0,0.0,-45,45,981,-1,-1
"{'cat': 'II', 'resp': 'button'}",55,209,Left,39.201482247034164,47.78982050116118,1.9600741123517083,0.7506807450141143,Right,Incorrect,0.0,0.0,-45,45,2256,-1,-1
"{'cat': 'II', 'resp': 'button'}",55,210,Left,37.82837596128562,52.672190757500836,1.8914187980642811,0.8273728376612242,Left,Correct,0.0,0.0,-45,45,982,-1,-1
"{'cat': 'II', 'resp': 'button'}",55,211,Right,41.29398340739391,16.18538752613422,2.0646991703696953,0.2542394727380357,Right,Correct,0.0,0.0,-45,45,1845,-1,-1
"{'cat': 'II', 'resp': 'button'}",55,212,Right,37.584129738777584,21.59948335363905,1.8792064869388794,0.3392838911256374,Left,Incorrect,0.0,0.0,-45,45,3055,-1,-1
"{'cat': 'II', 'resp': 'button'}",55,213,Right,48.66669037082598,20.942144968212915,2.433334518541299,0.32895844391275075,Right,Correct,0.0,0.0,-45,45,728,-1,-1
"{'cat': 'II', 'resp': 'button'}",55,214,Right,60.278673132492315,33.217923686421486,3.0139336566246158,0.5217859251038406,Right,Correct,0.0,0.0,-45,45,904,-1,-1
"{'cat': 'II', 'resp': 'button'}",55,215,Left,48.93818788972746,68.0842612217886,2.446909394486373,1.0694650743972973,Left,Correct,0.0,0.0,-45,45,1560,-1,-1
"{'cat': 'II', 'resp': 'button'}",55,216,Left,52.88595662961899,71.1033244351398,2.6442978314809493,1.116888408456234,Right,Incorrect,0.0,0.0,-45,45,1367,-1,-1
"{'cat': 'II', 'resp': 'button'}",55,217,Right,48.66793569644839,26.27913230697694,2.433396784822419,0.4127916449915647,Left,Incorrect,0.0,0.0,-45,45,3047,-1,-1
"{'cat': 'II', 'resp': 'button'}",55,218,Left,30.414713288244492,57.34128184275596,1.5207356644122245,0.9007147489231196,Right,Incorrect,0.0,0.0,-45,45,2409,-1,-1
"{'cat': 'II', 'resp': 'button'}",55,219,Right,51.05260607456081,20.800533754745484,2.5526303037280407,0.32673402017327463,Right,Correct,0.0,0.0,-45,45,1058,-1,-1
"{'cat': 'II', 'resp': 'button'}",55,220,Right,68.61809053503035,43.219742989937025,3.430904526751517,0.6788941353361255,Right,Correct,0.0,0.0,-45,45,1016,-1,-1
"{'cat': 'II', 'resp': 'button'}",55,221,Left,61.814705138277574,87.59790711277165,3.090735256913879,1.3759847072766225,Left,Correct,0.0,0.0,-45,45,1931,-1,-1
"{'cat': 'II', 'resp': 'button'}",55,222,Right,41.424296289571245,22.8086394619364,2.0712148144785623,0.35827727085998823,Right,Correct,0.0,0.0,-45,45,1547,-1,-1
"{'cat': 'II', 'resp': 'button'}",55,223,Left,63.21699940746671,79.34806000296028,3.1608499703733357,1.2463964119095106,Left,Correct,0.0,0.0,-45,45,1316,-1,-1
"{'cat': 'II', 'resp': 'button'}",55,224,Right,42.314555414191005,32.638894679444064,2.11572777070955,0.5126905587311623,Right,Correct,0.0,0.0,-45,45,1957,-1,-1
"{'cat': 'II', 'resp': 'button'}",55,225,Left,34.26387872191392,58.745478527620705,1.713193936095696,0.9227718188699507,Left,Correct,0.0,0.0,-45,45,1712,-1,-1
"{'cat': 'II', 'resp': 'button'}",55,226,Left,66.92426686537415,81.40206211243928,3.3462133432687073,1.2786606015974964,Right,Incorrect,0.0,0.0,-45,45,4554,-1,-1
"{'cat': 'II', 'resp': 'button'}",55,227,Left,18.75663413929154,40.843082366989165,0.9378317069645769,0.6415616375704799,Left,Correct,0.0,0.0,-45,45,909,-1,-1
"{'cat': 'II', 'resp': 'button'}",55,228,Right,52.39560402843733,44.78534410404488,2.6197802014218667,0.7034865401287919,Left,Incorrect,0.0,0.0,-45,45,1037,-1,-1
"{'cat': 'II', 'resp': 'button'}",55,229,Left,23.533704855883094,43.27341225090106,1.1766852427941545,0.6797371701159666,Left,Correct,0.0,0.0,-45,45,782,-1,-1
"{'cat': 'II', 'resp': 'button'}",55,230,Right,83.29049598615792,52.924472558683306,4.1645247993078955,0.8313356709273704,Right,Correct,0.0,0.0,-45,45,648,-1,-1
"{'cat': 'II', 'resp': 'button'}",55,231,Left,35.378438392530505,61.266804404917494,1.7689219196265253,0.962376713137058,Left,Correct,0.0,0.0,-45,45,1292,-1,-1
"{'cat': 'II', 'resp': 'button'}",55,232,Left,60.02146192706073,78.45943156815778,3.0010730963530365,1.2324378690967779,Right,Incorrect,0.0,0.0,-45,45,945,-1,-1
"{'cat': 'II', 'resp': 'button'}",55,233,Left,36.68637982396454,46.61154123514322,1.8343189911982274,0.7321723775841184,Right,Incorrect,0.0,0.0,-45,45,3004,-1,-1
"{'cat': 'II', 'resp': 'button'}",55,234,Right,86.04538827160583,67.22109148022096,4.302269413580292,1.055906435802748,Right,Correct,0.0,0.0,-45,45,901,-1,-1
"{'cat': 'II', 'resp': 'button'}",55,235,Right,54.844524942116955,29.425941557027024,2.742226247105848,0.46222160910259347,Right,Correct,0.0,0.0,-45,45,5146,-1,-1
"{'cat': 'II', 'resp': 'button'}",55,236,Right,73.51873275129535,59.00629227876418,3.6759366375647677,0.9268686716926884,Right,Correct,0.0,0.0,-45,45,1320,-1,-1
"{'cat': 'II', 'resp': 'button'}",55,237,Left,28.86960049697624,46.43692915354946,1.443480024848812,0.7294295774203032,Left,Correct,0.0,0.0,-45,45,888,-1,-1
"{'cat': 'II', 'resp': 'button'}",55,238,Right,84.98418071332759,64.33223900748851,4.24920903566638,1.0105284472745433,Right,Correct,0.0,0.0,-45,45,794,-1,-1
"{'cat': 'II', 'resp': 'button'}",55,239,Right,57.514372020614616,36.71724401306037,2.8757186010307305,0.5767531202574715,Left,Incorrect,0.0,0.0,-45,45,640,-1,-1
"{'cat': 'II', 'resp': 'button'}",55,240,Right,81.27479357635448,51.50190380742562,4.063739678817724,0.8089900132364826,Right,Correct,0.0,0.0,-45,45,1353,-1,-1
"{'cat': 'II', 'resp': 'button'}",55,241,Right,35.525675982834336,18.53236114300377,1.7762837991417169,0.2911056481026679,Left,Incorrect,0.0,0.0,-45,45,578,-1,-1
"{'cat': 'II', 'resp': 'button'}",55,242,Left,42.9406163078836,62.432329285446926,2.14703081539418,0.980684735148295,Right,Incorrect,0.0,0.0,-45,45,675,-1,-1
"{'cat': 'II', 'resp': 'button'}",55,243,Left,38.913580241006585,69.58658354417548,1.9456790120503291,1.0930634982539704,Left,Correct,0.0,0.0,-45,45,4703,-1,-1
"{'cat': 'II', 'resp': 'button'}",55,244,Right,58.006296305612636,36.00834625374319,2.9003148152806317,0.5656177802933858,Right,Correct,0.0,0.0,-45,45,3221,-1,-1
"{'cat': 'II', 'resp': 'button'}",55,245,Left,44.99243019160721,76.44034138237636,2.2496215095803604,1.2007220746238472,Left,Correct,0.0,0.0,-45,45,2376,-1,-1
"{'cat': 'II', 'resp': 'button'}",55,246,Left,42.03396624138911,58.32392881398066,2.1016983120694555,0.9161501314524785,Right,Incorrect,0.0,0.0,-45,45,827,-1,-1
"{'cat': 'II', 'resp': 'button'}",55,247,Left,33.44787615430418,50.27365191781703,1.6723938077152092,0.7896966776707218,Left,Correct,0.0,0.0,-45,45,589,-1,-1
"{'cat': 'II', 'resp': 'button'}",55,248,Right,76.36970580507352,55.93679224584283,3.818485290253676,0.8786530779245917,Right,Correct,0.0,0.0,-45,45,644,-1,-1
"{'cat': 'II', 'resp': 'button'}",55,249,Left,34.28442667160748,54.160499070034476,1.714221333580374,0.8507511299658858,Left,Correct,0.0,0.0,-45,45,583,-1,-1
"{'cat': 'II', 'resp': 'button'}",55,250,Left,46.30810011782915,66.79076137219582,2.3154050058914577,1.0491468262727965,Right,Incorrect,0.0,0.0,-45,45,848,-1,-1
"{'cat': 'II', 'resp': 'button'}",55,251,Right,74.50091346626573,50.75292012220624,3.7250456733132866,0.7972250050207635,Right,Correct,0.0,0.0,-45,45,800,-1,-1
"{'cat': 'II', 'resp': 'button'}",55,252,Right,68.28616234763464,45.20957848645933,3.4143081173817325,0.7101503982247589,Right,Correct,0.0,0.0,-45,45,1628,-1,-1
"{'cat': 'II', 'resp': 'button'}",55,253,Left,24.83662195480931,51.53116000720304,1.2418310977404656,0.8094495685479461,Left,Correct,0.0,0.0,-45,45,685,-1,-1
"{'cat': 'II', 'resp': 'button'}",55,254,Right,64.58556255163401,35.92940621001139,3.2292781275817,0.5643777929860764,Left,Incorrect,0.0,0.0,-45,45,2495,-1,-1
"{'cat': 'II', 'resp': 'button'}",55,255,Right,78.32110528111164,52.97779536533258,3.916055264055582,0.8321732636155611,Right,Correct,0.0,0.0,-45,45,3784,-1,-1
"{'cat': 'II', 'resp': 'button'}",55,256,Right,61.699766730790294,51.3269942760091,3.0849883365395145,0.8062425407417777,Left,Incorrect,0.0,0.0,-45,45,704,-1,-1
"{'cat': 'II', 'resp': 'button'}",55,257,Left,55.003967718585365,84.12970776677732,2.7501983859292682,1.3215063593438188,Left,Correct,0.0,0.0,-45,45,715,-1,-1
"{'cat': 'II', 'resp': 'button'}",55,258,Left,41.966446986094766,48.77718303861258,2.098322349304738,0.7661901994845497,Right,Incorrect,0.0,0.0,-45,45,649,-1,-1
"{'cat': 'II', 'resp': 'button'}",55,259,Right,82.85151137464466,67.68281220307847,4.142575568732233,1.0631591279574446,Right,Correct,0.0,0.0,-45,45,732,-1,-1
"{'cat': 'II', 'resp': 'button'}",55,260,Left,49.90189250618424,71.06038309799555,2.4950946253092123,1.1162138875096956,Left,Correct,0.0,0.0,-45,45,756,-1,-1
"{'cat': 'II', 'resp': 'button'}",55,261,Left,46.49718471696253,77.71599718940287,2.3248592358481264,1.220760029183165,Left,Correct,0.0,0.0,-45,45,820,-1,-1
"{'cat': 'II', 'resp': 'button'}",55,262,Right,38.7219598193101,12.398513073229608,1.936097990965505,0.1947553879314757,Right,Correct,0.0,0.0,-45,45,836,-1,-1
"{'cat': 'II', 'resp': 'button'}",55,263,Left,59.13970694276352,84.76465339635742,2.956985347138176,1.331480061970408,Left,Correct,0.0,0.0,-45,45,507,-1,-1
"{'cat': 'II', 'resp': 'button'}",55,264,Right,58.163633662490525,46.83862671859207,2.908181683124526,0.7357394280168174,Right,Correct,0.0,0.0,-45,45,984,-1,-1
"{'cat': 'II', 'resp': 'button'}",55,265,Left,57.10544436598329,78.69405393936154,2.8552722182991648,1.2361233086854857,Left,Correct,0.0,0.0,-45,45,593,-1,-1
"{'cat': 'II', 'resp': 'button'}",55,266,Right,65.87870190951267,42.51343851661437,3.2939350954756335,0.6677995306131853,Right,Correct,0.0,0.0,-45,45,584,-1,-1
"{'cat': 'II', 'resp': 'button'}",55,267,Right,85.40329741901805,59.43210909041443,4.270164870950902,0.9335573865289657,Left,Incorrect,0.0,0.0,-45,45,3034,-1,-1
"{'cat': 'II', 'resp': 'button'}",55,268,Right,69.25951241629265,38.955993020534294,3.4629756208146323,0.611919307433029,Right,Correct,0.0,0.0,-45,45,1302,-1,-1
"{'cat': 'II', 'resp': 'button'}",55,269,Right,53.98351693612757,37.03448748834656,2.6991758468063782,0.5817363691142633,Right,Correct,0.0,0.0,-45,45,637,-1,-1
"{'cat': 'II', 'resp': 'button'}",55,270,Left,33.68016542322033,63.75154508355685,1.6840082711610165,1.0014069284475033,Right,Incorrect,0.0,0.0,-45,45,1238,-1,-1
"{'cat': 'II', 'resp': 'button'}",55,271,Left,36.50222110089217,52.81321443587254,1.8251110550446086,0.829588032420998,Left,Correct,0.0,0.0,-45,45,943,-1,-1
"{'cat': 'II', 'resp': 'button'}",55,272,Left,46.11476226987796,53.82266479347704,2.3057381134938977,0.8454444415590673,Right,Incorrect,0.0,0.0,-45,45,1494,-1,-1
"{'cat': 'II', 'resp': 'button'}",55,273,Right,45.6729559123732,22.80726830687556,2.28364779561866,0.35825573280665785,Left,Incorrect,0.0,0.0,-45,45,673,-1,-1
"{'cat': 'II', 'resp': 'button'}",55,274,Left,64.08055804270944,85.62192692855523,3.2040279021354716,1.344946083124756,Right,Incorrect,0.0,0.0,-45,45,1181,-1,-1
"{'cat': 'II', 'resp': 'button'}",55,275,Left,19.441245659716234,33.52372239328413,0.9720622829858117,0.5265893999586253,Left,Correct,0.0,0.0,-45,45,1228,-1,-1
"{'cat': 'II', 'resp': 'button'}",55,276,Left,49.236385300178725,72.28139140845985,2.461819265008936,1.1353934412003293,Left,Correct,0.0,0.0,-45,45,1459,-1,-1
"{'cat': 'II', 'resp': 'button'}",55,277,Left,42.739772663547484,73.03493268089034,2.136988633177374,1.147230039828551,Right,Incorrect,0.0,0.0,-45,45,788,-1,-1
"{'cat': 'II', 'resp': 'button'}",55,278,Left,64.54370048926624,89.25902489505447,3.2271850244633122,1.4020774843844577,Right,Incorrect,0.0,0.0,-45,45,1367,-1,-1
"{'cat': 'II', 'resp': 'button'}",55,279,Right,64.36663566389298,41.79209175380465,3.2183317831946487,0.6564686421595163,Right,Correct,0.0,0.0,-45,45,761,-1,-1
"{'cat': 'II', 'resp': 'button'}",55,280,Left,38.19268932635683,57.55908669594025,1.9096344663178413,0.9041360195565195,Left,Correct,0.0,0.0,-45,45,685,-1,-1
"{'cat': 'II', 'resp': 'button'}",55,281,Left,19.981750091813478,36.83063115928219,0.999087504590674,0.5785342013853813,Left,Correct,0.0,0.0,-45,45,1931,-1,-1
"{'cat': 'II', 'resp': 'button'}",55,282,Right,76.04194995603142,52.782615438720065,3.802097497801571,0.8291073844976907,Right,Correct,0.0,0.0,-45,45,756,-1,-1
"{'cat': 'II', 'resp': 'button'}",55,283,Right,54.58854300084301,29.264144147439733,2.7294271500421505,0.45968010133594706,Left,Incorrect,0.0,0.0,-45,45,896,-1,-1
"{'cat': 'II', 'resp': 'button'}",55,284,Right,64.39280884742001,39.124023375368964,3.2196404423710008,0.6145587220746724,Right,Correct,0.0,0.0,-45,45,823,-1,-1
"{'cat': 'II', 'resp': 'button'}",55,285,Left,19.19450010963674,35.742202421028054,0.9597250054818369,0.5614372027451052,Left,Correct,0.0,0.0,-45,45,725,-1,-1
"{'cat': 'II', 'resp': 'button'}",55,286,Left,47.25331377902323,58.25397750585134,2.3626656889511617,0.9150513388738379,Right,Incorrect,0.0,0.0,-45,45,546,-1,-1
"{'cat': 'II', 'resp': 'button'}",55,287,Left,33.767187065651655,61.604970146344115,1.6883593532825827,0.9676886081818659,Left,Correct,0.0,0.0,-45,45,1439,-1,-1
"{'cat': 'II', 'resp': 'button'}",55,288,Left,31.36564347801623,47.28131539210001,1.5682821739008117,0.7426931654394172,Right,Incorrect,0.0,0.0,-45,45,1207,-1,-1
"{'cat': 'II', 'resp': 'button'}",55,289,Right,49.00887503595413,39.79247490889779,2.4504437517977062,0.6250587342097473,Left,Incorrect,0.0,0.0,-45,45,548,-1,-1
"{'cat': 'II', 'resp': 'button'}",55,290,Left,40.09884898242366,72.33528647851017,2.0049424491211827,1.1362400229810032,Right,Incorrect,0.0,0.0,-45,45,1366,-1,-1
"{'cat': 'II', 'resp': 'button'}",55,291,Left,39.34838003449077,56.404538416315596,1.9674190017245388,0.8860004175891018,Left,Correct,0.0,0.0,-45,45,1563,-1,-1
"{'cat': 'II', 'resp': 'button'}",55,292,Left,62.32486382941383,75.57378275198411,3.1162431914706916,1.1871102034881214,Right,Incorrect,0.0,0.0,-45,45,857,-1,-1
"{'cat': 'II', 'resp': 'button'}",55,293,Right,85.95074394576514,61.1711054578484,4.297537197288257,0.960873477591715,Left,Incorrect,0.0,0.0,-45,45,923,-1,-1
"{'cat': 'II', 'resp': 'button'}",55,294,Right,77.27593742782217,49.909511857865084,3.8637968713911084,0.7839767789846082,Right,Correct,0.0,0.0,-45,45,439,-1,-1
"{'cat': 'II', 'resp': 'button'}",55,295,Right,47.643660553252715,38.160339170146266,2.3821830276626357,0.5994212059771316,Left,Incorrect,0.0,0.0,-45,45,773,-1,-1
"{'cat': 'II', 'resp': 'button'}",55,296,Right,72.35876132748575,41.32164820463304,3.6179380663742875,0.6490789321694852,Right,Correct,0.0,0.0,-45,45,739,-1,-1
"{'cat': 'II', 'resp': 'button'}",55,297,Left,11.569079048387675,32.54982413817399,0.5784539524193838,0.5112914419406356,Right,Incorrect,0.0,0.0,-45,45,2622,-1,-1
"{'cat': 'II', 'resp': 'button'}",55,298,Left,33.510378957305285,51.9015210303013,1.6755189478652641,0.8152671858946535,Left,Correct,0.0,0.0,-45,45,7959,-1,-1
"{'cat': 'II', 'resp': 'button'}",55,299,Left,47.34137104073773,60.68517844653513,2.367068552036886,0.953240553947102,Left,Correct,0.0,0.0,-45,45,712,-1,-1
"{'cat': 'II', 'resp': 'button'}",55,300,Left,60.450225813471114,69.26066266221753,3.0225112906735556,1.0879439450119173,Right,Incorrect,0.0,0.0,-45,45,729,-1,-1
"{'cat': 'II', 'resp': 'button'}",55,301,Left,18.384792328658385,34.278973038312266,0.9192396164329193,0.538452849348822,Left,Correct,0.0,0.0,-45,45,1134,-1,-1
"{'cat': 'II', 'resp': 'button'}",55,302,Right,35.84104068278395,13.011319724645155,1.7920520341391974,0.2043813323022659,Right,Correct,0.0,0.0,-45,45,545,-1,-1
"{'cat': 'II', 'resp': 'button'}",55,303,Right,70.58206607349801,38.56363446129914,3.529103303674901,0.6057561535966978,Right,Correct,0.0,0.0,-45,45,2399,-1,-1
"{'cat': 'II', 'resp': 'button'}",55,304,Right,84.82299806664871,61.0246324445675,4.241149903332436,0.9585726848793529,Left,Incorrect,0.0,0.0,-45,45,1068,-1,-1
"{'cat': 'II', 'resp': 'button'}",55,305,Left,37.40016943921846,46.697042664780234,1.8700084719609231,0.7335154309002135,Right,Incorrect,0.0,0.0,-45,45,564,-1,-1
"{'cat': 'II', 'resp': 'button'}",55,306,Left,46.60472197438043,67.75699191472496,2.3302360987190216,1.0643243401432148,Left,Correct,0.0,0.0,-45,45,485,-1,-1
"{'cat': 'II', 'resp': 'button'}",55,307,Right,71.91032686060483,41.955365530185944,3.595516343030241,0.6590333406415331,Left,Incorrect,0.0,0.0,-45,45,824,-1,-1
"{'cat': 'II', 'resp': 'button'}",55,308,Left,26.178620304395892,42.07963655202856,1.3089310152197948,0.6609853852879072,Right,Incorrect,0.0,0.0,-45,45,609,-1,-1
"{'cat': 'II', 'resp': 'button'}",55,309,Left,24.112429572319414,54.03143397847822,1.2056214786159707,0.8487237802485456,Left,Correct,0.0,0.0,-45,45,342,-1,-1
"{'cat': 'II', 'resp': 'button'}",55,310,Right,66.70192511205147,50.28635431518554,3.3350962556025734,0.7898962064620013,Left,Incorrect,0.0,0.0,-45,45,253,-1,-1
"{'cat': 'II', 'resp': 'button'}",55,311,Left,35.72309593295516,65.66288752074118,1.7861547966477582,1.031430225243267,Left,Correct,0.0,0.0,-45,45,872,-1,-1
"{'cat': 'II', 'resp': 'button'}",55,312,Right,43.63124353806536,15.573160965031125,2.181562176903268,0.2446226404045656,Left,Incorrect,0.0,0.0,-45,45,1015,-1,-1
"{'cat': 'II', 'resp': 'button'}",55,313,Left,28.53228417088587,41.68884648544939,1.4266142085442934,0.6548468692766024,Right,Incorrect,0.0,0.0,-45,45,1243,-1,-1
"{'cat': 'II', 'resp': 'button'}",55,314,Right,47.52410321826072,18.132637959255565,2.3762051609130364,0.28482681101500346,Left,Incorrect,0.0,0.0,-45,45,474,-1,-1
"{'cat': 'II', 'resp': 'button'}",55,315,Right,55.26734928822993,34.54595280200986,2.7633674644114965,0.5426465576702695,Right,Correct,0.0,0.0,-45,45,752,-1,-1
"{'cat': 'II', 'resp': 'button'}",55,316,Left,56.497964148117106,65.86844693386843,2.8248982074058553,1.034659144954051,Right,Incorrect,0.0,0.0,-45,45,944,-1,-1
"{'cat': 'II', 'resp': 'button'}",55,317,Left,13.58233881750435,40.09999509942503,0.6791169408752176,0.6298892500667019,Left,Correct,0.0,0.0,-45,45,623,-1,-1
"{'cat': 'II', 'resp': 'button'}",55,318,Right,61.598647280316925,42.211378020578884,3.0799323640158462,0.6630547754367614,Left,Incorrect,0.0,0.0,-45,45,1113,-1,-1
"{'cat': 'II', 'resp': 'button'}",55,319,Left,14.560288837097055,33.03029364945841,0.7280144418548528,0.5188386393752608,Right,Incorrect,0.0,0.0,-45,45,1151,-1,-1
"{'cat': 'II', 'resp': 'button'}",55,320,Right,37.9076234225174,26.729504582582045,1.8953811711258703,0.4198660761536723,Left,Incorrect,0.0,0.0,-45,45,536,-1,-1
"{'cat': 'II', 'resp': 'button'}",55,321,Right,76.89581525460673,48.568806047860434,3.844790762730337,0.762917021367929,Right,Correct,0.0,0.0,-45,45,600,-1,-1
"{'cat': 'II', 'resp': 'button'}",55,322,Left,21.65973403315883,52.92325781369892,1.0829867016579415,0.8313165897577757,Left,Correct,0.0,0.0,-45,45,1345,-1,-1
"{'cat': 'II', 'resp': 'button'}",55,323,Left,53.5375092541984,72.12165810213676,2.67687546270992,1.1328843562919382,Right,Incorrect,0.0,0.0,-45,45,864,-1,-1
"{'cat': 'II', 'resp': 'button'}",55,324,Left,13.046795273942852,30.60411243083144,0.6523397636971425,0.48072827391168055,Left,Correct,0.0,0.0,-45,45,578,-1,-1
"{'cat': 'II', 'resp': 'button'}",55,325,Right,64.03979026439468,55.096474164661544,3.2019895132197345,0.8654533923720027,Right,Correct,0.0,0.0,-45,45,861,-1,-1
"{'cat': 'II', 'resp': 'button'}",55,326,Left,36.920131355001786,63.83379262514251,1.8460065677500892,1.0026988698096102,Left,Correct,0.0,0.0,-45,45,582,-1,-1
"{'cat': 'II', 'resp': 'button'}",55,327,Right,60.06457059538308,29.349308626010945,3.003228529769154,0.46101786183707766,Left,Incorrect,0.0,0.0,-45,45,1436,-1,-1
"{'cat': 'II', 'resp': 'button'}",55,328,Left,56.62503249074871,72.72646841634578,2.8312516245374355,1.14238469449161,Right,Incorrect,0.0,0.0,-45,45,1757,-1,-1
"{'cat': 'II', 'resp': 'button'}",55,329,Left,46.46257437418735,72.83029651184495,2.323128718709367,1.1440156224018923,Left,Correct,0.0,0.0,-45,45,746,-1,-1
"{'cat': 'II', 'resp': 'button'}",55,330,Right,49.2270642522517,37.65094072744659,2.4613532126125848,0.5914195939504547,Left,Incorrect,0.0,0.0,-45,45,1373,-1,-1
"{'cat': 'II', 'resp': 'button'}",55,331,Right,35.30342852355807,13.845323274865994,1.7651714261779035,0.2174818294344739,Right,Correct,0.0,0.0,-45,45,713,-1,-1
"{'cat': 'II', 'resp': 'button'}",55,332,Right,77.93574399648992,59.714623977723406,3.896787199824496,0.9379951200014637,Right,Correct,0.0,0.0,-45,45,919,-1,-1
"{'cat': 'II', 'resp': 'button'}",55,333,Left,46.50609167295009,68.5696696798215,2.3253045836475046,1.07708985262603,Right,Incorrect,0.0,0.0,-45,45,1030,-1,-1
"{'cat': 'II', 'resp': 'button'}",55,334,Left,23.672694705089796,38.206075624517695,1.1836347352544898,0.6001396325224043,Left,Correct,0.0,0.0,-45,45,627,-1,-1
"{'cat': 'II', 'resp': 'button'}",55,335,Left,34.040463249796765,41.83536726988049,1.7020231624898383,0.6571484123764371,Left,Correct,0.0,0.0,-45,45,603,-1,-1
"{'cat': 'II', 'resp': 'button'}",55,336,Right,68.58185915894501,57.2553992665131,3.42909295794725,0.8993657085701401,Left,Incorrect,0.0,0.0,-45,45,645,-1,-1
"{'cat': 'II', 'resp': 'button'}",55,337,Right,38.97223093067919,18.578841761029697,1.9486115465339595,0.2918357639432907,Left,Incorrect,0.0,0.0,-45,45,664,-1,-1
"{'cat': 'II', 'resp': 'button'}",55,338,Left,58.903614110114056,79.94097583542614,2.9451807055057024,1.2557099120268698,Right,Incorrect,0.0,0.0,-45,45,542,-1,-1
"{'cat': 'II', 'resp': 'button'}",55,339,Left,38.18821006847849,59.12069823071265,1.9094105034239246,0.9286657561835296,Left,Correct,0.0,0.0,-45,45,471,-1,-1
"{'cat': 'II', 'resp': 'button'}",55,340,Right,53.41627570190125,24.031272901876676,2.670813785095062,0.3774823520247362,Right,Correct,0.0,0.0,-45,45,1344,-1,-1
"{'cat': 'II', 'resp': 'button'}",55,341,Left,24.31347882241159,41.69418741720537,1.2156739411205795,0.6549307644364419,Right,Incorrect,0.0,0.0,-45,45,1050,-1,-1
"{'cat': 'II', 'resp': 'button'}",55,342,Right,38.18631071306889,26.06356771087458,1.9093155356534448,0.40940556423411867,Left,Incorrect,0.0,0.0,-45,45,606,-1,-1
"{'cat': 'II', 'resp': 'button'}",55,343,Right,45.43783210302725,25.084981555252085,2.271891605151362,0.39403396884707703,Right,Correct,0.0,0.0,-45,45,606,-1,-1
"{'cat': 'II', 'resp': 'button'}",55,344,Left,56.382930586062834,84.31275320454571,2.8191465293031417,1.3243816303566505,Right,Incorrect,0.0,0.0,-45,45,1016,-1,-1
"{'cat': 'II', 'resp': 'button'}",55,345,Left,52.770119697092866,73.99844633656919,2.6385059848546435,1.1623648769401214,Left,Correct,0.0,0.0,-45,45,664,-1,-1
"{'cat': 'II', 'resp': 'button'}",55,346,Right,53.3844747269237,33.850721251038394,2.669223736346185,0.5317258860048906,Left,Incorrect,0.0,0.0,-45,45,842,-1,-1
"{'cat': 'II', 'resp': 'button'}",55,347,Right,76.18036828336685,57.56658789546003,3.8090184141683427,0.9042538481230417,Right,Correct,0.0,0.0,-45,45,905,-1,-1
"{'cat': 'II', 'resp': 'button'}",55,348,Left,20.878573610979966,36.01217668679125,1.0439286805489985,0.565677948595005,Right,Incorrect,0.0,0.0,-45,45,1020,-1,-1
"{'cat': 'II', 'resp': 'button'}",55,349,Right,55.03297394261586,43.20440062758493,2.7516486971307934,0.6786531380718553,Right,Correct,0.0,0.0,-45,45,1269,-1,-1
"{'cat': 'II', 'resp': 'button'}",55,350,Right,37.75119842163958,12.165578359648507,1.887559921081979,0.19109645800671357,Left,Incorrect,0.0,0.0,-45,45,1145,-1,-1
"{'cat': 'II', 'resp': 'button'}",55,351,Left,46.107685074695944,56.621055907593004,2.3053842537347973,0.8894014663889558,Right,Incorrect,0.0,0.0,-45,45,713,-1,-1
"{'cat': 'II', 'resp': 'button'}",55,352,Right,77.18888777538912,53.00844864290902,3.8594443887694556,0.832654764173774,Left,Incorrect,0.0,0.0,-45,45,2043,-1,-1
"{'cat': 'II', 'resp': 'button'}",55,353,Left,56.03413885012023,76.30255559447653,2.8017069425060117,1.1985577405286711,Left,Correct,0.0,0.0,-45,45,1417,-1,-1
"{'cat': 'II', 'resp': 'button'}",55,354,Right,75.47809495132691,49.59908921261246,3.7739047475663456,0.7791006714754403,Left,Incorrect,0.0,0.0,-45,45,935,-1,-1
"{'cat': 'II', 'resp': 'button'}",55,355,Left,45.63209616785638,68.74631530316961,2.281604808392819,1.079864595589026,Right,Incorrect,0.0,0.0,-45,45,1446,-1,-1
"{'cat': 'II', 'resp': 'button'}",55,356,Left,25.48034250371256,49.849683441830635,1.274017125185628,0.7830369964231594,Left,Correct,0.0,0.0,-45,45,3357,-1,-1
"{'cat': 'II', 'resp': 'button'}",55,357,Right,63.47193650183792,40.547132126901765,3.173596825091896,0.6369128620700464,Right,Correct,0.0,0.0,-45,45,2577,-1,-1
"{'cat': 'II', 'resp': 'button'}",55,358,Left,60.87430611916835,88.14500690338242,3.0437153059584174,1.384578530691439,Left,Correct,0.0,0.0,-45,45,462,-1,-1
"{'cat': 'II', 'resp': 'button'}",55,359,Right,54.13214082885724,40.078673192955335,2.7066070414428616,0.6295543263430733,Right,Correct,0.0,0.0,-45,45,647,-1,-1
"{'cat': 'II', 'resp': 'button'}",55,360,Left,22.11864867149248,39.43900651249168,1.105932433574624,0.6195064656226194,Right,Incorrect,0.0,0.0,-45,45,1698,-1,-1
"{'cat': 'II', 'resp': 'button'}",55,361,Left,37.50393896037635,55.60561733637719,1.8751969480188178,0.873450994611439,Left,Correct,0.0,0.0,-45,45,913,-1,-1
"{'cat': 'II', 'resp': 'button'}",55,362,Left,61.02752810757085,79.68873663810265,3.0513764053785426,1.2517477479805756,Left,Correct,0.0,0.0,-45,45,1237,-1,-1
"{'cat': 'II', 'resp': 'button'}",55,363,Right,88.40766630314135,62.87247121462076,4.420383315157068,0.9875984684044415,Right,Correct,0.0,0.0,-45,45,975,-1,-1
"{'cat': 'II', 'resp': 'button'}",55,364,Left,56.47005902733149,72.12685302120627,2.8235029513665744,1.1329659578898619,Left,Correct,0.0,0.0,-45,45,696,-1,-1
"{'cat': 'II', 'resp': 'button'}",55,365,Left,64.05778576675334,87.91397903812296,3.202889288337667,1.3809495534700709,Right,Incorrect,0.0,0.0,-45,45,843,-1,-1
"{'cat': 'II', 'resp': 'button'}",55,366,Left,25.725299737932723,39.503777386931084,1.286264986896636,0.6205238841391464,Left,Correct,0.0,0.0,-45,45,1691,-1,-1
"{'cat': 'II', 'resp': 'button'}",55,367,Right,39.156264698632754,12.272343304374264,1.9578132349316377,0.19277351783677035,Right,Correct,0.0,0.0,-45,45,1570,-1,-1
"{'cat': 'II', 'resp': 'button'}",55,368,Right,66.74978563344457,39.951488984554224,3.3374892816722284,0.6275565214692456,Right,Correct,0.0,0.0,-45,45,1214,-1,-1
"{'cat': 'II', 'resp': 'button'}",55,369,Left,53.31021803282642,76.60121073750199,2.665510901641321,1.2032490045450992,Right,Incorrect,0.0,0.0,-45,45,2700,-1,-1
"{'cat': 'II', 'resp': 'button'}",55,370,Right,74.45254689618467,53.99845449262547,3.7226273448092337,0.8482057396961746,100,Incorrect,0.0,0.0,-45,45,525,-1,-1
"{'cat': 'II', 'resp': 'button'}",55,371,Left,47.768899497468595,62.19722586845884,2.3884449748734298,0.9769917393100767,Right,Incorrect,0.0,0.0,-45,45,1047,-1,-1
"{'cat': 'II', 'resp': 'button'}",55,372,Right,60.48248102052891,48.91924686411612,3.0241240510264453,0.7684217328372637,Left,Incorrect,0.0,0.0,-45,45,867,-1,-1
"{'cat': 'II', 'resp': 'button'}",55,373,Right,57.58219565054454,29.99633264146883,2.879109782527227,0.47118129130537095,Right,Correct,0.0,0.0,-45,45,580,-1,-1
"{'cat': 'II', 'resp': 'button'}",55,374,Right,69.49367082498912,47.70658401606375,3.474683541249456,0.7493732693636506,Right,Correct,0.0,0.0,-45,45,417,-1,-1
"{'cat': 'II', 'resp': 'button'}",55,375,Right,55.7987429254014,46.05311851778628,2.7899371462700695,0.7234006940518873,Left,Incorrect,0.0,0.0,-45,45,1079,-1,-1
"{'cat': 'II', 'resp': 'button'}",55,376,Right,58.1457287751532,48.58490693660671,2.90728643875766,0.7631699335369372,Right,Correct,0.0,0.0,-45,45,612,-1,-1
"{'cat': 'II', 'resp': 'button'}",55,377,Left,45.77470346402273,67.27675107349991,2.2887351732011365,1.0567807346494829,Right,Incorrect,0.0,0.0,-45,45,574,-1,-1
"{'cat': 'II', 'resp': 'button'}",55,378,Left,58.54365074597863,67.68625919209538,2.9271825372989313,1.0632132731343071,Left,Correct,0.0,0.0,-45,45,375,-1,-1
"{'cat': 'II', 'resp': 'button'}",55,379,Left,48.57634746994885,64.98355815969978,2.4288173734974423,1.0207593445931897,Left,Correct,0.0,0.0,-45,45,580,-1,-1
"{'cat': 'II', 'resp': 'button'}",55,380,Left,45.085918629368024,71.44678913505221,2.254295931468401,1.1222835393462955,Left,Correct,0.0,0.0,-45,45,368,-1,-1
"{'cat': 'II', 'resp': 'button'}",55,381,Left,12.989649163037804,37.314925640646784,0.6494824581518901,0.5861414813095267,Right,Incorrect,0.0,0.0,-45,45,966,-1,-1
"{'cat': 'II', 'resp': 'button'}",55,382,Right,77.34020204571445,55.31825063611814,3.8670101022857226,0.8689370490393382,Left,Incorrect,0.0,0.0,-45,45,607,-1,-1
"{'cat': 'II', 'resp': 'button'}",55,383,Left,30.283041380850957,50.72068631560505,1.5141520690425478,0.7967186775706859,Right,Incorrect,0.0,0.0,-45,45,1057,-1,-1
"{'cat': 'II', 'resp': 'button'}",55,384,Right,75.52368955614014,47.56299724603563,3.776184477807007,0.7471178136542856,Left,Incorrect,0.0,0.0,-45,45,815,-1,-1
"{'cat': 'II', 'resp': 'button'}",55,385,Left,17.584900798100616,34.861358716474285,0.8792450399050309,0.5476009421891705,Right,Incorrect,0.0,0.0,-45,45,1154,-1,-1
"{'cat': 'II', 'resp': 'button'}",55,386,Left,55.57233964156571,77.83240951639934,2.778616982078286,1.222588629739562,Left,Correct,0.0,0.0,-45,45,528,-1,-1
"{'cat': 'II', 'resp': 'button'}",55,387,Left,37.90320550201173,57.20003922816944,1.8951602751005865,0.8984961151213254,Right,Incorrect,0.0,0.0,-45,45,2845,-1,-1
"{'cat': 'II', 'resp': 'button'}",55,388,Right,38.42585981455427,18.32181814805122,1.9212929907277134,0.28779844647162933,Left,Incorrect,0.0,0.0,-45,45,558,-1,-1
"{'cat': 'II', 'resp': 'button'}",55,389,Right,33.692508041323634,10.279351544199539,1.6846254020661817,0.16146767647462085,Right,Correct,0.0,0.0,-45,45,787,-1,-1
"{'cat': 'II', 'resp': 'button'}",55,390,Left,58.700400716735096,81.17591469355042,2.935020035836755,1.2751082862484486,Right,Incorrect,0.0,0.0,-45,45,869,-1,-1
"{'cat': 'II', 'resp': 'button'}",55,391,Left,12.088955013620552,37.14688822836051,0.6044477506810275,0.5835019558096927,Left,Correct,0.0,0.0,-45,45,670,-1,-1
"{'cat': 'II', 'resp': 'button'}",55,392,Left,55.31796654179803,65.39354674827658,2.7658983270899014,1.027199430282832,Left,Correct,0.0,0.0,-45,45,1023,-1,-1
"{'cat': 'II', 'resp': 'button'}",55,393,Left,50.25136791235076,69.83881151047267,2.5125683956175378,1.0970254858837158,Left,Correct,0.0,0.0,-45,45,577,-1,-1
"{'cat': 'II', 'resp': 'button'}",55,394,Right,54.17337029310579,38.95043704864875,2.7086685146552893,0.6118320344307331,Right,Correct,0.0,0.0,-45,45,1445,-1,-1
"{'cat': 'II', 'resp': 'button'}",55,395,Right,38.02014228970144,14.385755111307727,1.9010071144850718,0.22597091287013088,Left,Incorrect,0.0,0.0,-45,45,895,-1,-1
"{'cat': 'II', 'resp': 'button'}",55,396,Left,35.005258681477414,68.39699786382972,1.7502629340738707,1.0743775300830212,Right,Incorrect,0.0,0.0,-45,45,1765,-1,-1
"{'cat': 'II', 'resp': 'button'}",55,397,Left,48.046925234139295,76.63051647723525,2.4023462617069646,1.203709338028369,Left,Correct,0.0,0.0,-45,45,642,-1,-1
"{'cat': 'II', 'resp': 'button'}",55,398,Right,30.879037938825647,15.830508700406497,1.5439518969412824,0.24866504917893179,Left,Incorrect,0.0,0.0,-45,45,633,-1,-1
"{'cat': 'II', 'resp': 'button'}",55,399,Left,16.296396956372483,32.46207875553269,0.8148198478186243,0.509913140693174,Right,Incorrect,0.0,0.0,-45,45,652,-1,-1
