condition,subject,trial,cat,x,y,xt,yt,resp,fb,rotation,su,target_angle_left,target_angle_right,rt,mt,ep
"{'cat': 'RB', 'resp': 'reach'}",42,0,Left,32.006886499845706,38.85942204391443,1.6003443249922853,0.610402374079534,Right,Incorrect,0.0,0.0,-45,45,2004,1129,-0.82
"{'cat': 'RB', 'resp': 'reach'}",42,1,Left,32.67302894912848,47.57552233014199,1.6336514474564239,0.7473145572153561,Right,Incorrect,0.0,0.0,-45,45,2004,1800,-0.71
"{'cat': 'RB', 'resp': 'reach'}",42,2,Right,68.72037188076246,54.898899393356494,3.436018594038123,0.8623498951216695,Right,Correct,0.0,0.0,-45,45,2005,1554,-0.76
"{'cat': 'RB', 'resp': 'reach'}",42,3,Right,56.40273414163249,58.180733407043355,2.8201367070816246,0.9139008232601684,Right,Correct,0.0,0.0,-45,45,2009,2629,-0.71
"{'cat': 'RB', 'resp': 'reach'}",42,4,Left,38.28486700091984,85.73611810433364,1.9142433500459919,1.3467397939194072,Left,Correct,0.0,0.0,-45,45,2004,825,-2.42
"{'cat': 'RB', 'resp': 'reach'}",42,5,Right,58.35386031049982,42.29323811031963,2.917693015524991,0.6643406307195201,Right,Correct,0.0,0.0,-45,45,2004,875,-0.94
"{'cat': 'RB', 'resp': 'reach'}",42,6,Right,65.49672260451587,42.420855278612855,3.2748361302257933,0.6663452365114297,Right,Correct,0.0,0.0,-45,45,2008,1054,-0.86
"{'cat': 'RB', 'resp': 'reach'}",42,7,Right,57.58800342536351,68.26843912129445,2.8794001712681756,1.0723581340775035,Right,Correct,0.0,0.0,-45,45,2004,3075,-0.84
"{'cat': 'RB', 'resp': 'reach'}",42,8,Left,33.87574481395892,77.64611337341488,1.693787240697946,1.2196622967686017,Left,Correct,0.0,0.0,-45,45,2004,696,-2.31
"{'cat': 'RB', 'resp': 'reach'}",42,9,Left,41.87773298515877,82.1055803415813,2.093886649257939,1.2897114400991918,Left,Correct,0.0,0.0,-45,45,2004,1025,-2.35
"{'cat': 'RB', 'resp': 'reach'}",42,10,Right,67.62010117676901,59.4118795563754,3.3810050588384506,0.9332396217513529,Right,Correct,0.0,0.0,-45,45,2009,895,-0.88
"{'cat': 'RB', 'resp': 'reach'}",42,11,Left,35.4961073278333,65.09536557456897,1.774805366391665,1.022515611359039,Left,Correct,0.0,0.0,-45,45,2004,1109,-2.41
"{'cat': 'RB', 'resp': 'reach'}",42,12,Left,44.604186149629356,47.83206023023373,2.2302093074814677,0.7513442451268338,Left,Correct,0.0,0.0,-45,45,2004,1100,-2.33
"{'cat': 'RB', 'resp': 'reach'}",42,13,Left,36.02958947396398,35.64084626941502,1.8014794736981992,0.5598451040385871,Left,Correct,0.0,0.0,-45,45,2005,1037,-2.41
"{'cat': 'RB', 'resp': 'reach'}",42,14,Right,54.556484992015434,27.44234302743125,2.7278242496007716,0.4310633162613455,Left,Incorrect,0.0,0.0,-45,45,2008,1400,-2.49
"{'cat': 'RB', 'resp': 'reach'}",42,15,Left,37.49328458241521,25.240800430905587,1.8746642291207605,0.3964815660222954,Left,Correct,0.0,0.0,-45,45,2008,1017,-2.48
"{'cat': 'RB', 'resp': 'reach'}",42,16,Right,59.98473303416809,28.589952909156146,2.9992366517084044,0.4490899301294154,Right,Correct,0.0,0.0,-45,45,2012,587,-0.84
"{'cat': 'RB', 'resp': 'reach'}",42,17,Left,32.13566314188417,72.27978946139481,1.6067831570942088,1.1353682778746745,Left,Correct,0.0,0.0,-45,45,2009,945,-2.38
"{'cat': 'RB', 'resp': 'reach'}",42,18,Right,54.5042533778045,66.52863514195842,2.725212668890225,1.0450293570766616,Right,Correct,0.0,0.0,-45,45,2008,1521,-0.79
"{'cat': 'RB', 'resp': 'reach'}",42,19,Right,64.9596442316438,43.12787867412996,3.2479822115821895,0.6774511340377929,Right,Correct,0.0,0.0,-45,45,2004,1279,-0.78
"{'cat': 'RB', 'resp': 'reach'}",42,20,Left,44.296024411864224,82.18829274336181,2.214801220593211,1.2910106834681636,Left,Correct,0.0,0.0,-45,45,2004,1212,-2.39
"{'cat': 'RB', 'resp': 'reach'}",42,21,Right,54.98881371171957,57.977225566794395,2.7494406855859785,0.910704129580798,Right,Correct,0.0,0.0,-45,45,2004,1409,-0.8
"{'cat': 'RB', 'resp': 'reach'}",42,22,Left,36.425176218887295,45.267584452027066,1.8212588109443646,0.7110615538012188,Left,Correct,0.0,0.0,-45,45,2004,888,-2.37
"{'cat': 'RB', 'resp': 'reach'}",42,23,Left,33.542114396711746,69.50075214273295,1.6771057198355874,1.0917152617528745,Left,Correct,0.0,0.0,-45,45,2004,767,-2.46
"{'cat': 'RB', 'resp': 'reach'}",42,24,Right,52.95754860270562,43.81330146573309,2.647877430135281,0.6882177300713099,Right,Correct,0.0,0.0,-45,45,2008,1158,-0.86
"{'cat': 'RB', 'resp': 'reach'}",42,25,Right,63.23734635675574,37.76281958902116,3.1618673178377867,0.5931769829985281,Right,Correct,0.0,0.0,-45,45,2008,917,-0.89
"{'cat': 'RB', 'resp': 'reach'}",42,26,Right,62.98223338370391,16.093767320802506,3.1491116691851953,0.2528003059180832,Right,Correct,0.0,0.0,-45,45,2004,796,-0.86
"{'cat': 'RB', 'resp': 'reach'}",42,27,Right,58.62670857096215,29.839357868371614,2.9313354285481075,0.46871553733556526,Right,Correct,0.0,0.0,-45,45,2004,1059,-0.84
"{'cat': 'RB', 'resp': 'reach'}",42,28,Left,36.75323142996213,42.69228884340543,1.8376615714981062,0.67060890497688,Left,Correct,0.0,0.0,-45,45,2004,816,-2.29
"{'cat': 'RB', 'resp': 'reach'}",42,29,Right,59.06603875277135,65.93518292035843,2.9533019376385674,1.0357074313784862,Right,Correct,0.0,0.0,-45,45,2004,1009,-0.74
"{'cat': 'RB', 'resp': 'reach'}",42,30,Left,46.66493983283205,36.22813910330355,2.333246991641602,0.5690702783008377,Right,Incorrect,0.0,0.0,-45,45,2004,1679,-0.74
"{'cat': 'RB', 'resp': 'reach'}",42,31,Right,59.36730802391585,19.351551404539617,2.9683654011957925,0.30397345864033454,Right,Correct,0.0,0.0,-45,45,2008,684,-0.76
"{'cat': 'RB', 'resp': 'reach'}",42,32,Left,34.6606265197574,34.15808496700164,1.7330313259878698,0.5365539439651416,Left,Correct,0.0,0.0,-45,45,2004,717,-2.38
"{'cat': 'RB', 'resp': 'reach'}",42,33,Left,38.53823630215379,31.150668220861515,1.9269118151076896,0.48931355218535794,Left,Correct,0.0,0.0,-45,45,2004,817,-2.31
"{'cat': 'RB', 'resp': 'reach'}",42,34,Right,55.45015116685878,31.2859291244593,2.772507558342939,0.49143822549066146,Right,Correct,0.0,0.0,-45,45,2004,1158,-0.79
"{'cat': 'RB', 'resp': 'reach'}",42,35,Left,39.10288897967194,70.14691934240672,1.955144448983597,1.1018652323903035,Left,Correct,0.0,0.0,-45,45,2004,1096,-2.48
"{'cat': 'RB', 'resp': 'reach'}",42,36,Right,59.60396406932205,75.869965193225,2.9801982034661028,1.191762626395745,Right,Correct,0.0,0.0,-45,45,2008,1833,-0.75
"{'cat': 'RB', 'resp': 'reach'}",42,37,Left,34.743302405534834,80.09894126002106,1.7371651202767417,1.2581912271140125,Left,Correct,0.0,0.0,-45,45,2013,654,-2.32
"{'cat': 'RB', 'resp': 'reach'}",42,38,Right,51.79112176026276,32.975365626598034,2.589556088013138,0.5179758320097888,Right,Correct,0.0,0.0,-45,45,2012,1938,-0.75
"{'cat': 'RB', 'resp': 'reach'}",42,39,Left,38.26713937855689,82.44459782600262,1.9133569689278445,1.2950367142916743,Left,Correct,0.0,0.0,-45,45,2009,812,-2.42
"{'cat': 'RB', 'resp': 'reach'}",42,40,Left,46.453639354776556,78.16271815236217,2.322681967738828,1.2277771056603528,Right,Incorrect,0.0,0.0,-45,45,2013,1404,-0.77
"{'cat': 'RB', 'resp': 'reach'}",42,41,Left,40.232888161967985,28.37820046065165,2.0116444080983995,0.44576373044640855,Left,Correct,0.0,0.0,-45,45,2012,967,-2.33
"{'cat': 'RB', 'resp': 'reach'}",42,42,Right,65.61383285185894,50.544526969912425,3.2806916425929473,0.7939515730392402,Right,Correct,0.0,0.0,-45,45,2009,1195,-0.73
"{'cat': 'RB', 'resp': 'reach'}",42,43,Left,40.97722373685793,16.92831317639382,2.0488611868428963,0.26590932156313063,Left,Correct,0.0,0.0,-45,45,2008,1088,-2.41
"{'cat': 'RB', 'resp': 'reach'}",42,44,Right,65.21307767543685,47.93561730535468,3.260653883771843,0.7529709158589701,Right,Correct,0.0,0.0,-45,45,2017,983,-0.96
"{'cat': 'RB', 'resp': 'reach'}",42,45,Left,37.316416202997885,30.688344829474484,1.8658208101498943,0.48205139333553676,Left,Correct,0.0,0.0,-45,45,2005,758,-2.3
"{'cat': 'RB', 'resp': 'reach'}",42,46,Right,64.43116017521896,26.67555215396743,3.2215580087609483,0.4190185933867772,Right,Correct,0.0,0.0,-45,45,2004,888,-0.75
"{'cat': 'RB', 'resp': 'reach'}",42,47,Left,36.26311595591358,57.55964431382719,1.813155797795679,0.9041447785978052,Left,Correct,0.0,0.0,-45,45,2008,796,-2.37
"{'cat': 'RB', 'resp': 'reach'}",42,48,Left,37.00389120401091,75.43447392169699,1.8501945602005458,1.1849219454990705,Left,Correct,0.0,0.0,-45,45,2013,758,-2.36
"{'cat': 'RB', 'resp': 'reach'}",42,49,Right,63.37936007492126,62.88027598258725,3.168968003746063,0.987721065412974,Right,Correct,0.0,0.0,-45,45,2004,688,-0.77
"{'cat': 'RB', 'resp': 'reach'}",42,50,Left,37.86944645804228,70.77017601861968,1.8934723229021142,1.1116553253667607,Left,Correct,0.0,0.0,-45,45,2008,704,-2.37
"{'cat': 'RB', 'resp': 'reach'}",42,51,Left,39.58293429840184,42.65840073816678,1.9791467149200919,0.6700765918645708,Left,Correct,0.0,0.0,-45,45,2008,775,-2.46
"{'cat': 'RB', 'resp': 'reach'}",42,52,Left,42.52431955741112,86.79951974305891,2.126215977870556,1.3634436677995807,Left,Correct,0.0,0.0,-45,45,2013,921,-2.21
"{'cat': 'RB', 'resp': 'reach'}",42,53,Left,35.62410833680004,31.239315458491706,1.7812054168400022,0.4907060197378581,Left,Correct,0.0,0.0,-45,45,2004,926,-2.32
"{'cat': 'RB', 'resp': 'reach'}",42,54,Left,41.93191535479857,31.24436280129236,2.0965957677399287,0.49078530321317143,Left,Correct,0.0,0.0,-45,45,2004,805,-2.48
"{'cat': 'RB', 'resp': 'reach'}",42,55,Right,62.87914525185079,45.428308545560945,3.143957262592539,0.7135862019587235,Right,Correct,0.0,0.0,-45,45,2016,875,-0.79
"{'cat': 'RB', 'resp': 'reach'}",42,56,Right,50.90571208647228,38.43222940062429,2.545285604323614,0.6036920477303946,Left,Incorrect,0.0,0.0,-45,45,2004,1196,-2.3
"{'cat': 'RB', 'resp': 'reach'}",42,57,Right,62.071516775846604,74.24618084292464,3.10357583879233,1.1662562814661566,Right,Correct,0.0,0.0,-45,45,2013,675,-0.82
"{'cat': 'RB', 'resp': 'reach'}",42,58,Left,48.088442385532986,32.852850504550965,2.4044221192766493,0.5160513689729053,Right,Incorrect,0.0,0.0,-45,45,2004,696,-0.81
"{'cat': 'RB', 'resp': 'reach'}",42,59,Right,64.835244143956,53.4449539203186,3.2417622071978003,0.8395113730375897,Right,Correct,0.0,0.0,-45,45,2008,1400,-0.84
"{'cat': 'RB', 'resp': 'reach'}",42,60,Left,32.160401565344024,68.3781366361265,1.6080200782672012,1.0740812586110704,Left,Correct,0.0,0.0,-45,45,2004,767,-2.33
"{'cat': 'RB', 'resp': 'reach'}",42,61,Right,66.43853153343719,69.85078718660205,3.321926576671859,1.0972135993644654,Right,Correct,0.0,0.0,-45,45,2004,779,-0.92
"{'cat': 'RB', 'resp': 'reach'}",42,62,Right,56.818889181741326,64.9687054276969,2.8409444590870665,1.0205260384244594,Right,Correct,0.0,0.0,-45,45,2004,766,-0.82
"{'cat': 'RB', 'resp': 'reach'}",42,63,Left,36.55820248809127,68.96989548513805,1.8279101244045635,1.0833765848748278,Left,Correct,0.0,0.0,-45,45,2004,884,-2.38
"{'cat': 'RB', 'resp': 'reach'}",42,64,Right,58.73445206043275,60.02531549558213,2.9367226030216376,0.9428754509516518,Right,Correct,0.0,0.0,-45,45,2012,737,-0.79
"{'cat': 'RB', 'resp': 'reach'}",42,65,Left,35.329541163619595,77.84732218636195,1.7664770581809797,1.2228228774115621,Left,Correct,0.0,0.0,-45,45,2012,679,-2.3
"{'cat': 'RB', 'resp': 'reach'}",42,66,Left,44.106081077970636,60.49065261111416,2.205304053898532,0.9501849492696423,Left,Correct,0.0,0.0,-45,45,2004,1108,-2.35
"{'cat': 'RB', 'resp': 'reach'}",42,67,Left,41.55623155543145,50.33722114960468,2.0778115777715724,0.7906952208286141,Left,Correct,0.0,0.0,-45,45,2004,1067,-2.42
"{'cat': 'RB', 'resp': 'reach'}",42,68,Left,32.70646545840441,69.27485428103438,1.6353232729202205,1.0881668664390052,Left,Correct,0.0,0.0,-45,45,2004,746,-2.32
"{'cat': 'RB', 'resp': 'reach'}",42,69,Right,60.19633631576416,90.70961195680472,3.0098168157882075,1.4248632526673928,Right,Correct,0.0,0.0,-45,45,2004,767,-0.73
"{'cat': 'RB', 'resp': 'reach'}",42,70,Left,31.84917468126156,66.01727570738223,1.592458734063078,1.0369969418616196,Left,Correct,0.0,0.0,-45,45,2016,725,-2.3
"{'cat': 'RB', 'resp': 'reach'}",42,71,Left,36.632764099000646,30.721550046146653,1.8316382049500322,0.48257297965932744,Left,Correct,0.0,0.0,-45,45,2008,867,-2.3
"{'cat': 'RB', 'resp': 'reach'}",42,72,Right,59.40990664460949,17.730189631091775,2.9704953322304744,0.27850516745895926,Right,Correct,0.0,0.0,-45,45,2004,713,-0.79
"{'cat': 'RB', 'resp': 'reach'}",42,73,Left,34.698265593765555,26.734017793988272,1.7349132796882776,0.41993696951266185,Left,Correct,0.0,0.0,-45,45,2012,1171,-2.48
"{'cat': 'RB', 'resp': 'reach'}",42,74,Left,47.22791729314934,54.30808750183853,2.361395864657467,0.853069443631438,Left,Correct,0.0,0.0,-45,45,2004,1196,-2.33
"{'cat': 'RB', 'resp': 'reach'}",42,75,Right,53.48533354958072,49.698302601407065,2.674266677479036,0.7806591117423147,Left,Incorrect,0.0,0.0,-45,45,2008,1417,-2.35
"{'cat': 'RB', 'resp': 'reach'}",42,76,Right,58.01032034546518,85.13418632165396,2.9005160172732594,1.3372846715872635,Right,Correct,0.0,0.0,-45,45,2005,987,-0.85
"{'cat': 'RB', 'resp': 'reach'}",42,77,Right,62.94838740651589,51.24280589760164,3.1474193703257947,0.8049201127861652,Right,Correct,0.0,0.0,-45,45,2004,746,-0.83
"{'cat': 'RB', 'resp': 'reach'}",42,78,Left,35.763682757257726,27.099829469149025,1.7881841378628862,0.4256831258690738,Left,Correct,0.0,0.0,-45,45,2012,1121,-2.38
"{'cat': 'RB', 'resp': 'reach'}",42,79,Right,52.54659990051614,24.851307274008498,2.627329995025807,0.3903634218206384,Right,Correct,0.0,0.0,-45,45,2013,1129,-0.79
"{'cat': 'RB', 'resp': 'reach'}",42,80,Left,44.251544171995604,21.49942112984259,2.21257720859978,0.3377121173897333,Right,Incorrect,0.0,0.0,-45,45,2008,1196,-0.8
"{'cat': 'RB', 'resp': 'reach'}",42,81,Right,66.12665286967922,41.28218000419505,3.306332643483961,0.648458967126753,Right,Correct,0.0,0.0,-45,45,2004,725,-0.77
"{'cat': 'RB', 'resp': 'reach'}",42,82,Right,62.033376019117256,15.683712898640934,3.101668800955863,0.2463591861169092,Right,Correct,0.0,0.0,-45,45,2009,1833,-0.79
"{'cat': 'RB', 'resp': 'reach'}",42,83,Left,47.52070266348465,28.56270252434911,2.3760351331742324,0.44866188208582897,Right,Incorrect,0.0,0.0,-45,45,2004,929,-0.8
"{'cat': 'RB', 'resp': 'reach'}",42,84,Right,61.938619478964796,46.35533834508528,3.0969309739482402,0.7281479519979458,Right,Correct,0.0,0.0,-45,45,2004,1942,-0.82
"{'cat': 'RB', 'resp': 'reach'}",42,85,Left,43.05950050337378,13.230821798824053,2.152975025168689,0.20782926282070668,Left,Correct,0.0,0.0,-45,45,2009,1108,-2.22
"{'cat': 'RB', 'resp': 'reach'}",42,86,Left,47.57250621179241,66.10165253866607,2.3786253105896207,1.0383223300280922,Left,Correct,0.0,0.0,-45,45,2008,1246,-2.39
"{'cat': 'RB', 'resp': 'reach'}",42,87,Right,63.4091171303487,74.44726335103067,3.170455856517435,1.169414878117313,Right,Correct,0.0,0.0,-45,45,2008,1954,-0.8
"{'cat': 'RB', 'resp': 'reach'}",42,88,Right,62.004955767851335,54.15988759638211,3.1002477883925668,0.850741524960215,Left,Incorrect,0.0,0.0,-45,45,2009,1004,-2.34
"{'cat': 'RB', 'resp': 'reach'}",42,89,Right,52.097734708598914,36.97529196634617,2.6048867354299454,0.5808065280290541,Left,Incorrect,0.0,0.0,-45,45,2008,1038,-2.31
"{'cat': 'RB', 'resp': 'reach'}",42,90,Left,34.853265924648674,38.43756836062346,1.7426632962324335,0.6037759119179508,Left,Correct,0.0,0.0,-45,45,2008,917,-2.39
"{'cat': 'RB', 'resp': 'reach'}",42,91,Left,35.758255365627896,34.253406649685495,1.7879127682813947,0.5380512534553786,Left,Correct,0.0,0.0,-45,45,2017,746,-2.43
"{'cat': 'RB', 'resp': 'reach'}",42,92,Left,37.228453819903706,64.12730612145069,1.8614226909951852,1.0073093690282662,Left,Correct,0.0,0.0,-45,45,2004,796,-2.2
"{'cat': 'RB', 'resp': 'reach'}",42,93,Right,59.05794983806486,13.939449979878738,2.952897491903243,0.2189603682593472,Right,Correct,0.0,0.0,-45,45,2009,1620,-0.84
"{'cat': 'RB', 'resp': 'reach'}",42,94,Right,61.23624158387918,90.1557124657245,3.0618120791939587,1.4161626198073693,Right,Correct,0.0,0.0,-45,45,2004,917,-0.79
"{'cat': 'RB', 'resp': 'reach'}",42,95,Right,51.55233233665267,60.67629828676064,2.5776166168326338,0.9531010647235507,Right,Correct,0.0,0.0,-45,45,2004,1558,-0.78
"{'cat': 'RB', 'resp': 'reach'}",42,96,Right,61.64989805253631,12.25986497990462,3.0824949026268156,0.19257750877435567,Right,Correct,0.0,0.0,-45,45,2008,746,-0.85
"{'cat': 'RB', 'resp': 'reach'}",42,97,Left,44.481911767735554,55.23546990445939,2.2240955883867777,0.8676367323471488,Left,Correct,0.0,0.0,-45,45,2005,1054,-2.3
"{'cat': 'RB', 'resp': 'reach'}",42,98,Right,51.24561083964757,58.17996462521714,2.5622805419823784,0.9138887472634809,Left,Incorrect,0.0,0.0,-45,45,2008,1471,-2.36
"{'cat': 'RB', 'resp': 'reach'}",42,99,Right,51.513464230800025,54.73497480285934,2.575673211540001,0.8597749736754269,Right,Correct,0.0,0.0,-45,45,2004,1646,-0.77
"{'cat': 'RB', 'resp': 'reach'}",42,100,Right,59.37808128411047,21.844561017697583,2.9689040642055238,0.3431335620704635,Right,Correct,0.0,0.0,-45,45,2009,1295,-0.83
"{'cat': 'RB', 'resp': 'reach'}",42,101,Right,62.62293648802961,57.409688543002325,3.1311468244014806,0.9017892788578712,Right,Correct,0.0,0.0,-45,45,2008,1471,-0.79
"{'cat': 'RB', 'resp': 'reach'}",42,102,Left,39.28523206085237,78.3740373995492,1.9642616030426185,1.231096500632977,Left,Correct,0.0,0.0,-45,45,2004,1250,-2.32
"{'cat': 'RB', 'resp': 'reach'}",42,103,Right,54.989381466936614,49.647008263057614,2.7494690733468308,0.7798533821596678,Right,Correct,0.0,0.0,-45,45,2004,1337,-0.85
"{'cat': 'RB', 'resp': 'reach'}",42,104,Left,35.75939178327498,59.4393080743865,1.7879695891637488,0.9336704679047656,Left,Correct,0.0,0.0,-45,45,2004,775,-2.33
"{'cat': 'RB', 'resp': 'reach'}",42,105,Left,33.052948507170896,44.10280346757473,1.6526474253585448,0.6927652168822361,Left,Correct,0.0,0.0,-45,45,2004,817,-2.28
"{'cat': 'RB', 'resp': 'reach'}",42,106,Right,59.81826457848888,47.9109227332657,2.990913228924444,0.7525830144276786,Right,Correct,0.0,0.0,-45,45,2009,1158,-0.79
"{'cat': 'RB', 'resp': 'reach'}",42,107,Left,45.05150269552274,54.73941477488915,2.252575134776137,0.8598447165929817,Left,Correct,0.0,0.0,-45,45,2012,867,-2.17
"{'cat': 'RB', 'resp': 'reach'}",42,108,Left,39.20086468258298,83.5946375468873,1.9600432341291492,1.313101495984013,Left,Correct,0.0,0.0,-45,45,2004,850,-2.35
"{'cat': 'RB', 'resp': 'reach'}",42,109,Left,37.74170589889258,21.703965616603885,1.887085294944629,0.34092509467444115,Left,Correct,0.0,0.0,-45,45,2008,967,-2.53
"{'cat': 'RB', 'resp': 'reach'}",42,110,Left,36.6682457536952,32.72965190697303,1.83341228768476,0.5141161699274882,Left,Correct,0.0,0.0,-45,45,2005,745,-2.27
"{'cat': 'RB', 'resp': 'reach'}",42,111,Left,41.25695293202377,56.337467816855934,2.0628476466011887,0.8849468750764301,Left,Correct,0.0,0.0,-45,45,2004,817,-2.32
"{'cat': 'RB', 'resp': 'reach'}",42,112,Right,61.58073185265569,20.104899031886102,3.079036592632784,0.3158070154986896,Right,Correct,0.0,0.0,-45,45,2004,917,-0.79
"{'cat': 'RB', 'resp': 'reach'}",42,113,Right,63.46788942885314,52.85608439674562,3.173394471442657,0.8302614321916907,Right,Correct,0.0,0.0,-45,45,2013,724,-0.78
"{'cat': 'RB', 'resp': 'reach'}",42,114,Left,47.094609494488,71.95233445214117,2.3547304747244,1.1302246266174125,Left,Correct,0.0,0.0,-45,45,2008,1779,-2.45
"{'cat': 'RB', 'resp': 'reach'}",42,115,Right,55.10668823472449,61.90194145332971,2.7553344117362246,0.9723534225636304,Right,Correct,0.0,0.0,-45,45,2004,1309,-0.78
"{'cat': 'RB', 'resp': 'reach'}",42,116,Right,66.35361221588194,58.78354371841648,3.317680610794097,0.9233697454887582,Left,Incorrect,0.0,0.0,-45,45,2004,784,-2.33
"{'cat': 'RB', 'resp': 'reach'}",42,117,Left,43.13477177576945,88.32348282576302,2.1567385887884725,1.3873820239244068,Left,Correct,0.0,0.0,-45,45,2009,812,-2.35
"{'cat': 'RB', 'resp': 'reach'}",42,118,Right,67.79748938481826,51.953543200597416,3.3898744692409135,0.8160843482347838,Right,Correct,0.0,0.0,-45,45,2008,796,-0.8
"{'cat': 'RB', 'resp': 'reach'}",42,119,Right,59.56474001606495,18.82391067604253,2.9782370008032477,0.2956852974584284,Right,Correct,0.0,0.0,-45,45,2004,796,-0.85
"{'cat': 'RB', 'resp': 'reach'}",42,120,Left,44.148320604280954,80.85261926065397,2.207416030214048,1.2700299734638156,Left,Correct,0.0,0.0,-45,45,2004,929,-2.4
"{'cat': 'RB', 'resp': 'reach'}",42,121,Left,41.27127333500147,81.45215084754791,2.063563666750073,1.2794473936087207,Left,Correct,0.0,0.0,-45,45,2004,1059,-2.36
"{'cat': 'RB', 'resp': 'reach'}",42,122,Left,41.4320599584626,33.133540547503,2.0716029979231303,0.5204604378572748,Left,Correct,0.0,0.0,-45,45,2013,1483,-2.37
"{'cat': 'RB', 'resp': 'reach'}",42,123,Left,39.35012832405137,22.15421509360556,1.9675064162025684,0.34799759692059673,Left,Correct,0.0,0.0,-45,45,2013,787,-2.37
"{'cat': 'RB', 'resp': 'reach'}",42,124,Left,31.126809395754236,51.64977828136015,1.556340469787712,0.8113128200413134,Left,Correct,0.0,0.0,-45,45,2004,884,-2.43
"{'cat': 'RB', 'resp': 'reach'}",42,125,Right,65.71569618137794,22.86051857781287,3.285784809068897,0.3590921861065495,Right,Correct,0.0,0.0,-45,45,2005,695,-0.76
"{'cat': 'RB', 'resp': 'reach'}",42,126,Right,58.83194385739914,89.96438436699097,2.941597192869957,1.4131572450603365,Right,Correct,0.0,0.0,-45,45,2004,904,-0.84
"{'cat': 'RB', 'resp': 'reach'}",42,127,Right,59.67088827736512,12.456256848006468,2.9835444138682563,0.19566242502462336,Right,Correct,0.0,0.0,-45,45,2009,796,-0.82
"{'cat': 'RB', 'resp': 'reach'}",42,128,Right,58.65181596197892,9.708005444728848,2.9325907980989463,0.15249299293084928,Right,Correct,0.0,0.0,-45,45,2008,846,-0.78
"{'cat': 'RB', 'resp': 'reach'}",42,129,Right,52.64518779728619,24.551289613839128,2.6322593898643096,0.3856507554349619,Left,Incorrect,0.0,0.0,-45,45,2013,1208,-2.23
"{'cat': 'RB', 'resp': 'reach'}",42,130,Left,36.391184118665954,80.43003943179576,1.819559205933298,1.2633921050343346,Left,Correct,0.0,0.0,-45,45,2004,996,-2.52
"{'cat': 'RB', 'resp': 'reach'}",42,131,Left,47.40429278173769,48.22722503545123,2.3702146390868846,0.7575514793719766,Left,Correct,0.0,0.0,-45,45,2005,1179,-2.24
"{'cat': 'RB', 'resp': 'reach'}",42,132,Right,58.7622460340524,39.839659455764256,2.9381123017026205,0.6257999073387406,Right,Correct,0.0,0.0,-45,45,2004,796,-0.8
"{'cat': 'RB', 'resp': 'reach'}",42,133,Right,59.3455329401951,59.0655098828262,2.9672766470097547,0.9277988596421104,Right,Correct,0.0,0.0,-45,45,2005,637,-0.73
"{'cat': 'RB', 'resp': 'reach'}",42,134,Left,36.144368563978304,26.91909521927685,1.8072184281989152,0.42284415891082133,Left,Correct,0.0,0.0,-45,45,2004,767,-2.26
"{'cat': 'RB', 'resp': 'reach'}",42,135,Left,39.12629983472439,34.47681203447013,1.9563149917362197,0.5415604970334377,Left,Correct,0.0,0.0,-45,45,2008,1508,-2.38
"{'cat': 'RB', 'resp': 'reach'}",42,136,Right,57.00647925024094,70.69654540462403,2.8503239625120473,1.1104987383867204,Right,Correct,0.0,0.0,-45,45,2008,1017,-0.88
"{'cat': 'RB', 'resp': 'reach'}",42,137,Right,56.16033310684306,59.58568285728779,2.8080166553421533,0.935969717617933,Right,Correct,0.0,0.0,-45,45,2004,1129,-0.8
"{'cat': 'RB', 'resp': 'reach'}",42,138,Right,59.53385450338153,90.80882044476543,2.9766927251690767,1.4264216159521486,Right,Correct,0.0,0.0,-45,45,2004,1171,-0.87
"{'cat': 'RB', 'resp': 'reach'}",42,139,Right,51.52373249331296,56.153774297553966,2.5761866246656484,0.8820614240226744,Right,Correct,0.0,0.0,-45,45,2013,1191,-0.82
"{'cat': 'RB', 'resp': 'reach'}",42,140,Left,33.071937250910615,30.460816209131462,1.6535968625455308,0.47847738212478147,Left,Correct,0.0,0.0,-45,45,2004,846,-2.32
"{'cat': 'RB', 'resp': 'reach'}",42,141,Left,44.712665347449764,25.649377661825085,2.235633267372488,0.40289948215769916,Right,Incorrect,0.0,0.0,-45,45,2012,967,-0.75
"{'cat': 'RB', 'resp': 'reach'}",42,142,Right,60.54768597858113,59.48217004168795,3.0273842989290562,0.9343437421127287,Right,Correct,0.0,0.0,-45,45,2009,1400,-0.78
"{'cat': 'RB', 'resp': 'reach'}",42,143,Left,37.16927112664772,52.39682022940627,1.858463556332386,0.823047327520839,Left,Correct,0.0,0.0,-45,45,2008,1059,-2.53
"{'cat': 'RB', 'resp': 'reach'}",42,144,Left,41.95457451588172,75.44414946772844,2.0977287257940858,1.1850739286207297,Left,Correct,0.0,0.0,-45,45,2008,1188,-2.44
"{'cat': 'RB', 'resp': 'reach'}",42,145,Right,61.02091765678736,87.36505669626419,3.0510458828393676,1.3723271014871965,Right,Correct,0.0,0.0,-45,45,2017,625,-0.82
"{'cat': 'RB', 'resp': 'reach'}",42,146,Left,46.28697716110449,53.0462455072726,2.3143488580552245,0.8332484759308408,Right,Incorrect,0.0,0.0,-45,45,2012,929,-0.79
"{'cat': 'RB', 'resp': 'reach'}",42,147,Left,37.66137148023705,89.73933781741465,1.8830685740118525,1.4096222221260128,Left,Correct,0.0,0.0,-45,45,2004,934,-2.43
"{'cat': 'RB', 'resp': 'reach'}",42,148,Right,59.612951612280334,39.815445843284,2.9806475806140167,0.6254195608033164,Right,Correct,0.0,0.0,-45,45,2004,696,-0.87
"{'cat': 'RB', 'resp': 'reach'}",42,149,Right,66.97996215932864,52.46584950802493,3.3489981079664317,0.824131636893794,Right,Correct,0.0,0.0,-45,45,2004,717,-0.77
"{'cat': 'RB', 'resp': 'reach'}",42,150,Left,48.857473476209435,54.67353572296807,2.442873673810472,0.8588098908652781,Right,Incorrect,0.0,0.0,-45,45,2004,1058,-0.85
"{'cat': 'RB', 'resp': 'reach'}",42,151,Right,63.00271494273285,18.697900307064064,3.1501357471366425,0.293705931211134,Right,Correct,0.0,0.0,-45,45,2008,896,-0.84
"{'cat': 'RB', 'resp': 'reach'}",42,152,Right,60.33787969266045,85.99640765054892,3.0168939846330227,1.350828412550388,Right,Correct,0.0,0.0,-45,45,2009,762,-0.78
"{'cat': 'RB', 'resp': 'reach'}",42,153,Right,67.88473796090022,52.36442464894425,3.394236898045011,0.8225384589328978,Right,Correct,0.0,0.0,-45,45,2017,675,-0.9
"{'cat': 'RB', 'resp': 'reach'}",42,154,Left,40.78195422943884,53.676131472716165,2.0390977114719417,0.8431427015390249,Left,Correct,0.0,0.0,-45,45,2008,825,-2.33
"{'cat': 'RB', 'resp': 'reach'}",42,155,Left,35.04144918525242,53.54293498915308,1.752072459262621,0.8410504560677959,Left,Correct,0.0,0.0,-45,45,2004,867,-2.41
"{'cat': 'RB', 'resp': 'reach'}",42,156,Left,35.79456803745786,83.75599536545724,1.7897284018728927,1.3156360986711062,Left,Correct,0.0,0.0,-45,45,2004,1029,-2.39
"{'cat': 'RB', 'resp': 'reach'}",42,157,Left,40.590606812683795,70.04412915841536,2.02953034063419,1.1002506079558616,Left,Correct,0.0,0.0,-45,45,2005,866,-2.38
"{'cat': 'RB', 'resp': 'reach'}",42,158,Right,58.752989007194756,54.74754901902945,2.9376494503597375,0.85997248900115,Right,Correct,0.0,0.0,-45,45,2016,867,-0.78
"{'cat': 'RB', 'resp': 'reach'}",42,159,Right,64.31346388088573,38.61173860277937,3.2156731940442866,0.6065117716841054,Right,Correct,0.0,0.0,-45,45,2012,738,-0.8
"{'cat': 'RB', 'resp': 'reach'}",42,160,Left,44.5378097935588,77.47868309573192,2.22689048967794,1.2170323081168155,Left,Correct,0.0,0.0,-45,45,2013,1000,-2.39
"{'cat': 'RB', 'resp': 'reach'}",42,161,Left,43.979552743763655,79.00026210500283,2.198977637188183,1.240933215303725,Left,Correct,0.0,0.0,-45,45,2012,1925,-2.29
"{'cat': 'RB', 'resp': 'reach'}",42,162,Right,58.88552371257187,82.32561024183678,2.9442761856285933,1.2931676616902552,Right,Correct,0.0,0.0,-45,45,2008,863,-0.88
"{'cat': 'RB', 'resp': 'reach'}",42,163,Left,47.529345984185014,36.76701382063494,2.3764672992092506,0.5775349025667057,Left,Correct,0.0,0.0,-45,45,2008,958,-2.27
"{'cat': 'RB', 'resp': 'reach'}",42,164,Right,63.79535572102255,31.904212522727466,3.1897677860511275,0.5011501983998404,Right,Correct,0.0,0.0,-45,45,2013,658,-0.8
"{'cat': 'RB', 'resp': 'reach'}",42,165,Right,53.36030320259131,59.2163725123372,2.668015160129565,0.9301686042849755,Left,Incorrect,0.0,0.0,-45,45,2004,1058,-2.32
"{'cat': 'RB', 'resp': 'reach'}",42,166,Left,47.57154866583962,52.127741929468215,2.3785774332919813,0.8188206554692098,Left,Correct,0.0,0.0,-45,45,2008,926,-2.31
"{'cat': 'RB', 'resp': 'reach'}",42,167,Right,66.490150138876,40.101790688778095,3.3245075069438004,0.6299174551183041,Right,Correct,0.0,0.0,-45,45,2009,862,-0.8
"{'cat': 'RB', 'resp': 'reach'}",42,168,Right,63.17577452796008,81.45700484105211,3.1587887263980043,1.2795236399603878,Right,Correct,0.0,0.0,-45,45,2008,704,-0.85
"{'cat': 'RB', 'resp': 'reach'}",42,169,Left,34.14115507622007,54.21141816035428,1.7070577538110034,0.8515509651662665,Left,Correct,0.0,0.0,-45,45,2008,817,-2.34
"{'cat': 'RB', 'resp': 'reach'}",42,170,Left,32.20999859678603,35.299656244830956,1.6104999298393015,0.5544857036650299,Left,Correct,0.0,0.0,-45,45,2004,746,-2.3
"{'cat': 'RB', 'resp': 'reach'}",42,171,Right,60.73512775849026,86.39822574176296,3.036756387924513,1.3571401563675753,Right,Correct,0.0,0.0,-45,45,2013,708,-0.96
"{'cat': 'RB', 'resp': 'reach'}",42,172,Left,36.38921672592631,79.1576036947211,1.8194608362963154,1.2434047312155405,Left,Correct,0.0,0.0,-45,45,2005,837,-2.37
"{'cat': 'RB', 'resp': 'reach'}",42,173,Left,41.38134107899819,11.923673062502253,2.0690670539499094,0.1872966184848179,Right,Incorrect,0.0,0.0,-45,45,2012,796,-0.88
"{'cat': 'RB', 'resp': 'reach'}",42,174,Left,40.74582641517118,56.4904531847098,2.037291320758559,0.8873499636152123,Left,Correct,0.0,0.0,-45,45,2012,825,-2.4
"{'cat': 'RB', 'resp': 'reach'}",42,175,Left,38.27902859004902,58.22907377969316,1.9139514295024511,0.9146601520581102,Left,Correct,0.0,0.0,-45,45,2013,966,-2.31
"{'cat': 'RB', 'resp': 'reach'}",42,176,Right,65.3591990420479,40.35389477174447,3.2679599521023954,0.6338774967932399,Right,Correct,0.0,0.0,-45,45,2004,696,-0.9
"{'cat': 'RB', 'resp': 'reach'}",42,177,Right,64.91821019499478,36.49391335019078,3.2459105097497396,0.573245050408509,Right,Correct,0.0,0.0,-45,45,2005,1141,-0.86
"{'cat': 'RB', 'resp': 'reach'}",42,178,Left,38.50009228757269,27.11168450483274,1.9250046143786346,0.42586934433413387,Left,Correct,0.0,0.0,-45,45,2005,1191,-2.39
"{'cat': 'RB', 'resp': 'reach'}",42,179,Right,64.96168857835332,47.32733775328034,3.2480844289176662,0.7434160829983418,Right,Correct,0.0,0.0,-45,45,2008,2196,-0.78
"{'cat': 'RB', 'resp': 'reach'}",42,180,Left,42.18228640958182,48.48580648692194,2.109114320479091,0.7616132673134514,Left,Correct,0.0,0.0,-45,45,2004,817,-2.29
"{'cat': 'RB', 'resp': 'reach'}",42,181,Right,57.296480117331384,59.52409247027191,2.864824005866569,0.9350022580810288,Right,Correct,0.0,0.0,-45,45,2013,900,-0.85
"{'cat': 'RB', 'resp': 'reach'}",42,182,Right,55.75930847439298,48.18439265005354,2.787965423719649,0.756878669835471,Right,Correct,0.0,0.0,-45,45,2008,1812,-0.74
"{'cat': 'RB', 'resp': 'reach'}",42,183,Right,62.86150790287777,26.644593862606108,3.1430753951438883,0.41853230168323524,Right,Correct,0.0,0.0,-45,45,2013,846,-0.77
"{'cat': 'RB', 'resp': 'reach'}",42,184,Right,60.709215767473964,89.41433746562521,3.035460788373698,1.4045171285380338,Right,Correct,0.0,0.0,-45,45,2012,1092,-0.82
"{'cat': 'RB', 'resp': 'reach'}",42,185,Right,61.28420606867831,72.09352327673676,3.0642103034339154,1.1324424154880046,Right,Correct,0.0,0.0,-45,45,2004,959,-0.8
"{'cat': 'RB', 'resp': 'reach'}",42,186,Left,46.262340782695325,77.8805614040429,2.313117039134766,1.2233449978219497,Left,Correct,0.0,0.0,-45,45,2008,938,-2.23
"{'cat': 'RB', 'resp': 'reach'}",42,187,Right,69.22942602256605,45.166267586746805,3.4614713011283023,0.7094700722029728,Right,Correct,0.0,0.0,-45,45,2017,674,-0.88
"{'cat': 'RB', 'resp': 'reach'}",42,188,Right,65.95330740485879,41.75020465981038,3.2976653702429393,0.6558106812256532,Right,Correct,0.0,0.0,-45,45,2004,854,-0.88
"{'cat': 'RB', 'resp': 'reach'}",42,189,Right,54.74823588173524,48.71175811454149,2.737411794086762,0.7651625071804327,Left,Incorrect,0.0,0.0,-45,45,2004,2459,-2.41
"{'cat': 'RB', 'resp': 'reach'}",42,190,Right,58.414902437700654,12.84085591724984,2.9207451218850324,0.2017036930771856,Right,Correct,0.0,0.0,-45,45,2008,883,-0.79
"{'cat': 'RB', 'resp': 'reach'}",42,191,Right,60.51366174479061,65.38685144089015,3.0256830872395306,1.0270942606403384,Right,Correct,0.0,0.0,-45,45,2004,833,-0.82
"{'cat': 'RB', 'resp': 'reach'}",42,192,Right,54.06783979563221,66.87063448266998,2.7033919897816103,1.0504014701582216,Left,Incorrect,0.0,0.0,-45,45,2013,916,-2.41
"{'cat': 'RB', 'resp': 'reach'}",42,193,Left,31.64399797736398,59.354753338878865,1.5821998988681991,0.9323422852252803,Left,Correct,0.0,0.0,-45,45,2005,916,-2.33
"{'cat': 'RB', 'resp': 'reach'}",42,194,Right,52.079265641117466,71.29861869512771,2.6039632820558736,1.1199560835185656,Right,Correct,0.0,0.0,-45,45,2004,746,-0.82
"{'cat': 'RB', 'resp': 'reach'}",42,195,Right,52.010280675752554,62.88218022328263,2.6005140337876274,0.9877509771558703,Right,Correct,0.0,0.0,-45,45,2004,1521,-0.8
"{'cat': 'RB', 'resp': 'reach'}",42,196,Right,61.23688804918371,80.53921154891265,3.0618444024591853,1.265106976639891,Right,Correct,0.0,0.0,-45,45,2003,846,-0.84
"{'cat': 'RB', 'resp': 'reach'}",42,197,Right,62.62759336066415,19.849915151173906,3.1313796680332073,0.3118017380665434,Right,Correct,0.0,0.0,-45,45,2017,1250,-0.83
"{'cat': 'RB', 'resp': 'reach'}",42,198,Left,40.56485419901367,33.99462881179264,2.0282427099506837,0.5339863806831984,Left,Correct,0.0,0.0,-45,45,2008,896,-2.25
"{'cat': 'RB', 'resp': 'reach'}",42,199,Left,36.697986892711604,63.579165766550304,1.8348993446355804,0.9986992004678104,Left,Correct,0.0,0.0,-45,45,2004,1483,-2.5
"{'cat': 'RB', 'resp': 'reach'}",42,200,Left,43.01009646343094,80.41686114078631,2.150504823171547,1.2631851009232238,Left,Correct,0.0,0.0,-45,45,2009,795,-2.43
"{'cat': 'RB', 'resp': 'reach'}",42,201,Left,38.017537768597556,18.741541326708102,1.9008768884298777,0.2943914427446784,Left,Correct,0.0,0.0,-45,45,2017,933,-2.36
"{'cat': 'RB', 'resp': 'reach'}",42,202,Left,38.481992762374546,49.67733765731287,1.9240996381187272,0.7803297951705684,Left,Correct,0.0,0.0,-45,45,2009,1300,-2.48
"{'cat': 'RB', 'resp': 'reach'}",42,203,Right,63.74143954453822,77.4264886829948,3.187071977226911,1.2162124401987486,Right,Correct,0.0,0.0,-45,45,2008,704,-0.81
"{'cat': 'RB', 'resp': 'reach'}",42,204,Left,42.357306179161306,76.57761772500953,2.117865308958065,1.2028784063714875,Left,Correct,0.0,0.0,-45,45,2004,1267,-2.37
"{'cat': 'RB', 'resp': 'reach'}",42,205,Left,40.08037089067836,47.303107102311884,2.004018544533918,0.743035468822971,Left,Correct,0.0,0.0,-45,45,2004,1058,-2.37
"{'cat': 'RB', 'resp': 'reach'}",42,206,Right,54.89329775892817,79.90527001554275,2.744664887946408,1.2551490463196895,Right,Correct,0.0,0.0,-45,45,2016,675,-0.78
"{'cat': 'RB', 'resp': 'reach'}",42,207,Left,37.11340322507218,40.94299557421843,1.855670161253609,0.6431310705596202,Left,Correct,0.0,0.0,-45,45,2016,763,-2.37
"{'cat': 'RB', 'resp': 'reach'}",42,208,Left,45.26325796012369,77.3772075787017,2.2631628980061844,1.2154383344227087,Left,Correct,0.0,0.0,-45,45,2012,859,-2.34
"{'cat': 'RB', 'resp': 'reach'}",42,209,Right,66.1513241678702,35.473172405484306,3.30756620839351,0.5572112891429684,Right,Correct,0.0,0.0,-45,45,2004,662,-0.8
"{'cat': 'RB', 'resp': 'reach'}",42,210,Right,62.687401978559144,83.79501565466421,3.1343700989279575,1.316249027940674,Right,Correct,0.0,0.0,-45,45,2004,837,-0.82
"{'cat': 'RB', 'resp': 'reach'}",42,211,Left,35.81849701800796,81.51217123617242,1.790924850900398,1.2803901916685625,Left,Correct,0.0,0.0,-45,45,2004,937,-2.22
"{'cat': 'RB', 'resp': 'reach'}",42,212,Left,41.10576866678829,24.85087658575711,2.0552884333394146,0.39035665658540564,Left,Correct,0.0,0.0,-45,45,2004,1458,-2.38
"{'cat': 'RB', 'resp': 'reach'}",42,213,Left,36.44554063036925,60.334197701360246,1.8222770315184624,0.9477273612941376,Left,Correct,0.0,0.0,-45,45,2012,808,-2.32
"{'cat': 'RB', 'resp': 'reach'}",42,214,Right,61.06103400918056,70.68181350300483,3.053051700459028,1.110267330217219,Right,Correct,0.0,0.0,-45,45,2009,1037,-0.88
"{'cat': 'RB', 'resp': 'reach'}",42,215,Left,39.56919935661178,33.168693749227,1.9784599678305892,0.5210126230587062,Left,Correct,0.0,0.0,-45,45,2004,855,-2.26
"{'cat': 'RB', 'resp': 'reach'}",42,216,Left,43.22357054821733,34.04909083077249,2.1611785274108666,0.5348418680768322,Left,Correct,0.0,0.0,-45,45,2013,2326,-2.33
"{'cat': 'RB', 'resp': 'reach'}",42,217,Left,40.928787718578754,67.73526201811464,2.0464393859289376,1.0639830077254433,Left,Correct,0.0,0.0,-45,45,2003,1038,-2.55
"{'cat': 'RB', 'resp': 'reach'}",42,218,Right,65.76768242937305,62.55061049168244,3.2883841214686527,0.982542691991131,Right,Correct,0.0,0.0,-45,45,2012,746,-0.91
"{'cat': 'RB', 'resp': 'reach'}",42,219,Left,35.480117317690585,83.85807780152521,1.7740058658845295,1.3172396058271647,Left,Correct,0.0,0.0,-45,45,2017,896,-2.29
"{'cat': 'RB', 'resp': 'reach'}",42,220,Left,46.12147691412671,81.32007661855526,2.3060738457063352,1.2773727764710616,Left,Correct,0.0,0.0,-45,45,2008,1125,-2.33
"{'cat': 'RB', 'resp': 'reach'}",42,221,Left,33.26208896829871,36.2894837731381,1.6631044484149355,0.5700338781212833,Left,Correct,0.0,0.0,-45,45,2004,900,-2.41
"{'cat': 'RB', 'resp': 'reach'}",42,222,Left,33.327416492944145,71.92133140659982,1.666370824647207,1.1297376319168544,Left,Correct,0.0,0.0,-45,45,2004,817,-2.31
"{'cat': 'RB', 'resp': 'reach'}",42,223,Right,53.33761879665915,50.20648359846454,2.6668809398329576,0.788641600177563,Right,Correct,0.0,0.0,-45,45,2008,704,-0.84
"{'cat': 'RB', 'resp': 'reach'}",42,224,Right,63.15679146407343,31.869295058240326,3.1578395732036717,0.5006017161502666,Right,Correct,0.0,0.0,-45,45,2009,754,-0.76
"{'cat': 'RB', 'resp': 'reach'}",42,225,Right,59.673702579290776,75.9998411377238,2.9836851289645385,1.1938027129613222,Right,Correct,0.0,0.0,-45,45,2013,987,-0.79
"{'cat': 'RB', 'resp': 'reach'}",42,226,Right,61.94594338206155,66.37683006500652,3.0972971691030775,1.0426448085040128,Right,Correct,0.0,0.0,-45,45,2009,745,-0.88
"{'cat': 'RB', 'resp': 'reach'}",42,227,Left,42.95722594030194,48.0755627012771,2.147861297015097,0.755169172997638,Left,Correct,0.0,0.0,-45,45,2017,825,-2.38
"{'cat': 'RB', 'resp': 'reach'}",42,228,Left,40.03496007856248,77.3492295413432,2.0017480039281237,1.2149988564395722,Left,Correct,0.0,0.0,-45,45,2008,1400,-2.37
"{'cat': 'RB', 'resp': 'reach'}",42,229,Left,47.40410581577401,66.43838984459458,2.3702052907887006,1.0436117872605652,Left,Correct,0.0,0.0,-45,45,2004,1512,-2.37
"{'cat': 'RB', 'resp': 'reach'}",42,230,Right,56.8537130254231,59.90183434116083,2.842685651271155,0.9409358135137184,Right,Correct,0.0,0.0,-45,45,2013,687,-0.81
"{'cat': 'RB', 'resp': 'reach'}",42,231,Left,39.094658285966084,41.76912684749263,1.9547329142983043,0.6561079102547152,Left,Correct,0.0,0.0,-45,45,2008,946,-2.43
"{'cat': 'RB', 'resp': 'reach'}",42,232,Right,65.37722553053945,75.77649936361458,3.2688612765269727,1.1902944685774162,Right,Correct,0.0,0.0,-45,45,2004,667,-0.84
"{'cat': 'RB', 'resp': 'reach'}",42,233,Right,59.31552699599631,77.14057558626128,2.9657763497998157,1.2117213277774328,Right,Correct,0.0,0.0,-45,45,2005,1716,-0.77
"{'cat': 'RB', 'resp': 'reach'}",42,234,Right,52.42809573212992,38.96373745455223,2.621404786606496,0.6120409567181138,Right,Correct,0.0,0.0,-45,45,2008,834,-0.84
"{'cat': 'RB', 'resp': 'reach'}",42,235,Right,63.67897158333678,85.21457784905355,3.1839485791668394,1.338547458746711,Right,Correct,0.0,0.0,-45,45,2013,1795,-0.85
"{'cat': 'RB', 'resp': 'reach'}",42,236,Left,38.126519718866966,54.07232417549025,1.9063259859433483,0.8493660819612298,Left,Correct,0.0,0.0,-45,45,2008,846,-2.28
"{'cat': 'RB', 'resp': 'reach'}",42,237,Right,61.23481195366534,76.74229448653426,3.0617405976832672,1.2054651428926024,Right,Correct,0.0,0.0,-45,45,2017,633,-0.8
"{'cat': 'RB', 'resp': 'reach'}",42,238,Right,61.326504763346264,85.965952145069,3.0663252381673134,1.3503500185890025,Right,Correct,0.0,0.0,-45,45,2004,704,-0.81
"{'cat': 'RB', 'resp': 'reach'}",42,239,Left,39.05262149900946,18.12047648812963,1.9526310749504732,0.2846357790732731,Left,Correct,0.0,0.0,-45,45,2004,976,-2.44
"{'cat': 'RB', 'resp': 'reach'}",42,240,Right,62.87603709397243,11.360588169050352,3.143801854698621,0.17845170166173854,Right,Correct,0.0,0.0,-45,45,2008,796,-0.89
"{'cat': 'RB', 'resp': 'reach'}",42,241,Right,63.583093384716996,67.18479179386472,3.17915466923585,1.055336241662826,Right,Correct,0.0,0.0,-45,45,2004,675,-0.88
"{'cat': 'RB', 'resp': 'reach'}",42,242,Left,35.30503996472731,14.330906753693505,1.7652519982363655,0.22510935688341932,Left,Correct,0.0,0.0,-45,45,2005,854,-2.45
"{'cat': 'RB', 'resp': 'reach'}",42,243,Left,38.83424302271741,35.277183895270184,1.9417121511358704,0.5541327088235849,Left,Correct,0.0,0.0,-45,45,2008,946,-2.32
"{'cat': 'RB', 'resp': 'reach'}",42,244,Left,43.59419237437143,58.01313742595645,2.1797096187185714,0.9112682317453993,Left,Correct,0.0,0.0,-45,45,2013,1554,-2.36
"{'cat': 'RB', 'resp': 'reach'}",42,245,Left,47.47924496397869,70.86819843621628,2.3739622481989344,1.1131950579018035,Left,Correct,0.0,0.0,-45,45,2012,708,-2.42
"{'cat': 'RB', 'resp': 'reach'}",42,246,Right,55.81285708091402,76.96174009074791,2.7906428540457013,1.2089121863829033,Right,Correct,0.0,0.0,-45,45,2013,1041,-0.81
"{'cat': 'RB', 'resp': 'reach'}",42,247,Right,67.55590586829665,48.258519178913474,3.3777952934148323,0.7580430466279834,Right,Correct,0.0,0.0,-45,45,2005,808,-0.81
"{'cat': 'RB', 'resp': 'reach'}",42,248,Right,66.0688181111483,73.37149900782433,3.303440905557415,1.1525168113292585,Right,Correct,0.0,0.0,-45,45,2012,654,-0.77
"{'cat': 'RB', 'resp': 'reach'}",42,249,Right,58.87246205342581,68.11813358862227,2.9436231026712902,1.0699971402913193,Right,Correct,0.0,0.0,-45,45,2012,788,-0.82
"{'cat': 'RB', 'resp': 'reach'}",42,250,Right,66.87601873303028,37.133321053413546,3.3438009366515136,0.5832888431239759,Right,Correct,0.0,0.0,-45,45,2004,696,-0.9
"{'cat': 'RB', 'resp': 'reach'}",42,251,Left,33.80522711736559,23.497281455258697,1.6902613558682793,0.369094433995862,Left,Correct,0.0,0.0,-45,45,2008,692,-2.37
"{'cat': 'RB', 'resp': 'reach'}",42,252,Right,55.26330425757555,56.868607438112946,2.763165212878777,0.8932899967372876,Right,Correct,0.0,0.0,-45,45,2004,725,-0.85
"{'cat': 'RB', 'resp': 'reach'}",42,253,Right,66.21791287185323,66.43080401094464,3.3108956435926613,1.0434926292642352,Right,Correct,0.0,0.0,-45,45,2004,646,-0.81
"{'cat': 'RB', 'resp': 'reach'}",42,254,Right,62.905566887409385,22.687250922453508,3.1452783443704693,0.35637050414064103,Right,Correct,0.0,0.0,-45,45,2004,746,-0.82
"{'cat': 'RB', 'resp': 'reach'}",42,255,Left,39.67176838771083,84.28329022573263,1.9835884193855413,1.3239188269676903,Left,Correct,0.0,0.0,-45,45,2004,867,-2.33
"{'cat': 'RB', 'resp': 'reach'}",42,256,Right,66.56056218917463,21.84239549604329,3.3280281094587316,0.34309954613586197,Right,Correct,0.0,0.0,-45,45,2008,675,-0.8
"{'cat': 'RB', 'resp': 'reach'}",42,257,Right,54.23329706442748,53.12440258995524,2.7116648532213743,0.8344761645147498,Right,Correct,0.0,0.0,-45,45,2017,837,-0.81
"{'cat': 'RB', 'resp': 'reach'}",42,258,Left,40.69027313665718,43.057728781076776,2.0345136568328592,0.676349222094463,Left,Correct,0.0,0.0,-45,45,2004,879,-2.26
"{'cat': 'RB', 'resp': 'reach'}",42,259,Left,35.95184222173919,70.66969232669182,1.7975921110869595,1.11007693122493,Left,Correct,0.0,0.0,-45,45,2009,675,-2.29
"{'cat': 'RB', 'resp': 'reach'}",42,260,Right,69.42199695405253,53.169877065048034,3.4710998477026265,0.8351904758991369,Right,Correct,0.0,0.0,-45,45,2004,816,-0.67
"{'cat': 'RB', 'resp': 'reach'}",42,261,Right,55.647219372410106,13.261367739005692,2.7823609686205053,0.20830907732706483,Right,Correct,0.0,0.0,-45,45,2008,692,-0.77
"{'cat': 'RB', 'resp': 'reach'}",42,262,Left,44.68249843500526,72.8574940660254,2.234124921750263,1.1444428405839366,Left,Correct,0.0,0.0,-45,45,2004,784,-2.29
"{'cat': 'RB', 'resp': 'reach'}",42,263,Right,55.15058562490809,47.77406894029806,2.7575292812454046,0.7504333200746633,Right,Correct,0.0,0.0,-45,45,2005,712,-0.77
"{'cat': 'RB', 'resp': 'reach'}",42,264,Right,57.88596773087493,75.6121704299624,2.8942983865437464,1.1877131957237466,Right,Correct,0.0,0.0,-45,45,2004,917,-0.84
"{'cat': 'RB', 'resp': 'reach'}",42,265,Left,42.97460197099356,56.3883133275904,2.148730098549678,0.8857455544913873,Left,Correct,0.0,0.0,-45,45,2004,887,-2.36
"{'cat': 'RB', 'resp': 'reach'}",42,266,Right,68.14682150975156,29.514809988927432,3.407341075487578,0.4636175511665653,Right,Correct,0.0,0.0,-45,45,2004,837,-0.81
"{'cat': 'RB', 'resp': 'reach'}",42,267,Right,58.57031094535903,18.760611915840816,2.9285155472679514,0.2946910028582732,Right,Correct,0.0,0.0,-45,45,2012,987,-0.79
"{'cat': 'RB', 'resp': 'reach'}",42,268,Right,62.91793602390828,65.2958528746433,3.145896801195414,1.025664858504297,Right,Correct,0.0,0.0,-45,45,2008,833,-0.83
"{'cat': 'RB', 'resp': 'reach'}",42,269,Right,57.71371508075254,33.27727547627188,2.8856857540376275,0.5227182208386976,Right,Correct,0.0,0.0,-45,45,2012,758,-0.84
"{'cat': 'RB', 'resp': 'reach'}",42,270,Right,61.79416257177008,15.463721729922057,3.089708128588504,0.2429035729193999,Right,Correct,0.0,0.0,-45,45,2012,758,-0.82
"{'cat': 'RB', 'resp': 'reach'}",42,271,Right,54.771297650518264,65.5500864856364,2.738564882525913,1.0296583507272543,Right,Correct,0.0,0.0,-45,45,2004,746,-0.81
"{'cat': 'RB', 'resp': 'reach'}",42,272,Left,41.40590303396492,13.247884286565906,2.070295151698246,0.20809727975141554,Left,Correct,0.0,0.0,-45,45,2004,862,-2.35
"{'cat': 'RB', 'resp': 'reach'}",42,273,Left,40.75598541760911,15.00360325596698,2.0377992708804555,0.23567604883160884,Left,Correct,0.0,0.0,-45,45,2013,1170,-2.26
"{'cat': 'RB', 'resp': 'reach'}",42,274,Right,55.82439099808338,46.9187804188117,2.7912195499041688,0.7369984793956574,Right,Correct,0.0,0.0,-45,45,2004,525,-0.86
"{'cat': 'RB', 'resp': 'reach'}",42,275,Left,31.758159032348544,40.41678987736834,1.5879079516174273,0.6348654508021135,Left,Correct,0.0,0.0,-45,45,2008,796,-2.34
"{'cat': 'RB', 'resp': 'reach'}",42,276,Left,31.063654237706487,54.471859172444134,1.5531827118853243,0.8556419630176415,Left,Correct,0.0,0.0,-45,45,2013,637,-2.4
"{'cat': 'RB', 'resp': 'reach'}",42,277,Right,62.2223460908107,10.831676883994078,3.1111173045405347,0.17014358262407087,Right,Correct,0.0,0.0,-45,45,2005,662,-0.88
"{'cat': 'RB', 'resp': 'reach'}",42,278,Left,45.93347131081818,67.68106454054532,2.2966735655409085,1.0631316757385691,Right,Incorrect,0.0,0.0,-45,45,2004,1421,-0.87
"{'cat': 'RB', 'resp': 'reach'}",42,279,Left,46.60709822259727,57.14495872604722,2.330354911129864,0.8976309126172094,Left,Correct,0.0,0.0,-45,45,2013,1625,-2.33
"{'cat': 'RB', 'resp': 'reach'}",42,280,Right,63.81057430940548,53.0738166194994,3.1905287154702737,0.8336815619489559,Right,Correct,0.0,0.0,-45,45,2004,675,-0.84
"{'cat': 'RB', 'resp': 'reach'}",42,281,Right,62.766705921106784,85.45229815864957,3.138335296055339,1.3422815606378904,Right,Correct,0.0,0.0,-45,45,2017,787,-0.81
"{'cat': 'RB', 'resp': 'reach'}",42,282,Left,31.272419349424318,54.10124701267635,1.563620967471216,0.8498204008253539,Left,Correct,0.0,0.0,-45,45,2004,696,-2.39
"{'cat': 'RB', 'resp': 'reach'}",42,283,Right,59.60196096024513,83.10799127408927,2.9800980480122563,1.3054572742064174,Right,Correct,0.0,0.0,-45,45,2017,796,-0.81
"{'cat': 'RB', 'resp': 'reach'}",42,284,Right,57.53111606552286,87.37375651523823,2.876555803276143,1.3724637579240786,Right,Correct,0.0,0.0,-45,45,2008,834,-0.81
"{'cat': 'RB', 'resp': 'reach'}",42,285,Left,34.735933701957755,82.13181367845196,1.7367966850978878,1.2901235123911519,Left,Correct,0.0,0.0,-45,45,2004,625,-2.34
"{'cat': 'RB', 'resp': 'reach'}",42,286,Right,55.599500961817945,17.211518369095494,2.7799750480908973,0.2703578983273809,Right,Correct,0.0,0.0,-45,45,2004,1371,-0.8
"{'cat': 'RB', 'resp': 'reach'}",42,287,Left,39.76703514867492,47.323837391293466,1.9883517574337461,0.7433610994408275,Left,Correct,0.0,0.0,-45,45,2005,904,-2.38
"{'cat': 'RB', 'resp': 'reach'}",42,288,Right,65.88632550548347,75.6761408029347,3.2943162752741735,1.1887180399926323,Right,Correct,0.0,0.0,-45,45,2012,725,-0.83
"{'cat': 'RB', 'resp': 'reach'}",42,289,Right,61.044937129308344,23.351836393028023,3.0522468564654175,0.36680978830083805,Right,Correct,0.0,0.0,-45,45,2005,958,-0.8
"{'cat': 'RB', 'resp': 'reach'}",42,290,Left,37.56698326922704,24.03004490499246,1.8783491634613518,0.3774630626947858,Left,Correct,0.0,0.0,-45,45,2017,833,-2.44
"{'cat': 'RB', 'resp': 'reach'}",42,291,Left,48.32720797004731,59.920876416340334,2.4163603985023654,0.9412349257311834,Left,Correct,0.0,0.0,-45,45,2004,1229,-2.33
"{'cat': 'RB', 'resp': 'reach'}",42,292,Left,45.82456050428772,74.334043769174,2.291228025214386,1.1676364290842958,Left,Correct,0.0,0.0,-45,45,2009,725,-2.34
"{'cat': 'RB', 'resp': 'reach'}",42,293,Left,47.50569386334143,74.29465393312222,2.3752846931670715,1.167017694986464,Left,Correct,0.0,0.0,-45,45,2013,796,-2.39
"{'cat': 'RB', 'resp': 'reach'}",42,294,Left,37.81979102379438,16.976762115724625,1.890989551189719,0.26667035572250997,Left,Correct,0.0,0.0,-45,45,2004,888,-2.41
"{'cat': 'RB', 'resp': 'reach'}",42,295,Right,53.51615650027365,29.101269795014037,2.675807825013683,0.45712167699075323,Right,Correct,0.0,0.0,-45,45,2017,742,-0.81
"{'cat': 'RB', 'resp': 'reach'}",42,296,Right,53.79853062541774,28.70946193070758,2.689926531270887,0.4509671734501339,Right,Correct,0.0,0.0,-45,45,2004,713,-0.78
"{'cat': 'RB', 'resp': 'reach'}",42,297,Left,32.344607953467765,43.007981274640606,1.6172303976733884,0.6755677900906917,Left,Correct,0.0,0.0,-45,45,2004,745,-2.38
"{'cat': 'RB', 'resp': 'reach'}",42,298,Right,59.73433706375842,79.64350582970286,2.9867168531879207,1.251037264103652,Right,Correct,0.0,0.0,-45,45,2004,646,-0.83
"{'cat': 'RB', 'resp': 'reach'}",42,299,Left,32.7462553151268,50.75286781311139,1.6373127657563402,0.7972241833514232,Left,Correct,0.0,0.0,-45,45,2013,687,-2.4
"{'cat': 'RB', 'resp': 'reach'}",42,300,Right,66.24082037970771,34.569924326176015,3.3120410189853855,0.5430231014913482,Right,Correct,0.0,0.0,-45,45,2008,984,-0.78
"{'cat': 'RB', 'resp': 'reach'}",42,301,Left,40.286410953674945,56.5682128241741,2.014320547683747,0.8885714091756463,Left,Correct,0.0,0.0,-45,45,2012,829,-2.33
"{'cat': 'RB', 'resp': 'reach'}",42,302,Left,42.47290055994516,58.32865082315416,2.123645027997258,0.9162243045991268,Left,Correct,0.0,0.0,-45,45,2004,1229,-2.42
"{'cat': 'RB', 'resp': 'reach'}",42,303,Right,61.85024349126399,17.8598348086172,3.092512174563199,0.2805416291453953,Right,Correct,0.0,0.0,-45,45,2013,687,-0.81
"{'cat': 'RB', 'resp': 'reach'}",42,304,Left,39.69605314297404,28.285484045155084,1.984802657148702,0.44430734439745256,Left,Correct,0.0,0.0,-45,45,2017,675,-2.37
"{'cat': 'RB', 'resp': 'reach'}",42,305,Right,57.70178648699011,40.63873878322437,2.8850893243495057,0.6383518160626614,Right,Correct,0.0,0.0,-45,45,2004,887,-0.78
"{'cat': 'RB', 'resp': 'reach'}",42,306,Right,65.60964474841214,65.63384257061172,3.2804822374206073,1.030973988233514,Right,Correct,0.0,0.0,-45,45,2004,738,-0.86
"{'cat': 'RB', 'resp': 'reach'}",42,307,Left,36.74986718599685,56.651904416009096,1.8374933592998424,0.8898860336260266,Left,Correct,0.0,0.0,-45,45,2008,712,-2.28
"{'cat': 'RB', 'resp': 'reach'}",42,308,Right,57.55443243136491,19.32940906194584,2.8777216215682455,0.3036256475362051,Right,Correct,0.0,0.0,-45,45,2004,904,-0.8
"{'cat': 'RB', 'resp': 'reach'}",42,309,Left,37.57032992898545,59.22898852306517,1.8785164964492724,0.9303667761180787,Left,Correct,0.0,0.0,-45,45,2012,738,-2.38
"{'cat': 'RB', 'resp': 'reach'}",42,310,Left,46.90146198559327,71.11958686951087,2.345073099279664,1.1171438581779822,Right,Incorrect,0.0,0.0,-45,45,2004,1371,-0.82
"{'cat': 'RB', 'resp': 'reach'}",42,311,Right,64.29061220901814,32.4835973691515,3.214530610450907,0.5102511542854754,Right,Correct,0.0,0.0,-45,45,2009,816,-0.84
"{'cat': 'RB', 'resp': 'reach'}",42,312,Right,63.55719742534923,88.05073222960596,3.1778598712674615,1.3830976675786606,Right,Correct,0.0,0.0,-45,45,2008,754,-0.83
"{'cat': 'RB', 'resp': 'reach'}",42,313,Left,43.53418335377705,82.47991267941991,2.176709167688853,1.2955914387119662,Left,Correct,0.0,0.0,-45,45,2012,779,-2.39
"{'cat': 'RB', 'resp': 'reach'}",42,314,Left,36.40286474640027,87.24130656967819,1.8201432373200135,1.3703832390443798,Left,Correct,0.0,0.0,-45,45,2004,796,-2.32
"{'cat': 'RB', 'resp': 'reach'}",42,315,Left,31.39977657674023,55.18611655701683,1.5699888288370116,0.8668614917783706,Left,Correct,0.0,0.0,-45,45,2008,696,-2.31
"{'cat': 'RB', 'resp': 'reach'}",42,316,Right,57.10305488102094,50.59542680640175,2.8551527440510474,0.794751105801159,Right,Correct,0.0,0.0,-45,45,2004,817,-0.82
"{'cat': 'RB', 'resp': 'reach'}",42,317,Right,54.69642813740931,35.135342407327215,2.734821406870466,0.5519046679411054,Right,Correct,0.0,0.0,-45,45,2017,791,-0.86
"{'cat': 'RB', 'resp': 'reach'}",42,318,Right,61.527604228295296,82.85640733635543,3.0763802114147647,1.3015054029536883,Right,Correct,0.0,0.0,-45,45,2013,766,-0.82
"{'cat': 'RB', 'resp': 'reach'}",42,319,Right,54.39912177049769,74.75018635732577,2.719956088524885,1.174173181573213,Right,Correct,0.0,0.0,-45,45,2012,746,-0.82
"{'cat': 'RB', 'resp': 'reach'}",42,320,Left,43.68091817600908,80.52210805999576,2.184045908800454,1.2648383156642307,Left,Correct,0.0,0.0,-45,45,2008,713,-2.33
"{'cat': 'RB', 'resp': 'reach'}",42,321,Right,55.41852258421489,21.537739099296875,2.7709261292107445,0.3383140146464236,Right,Correct,0.0,0.0,-45,45,2004,716,-0.9
"{'cat': 'RB', 'resp': 'reach'}",42,322,Right,64.8654788228336,31.794442104386512,3.24327394114168,0.49942592870063335,Right,Correct,0.0,0.0,-45,45,2008,813,-0.8
"{'cat': 'RB', 'resp': 'reach'}",42,323,Left,31.85614352310861,46.83104522213971,1.5928071761554303,0.7356203381490275,Left,Correct,0.0,0.0,-45,45,2009,746,-2.32
"{'cat': 'RB', 'resp': 'reach'}",42,324,Left,35.28630969395964,55.48780090335779,1.764315484697982,0.8716003384092095,Left,Correct,0.0,0.0,-45,45,2009,825,-2.34
"{'cat': 'RB', 'resp': 'reach'}",42,325,Right,65.5244182654554,73.45840703164578,3.2762209132727698,1.1538819593751357,Right,Correct,0.0,0.0,-45,45,2012,659,-0.83
"{'cat': 'RB', 'resp': 'reach'}",42,326,Left,37.87709631917061,13.37220106155204,1.8938548159585307,0.21005004308648761,Left,Correct,0.0,0.0,-45,45,2013,746,-2.38
"{'cat': 'RB', 'resp': 'reach'}",42,327,Left,43.114327660449796,50.38783317344013,2.1557163830224897,0.7914902326399379,Left,Correct,0.0,0.0,-45,45,2004,1008,-2.27
"{'cat': 'RB', 'resp': 'reach'}",42,328,Left,46.26279072879267,62.75753638256553,2.3131395364396337,0.98579307628431,Left,Correct,0.0,0.0,-45,45,2009,996,-2.28
"{'cat': 'RB', 'resp': 'reach'}",42,329,Right,61.906793215122775,84.22717827507012,3.0953396607561388,1.3230374225077906,Right,Correct,0.0,0.0,-45,45,2004,696,-0.78
"{'cat': 'RB', 'resp': 'reach'}",42,330,Left,34.304750976143076,40.77584468445324,1.7152375488071538,0.6405054705229836,Left,Correct,0.0,0.0,-45,45,2004,775,-2.33
"{'cat': 'RB', 'resp': 'reach'}",42,331,Right,63.85567079583477,41.97469125946008,3.192783539791739,0.6593369084870975,Right,Correct,0.0,0.0,-45,45,2008,583,-0.83
"{'cat': 'RB', 'resp': 'reach'}",42,332,Right,59.24077839173059,41.74367894873421,2.9620389195865293,0.6557081755957714,Right,Correct,0.0,0.0,-45,45,2008,671,-0.82
"{'cat': 'RB', 'resp': 'reach'}",42,333,Left,37.79968290982103,26.73394235280642,1.8899841454910515,0.41993578448534835,Left,Correct,0.0,0.0,-45,45,2012,2612,-2.49
"{'cat': 'RB', 'resp': 'reach'}",42,334,Left,41.32791277132235,21.8149397600789,2.0663956385661177,0.3426682724438388,Left,Correct,0.0,0.0,-45,45,2005,1349,-2.35
"{'cat': 'RB', 'resp': 'reach'}",42,335,Left,41.704616497977845,46.066058859281775,2.085230824898892,0.7236039604607731,Left,Correct,0.0,0.0,-45,45,2004,779,-2.44
"{'cat': 'RB', 'resp': 'reach'}",42,336,Left,41.113514823760624,25.098902882329334,2.0556757411880313,0.39425264454144765,Left,Correct,0.0,0.0,-45,45,2016,917,-2.32
"{'cat': 'RB', 'resp': 'reach'}",42,337,Left,33.208259921568406,37.666264634171974,1.6604129960784204,0.5916603013144185,Left,Correct,0.0,0.0,-45,45,2005,1349,-2.38
"{'cat': 'RB', 'resp': 'reach'}",42,338,Left,35.67395356856701,68.92070755800842,1.7836976784283505,1.0826039427222487,Left,Correct,0.0,0.0,-45,45,2004,658,-2.35
"{'cat': 'RB', 'resp': 'reach'}",42,339,Right,59.19545483718614,54.05301260214287,2.959772741859307,0.8490627364764429,Right,Correct,0.0,0.0,-45,45,2004,675,-0.82
"{'cat': 'RB', 'resp': 'reach'}",42,340,Right,60.71211025501055,14.685032740441308,3.0356055127505277,0.23067195487548003,Right,Correct,0.0,0.0,-45,45,2004,646,-0.81
"{'cat': 'RB', 'resp': 'reach'}",42,341,Left,40.37414528503122,72.57789810523589,2.0187072642515607,1.1400509575019881,Left,Correct,0.0,0.0,-45,45,2013,858,-2.31
"{'cat': 'RB', 'resp': 'reach'}",42,342,Left,42.11039595558944,37.680974516472716,2.105519797779472,0.5918913636052744,Left,Correct,0.0,0.0,-45,45,2004,829,-2.36
"{'cat': 'RB', 'resp': 'reach'}",42,343,Left,42.66153804189703,60.951793830758454,2.1330769020948512,0.9574285386091521,Left,Correct,0.0,0.0,-45,45,2013,758,-2.33
"{'cat': 'RB', 'resp': 'reach'}",42,344,Right,63.179985540111325,36.99930192148064,3.1589992770055666,0.5811836755223715,Right,Correct,0.0,0.0,-45,45,2012,737,-0.81
"{'cat': 'RB', 'resp': 'reach'}",42,345,Right,66.50104916510544,33.82547777119973,3.325052458255272,0.5313293623508295,Right,Correct,0.0,0.0,-45,45,2004,638,-0.87
"{'cat': 'RB', 'resp': 'reach'}",42,346,Right,61.80199239135754,80.29868023720911,3.0900996195678765,1.2613287196308602,Right,Correct,0.0,0.0,-45,45,2005,845,-0.84
"{'cat': 'RB', 'resp': 'reach'}",42,347,Right,54.70960210893642,73.46055143846168,2.7354801054468214,1.1539156436386315,Left,Incorrect,0.0,0.0,-45,45,2008,1542,-2.27
"{'cat': 'RB', 'resp': 'reach'}",42,348,Left,36.05266630647431,82.29116082618998,1.8026333153237153,1.2926265315346732,Left,Correct,0.0,0.0,-45,45,2004,766,-2.33
"{'cat': 'RB', 'resp': 'reach'}",42,349,Left,39.21450873694402,72.01075737486615,1.9607254368472011,1.1311423317415823,Left,Correct,0.0,0.0,-45,45,2004,746,-2.33
"{'cat': 'RB', 'resp': 'reach'}",42,350,Right,54.70016845570544,22.5419397073796,2.7350084227852722,0.35408796091183903,Right,Correct,0.0,0.0,-45,45,2008,1038,-0.83
"{'cat': 'RB', 'resp': 'reach'}",42,351,Left,40.0916608940697,41.76093541512335,2.0045830447034847,0.6559792395359466,Left,Correct,0.0,0.0,-45,45,2017,675,-2.37
"{'cat': 'RB', 'resp': 'reach'}",42,352,Left,37.50771870662749,71.02696494951016,1.8753859353313747,1.1156889564608041,Left,Correct,0.0,0.0,-45,45,2008,917,-2.42
"{'cat': 'RB', 'resp': 'reach'}",42,353,Left,35.79747436299416,40.63822223927119,1.789873718149708,0.6383437022092185,Left,Correct,0.0,0.0,-45,45,2004,746,-2.39
"{'cat': 'RB', 'resp': 'reach'}",42,354,Left,35.525136695012115,74.83531795654133,1.7762568347506058,1.1755104256066329,Left,Correct,0.0,0.0,-45,45,2013,879,-2.54
"{'cat': 'RB', 'resp': 'reach'}",42,355,Left,40.57974986018026,54.297121547182165,2.0289874930090126,0.8528971908184977,Left,Correct,0.0,0.0,-45,45,2004,1163,-2.28
"{'cat': 'RB', 'resp': 'reach'}",42,356,Left,32.06064750354708,36.998460576696075,1.6030323751773539,0.5811704597093998,Left,Correct,0.0,0.0,-45,45,2004,716,-2.38
"{'cat': 'RB', 'resp': 'reach'}",42,357,Left,40.60818160603003,18.030175439537537,2.0304090803015016,0.2832173335189312,Left,Correct,0.0,0.0,-45,45,2004,1150,-2.24
"{'cat': 'RB', 'resp': 'reach'}",42,358,Right,62.76235909564584,41.0858273780573,3.138117954782292,0.6453746672878162,Right,Correct,0.0,0.0,-45,45,2017,604,-0.76
"{'cat': 'RB', 'resp': 'reach'}",42,359,Right,56.88901788326205,87.638811897679,2.8444508941631024,1.3766272381354305,Right,Correct,0.0,0.0,-45,45,2009,1087,-0.84
"{'cat': 'RB', 'resp': 'reach'}",42,360,Right,62.680768823314146,13.025722377201134,3.1340384411657074,0.20460756863957635,Right,Correct,0.0,0.0,-45,45,2013,900,-0.84
"{'cat': 'RB', 'resp': 'reach'}",42,361,Left,43.33367500776352,32.88723297799521,2.166683750388176,0.5165914476028287,Left,Correct,0.0,0.0,-45,45,2016,934,-2.28
"{'cat': 'RB', 'resp': 'reach'}",42,362,Left,45.14774684463193,70.84555297922978,2.257387342231597,1.1128393438952737,Left,Correct,0.0,0.0,-45,45,2017,1196,-2.37
"{'cat': 'RB', 'resp': 'reach'}",42,363,Left,46.643873978304995,73.13731760284713,2.33219369891525,1.1488382984218402,Right,Incorrect,0.0,0.0,-45,45,2004,1217,-0.76
"{'cat': 'RB', 'resp': 'reach'}",42,364,Right,59.98496742832959,14.492853403954477,2.9992483714164795,0.2276532089170861,Right,Correct,0.0,0.0,-45,45,2004,696,-0.85
"{'cat': 'RB', 'resp': 'reach'}",42,365,Left,36.60241590036509,24.261649624793414,1.8301207950182543,0.3811011011261027,Left,Correct,0.0,0.0,-45,45,2008,896,-2.43
"{'cat': 'RB', 'resp': 'reach'}",42,366,Right,53.682455953878645,36.78486097856332,2.684122797693932,0.5778152450678818,Right,Correct,0.0,0.0,-45,45,2004,642,-0.75
"{'cat': 'RB', 'resp': 'reach'}",42,367,Left,47.27886553527776,52.38077262198489,2.363943276763888,0.8227952522929254,Left,Correct,0.0,0.0,-45,45,2008,796,-2.27
"{'cat': 'RB', 'resp': 'reach'}",42,368,Right,65.3694846698051,52.00825595251563,3.268474233490255,0.8169437741322036,Right,Correct,0.0,0.0,-45,45,2004,655,-0.79
"{'cat': 'RB', 'resp': 'reach'}",42,369,Right,57.394505511882286,20.583117617320525,2.8697252755941145,0.323318855472744,Right,Correct,0.0,0.0,-45,45,2008,987,-0.83
"{'cat': 'RB', 'resp': 'reach'}",42,370,Right,57.49904718608452,22.74810415254451,2.874952359304226,0.3573263844436465,Right,Correct,0.0,0.0,-45,45,2004,775,-0.86
"{'cat': 'RB', 'resp': 'reach'}",42,371,Left,38.89317200269438,14.15096809579616,1.9446586001347188,0.2222828870546838,Left,Correct,0.0,0.0,-45,45,2008,692,-2.44
"{'cat': 'RB', 'resp': 'reach'}",42,372,Right,53.542317775082836,54.17281468390733,2.677115888754142,0.8509445831762228,Right,Correct,0.0,0.0,-45,45,2013,746,-0.84
"{'cat': 'RB', 'resp': 'reach'}",42,373,Right,59.50276466497677,76.14717600910494,2.9751382332488383,1.196117043709065,Right,Correct,0.0,0.0,-45,45,2004,1075,-0.79
"{'cat': 'RB', 'resp': 'reach'}",42,374,Left,40.05684013636132,75.45793342400854,2.0028420068180663,1.1852904464996648,Left,Correct,0.0,0.0,-45,45,2004,796,-2.45
"{'cat': 'RB', 'resp': 'reach'}",42,375,Right,58.03406305265281,36.657023215404834,2.9017031526326407,0.5758071741799315,Right,Correct,0.0,0.0,-45,45,2009,845,-0.76
"{'cat': 'RB', 'resp': 'reach'}",42,376,Left,41.64356049169987,10.058119011810582,2.0821780245849935,0.15799256398217976,Left,Correct,0.0,0.0,-45,45,2004,775,-2.32
"{'cat': 'RB', 'resp': 'reach'}",42,377,Left,42.2131910444708,47.5275257386105,2.11065955222354,0.7465606285185927,Left,Correct,0.0,0.0,-45,45,2004,1650,-2.44
"{'cat': 'RB', 'resp': 'reach'}",42,378,Left,42.351683951743745,77.73078935582154,2.1175841975871874,1.2209923839899233,Left,Correct,0.0,0.0,-45,45,2004,796,-2.28
"{'cat': 'RB', 'resp': 'reach'}",42,379,Left,42.761315780069836,35.975799945705816,2.1380657890034915,0.5651065440822274,Left,Correct,0.0,0.0,-45,45,2004,1179,-2.4
"{'cat': 'RB', 'resp': 'reach'}",42,380,Left,44.56569009338152,65.61533652619559,2.2282845046690762,1.0306832959675905,Left,Correct,0.0,0.0,-45,45,2004,712,-2.28
"{'cat': 'RB', 'resp': 'reach'}",42,381,Left,47.29222333037499,31.800309900941848,2.3646111665187495,0.4995180998333884,Left,Correct,0.0,0.0,-45,45,2004,2063,-2.38
"{'cat': 'RB', 'resp': 'reach'}",42,382,Left,33.246992479732995,39.51505594226187,1.6623496239866498,0.6207010472719978,Left,Correct,0.0,0.0,-45,45,2013,1141,-2.44
"{'cat': 'RB', 'resp': 'reach'}",42,383,Right,63.08372608912779,47.6396658886782,3.1541863044563896,0.7483221218767185,Right,Correct,0.0,0.0,-45,45,2004,687,-0.85
"{'cat': 'RB', 'resp': 'reach'}",42,384,Left,39.75354311065042,30.10326958606711,1.9876771555325208,0.4728610529031074,Left,Correct,0.0,0.0,-45,45,2005,758,-2.38
"{'cat': 'RB', 'resp': 'reach'}",42,385,Left,35.93824985280497,50.715581123826716,1.7969124926402487,0.796638485405756,Left,Correct,0.0,0.0,-45,45,2009,745,-2.42
"{'cat': 'RB', 'resp': 'reach'}",42,386,Right,60.2545588373999,34.68904536062697,3.012727941869995,0.544894250324944,Right,Correct,0.0,0.0,-45,45,2004,608,-0.76
"{'cat': 'RB', 'resp': 'reach'}",42,387,Right,54.14944018711134,51.02718015267441,2.707472009355567,0.801533071505224,Right,Correct,0.0,0.0,-45,45,2009,641,-0.77
"{'cat': 'RB', 'resp': 'reach'}",42,388,Right,56.537500987818866,46.533415243262475,2.826875049390943,0.7309451773733835,Right,Correct,0.0,0.0,-45,45,2013,658,-0.79
"{'cat': 'RB', 'resp': 'reach'}",42,389,Left,39.517156917287224,47.999432640112204,1.9758578458643612,0.7539733247932732,Left,Correct,0.0,0.0,-45,45,2004,767,-2.28
"{'cat': 'RB', 'resp': 'reach'}",42,390,Right,54.94310947522312,54.75006948711576,2.747155473761156,0.8600120804212678,Right,Correct,0.0,0.0,-45,45,2013,916,-0.77
"{'cat': 'RB', 'resp': 'reach'}",42,391,Left,36.48994566960471,49.598583744017304,1.8244972834802353,0.7790927315933146,Left,Correct,0.0,0.0,-45,45,2008,634,-2.38
"{'cat': 'RB', 'resp': 'reach'}",42,392,Left,45.24937319573507,17.94143731838475,2.2624686597867534,0.28182343837139645,Right,Incorrect,0.0,0.0,-45,45,2013,1542,-0.8
"{'cat': 'RB', 'resp': 'reach'}",42,393,Right,57.239283408852636,67.69808587807117,2.8619641704426315,1.0633990462831966,Right,Correct,0.0,0.0,-45,45,2017,812,-0.83
"{'cat': 'RB', 'resp': 'reach'}",42,394,Right,63.592335745160604,65.52780685436727,3.1796167872580305,1.0293083830976557,Right,Correct,0.0,0.0,-45,45,2008,621,-0.81
"{'cat': 'RB', 'resp': 'reach'}",42,395,Left,42.67503702326037,62.8351820116351,2.1337518511630185,0.9870127309736517,Left,Correct,0.0,0.0,-45,45,2012,796,-2.28
"{'cat': 'RB', 'resp': 'reach'}",42,396,Right,67.60152896436507,45.098797696922844,3.3800764482182535,0.7084102576519254,Right,Correct,0.0,0.0,-45,45,2004,713,-0.82
"{'cat': 'RB', 'resp': 'reach'}",42,397,Right,55.590165450897125,50.23509446606799,2.779508272544856,0.7890910186349424,Right,Correct,0.0,0.0,-45,45,2009,775,-0.79
"{'cat': 'RB', 'resp': 'reach'}",42,398,Right,58.38115204529388,17.377857611225807,2.919057602264694,0.27297074903278234,Right,Correct,0.0,0.0,-45,45,2008,625,-0.82
"{'cat': 'RB', 'resp': 'reach'}",42,399,Right,57.60272850783983,83.73838004333177,2.8801364253919917,1.315359397838206,Left,Incorrect,0.0,0.0,-45,45,2004,1280,-2.27
