condition,subject,trial,cat,x,y,xt,yt,resp,fb,rotation,su,target_angle_left,target_angle_right,rt,mt,ep
"{'cat': 'RB', 'resp': 'button'}",37,0,Right,53.01449560339355,58.7216198903073,2.6507247801696776,0.9223970482714084,Right,Correct,0.0,0.0,-45,45,8258,-1,-1
"{'cat': 'RB', 'resp': 'button'}",37,1,Right,54.81781430777173,50.957228255874405,2.7408907153885864,0.8004342696797663,Left,Incorrect,0.0,0.0,-45,45,4790,-1,-1
"{'cat': 'RB', 'resp': 'button'}",37,2,Left,31.722218308477707,44.550717544619644,1.5861109154238853,0.6998010347516549,Right,Incorrect,0.0,0.0,-45,45,7808,-1,-1
"{'cat': 'RB', 'resp': 'button'}",37,3,Left,39.287873825146875,27.55733666448102,1.9643936912573436,0.43286963208817114,Right,Incorrect,0.0,0.0,-45,45,5733,-1,-1
"{'cat': 'RB', 'resp': 'button'}",37,4,Right,58.18470979006453,77.6106569693191,2.909235489503226,1.2191053488754517,Left,Incorrect,0.0,0.0,-45,45,6264,-1,-1
"{'cat': 'RB', 'resp': 'button'}",37,5,Left,38.21931904037631,11.005001144880197,1.9109659520188158,0.17286615374751446,Left,Correct,0.0,0.0,-45,45,2309,-1,-1
"{'cat': 'RB', 'resp': 'button'}",37,6,Right,62.78254245716287,17.725024290165635,3.1391271228581434,0.27842403047342495,Left,Incorrect,0.0,0.0,-45,45,2544,-1,-1
"{'cat': 'RB', 'resp': 'button'}",37,7,Left,36.3642688142113,50.72075746544799,1.818213440710565,0.7967197951898053,Right,Incorrect,0.0,0.0,-45,45,4193,-1,-1
"{'cat': 'RB', 'resp': 'button'}",37,8,Left,43.752672743334216,61.98357339051406,2.187633637166711,0.9736356940344137,Right,Incorrect,0.0,0.0,-45,45,2079,-1,-1
"{'cat': 'RB', 'resp': 'button'}",37,9,Left,41.02448741009168,41.071021310095276,2.0512243705045843,0.6451420941161258,Left,Correct,0.0,0.0,-45,45,5762,-1,-1
"{'cat': 'RB', 'resp': 'button'}",37,10,Right,62.392717548846036,53.19849068304485,3.1196358774423016,0.8356399375595936,Left,Incorrect,0.0,0.0,-45,45,2838,-1,-1
"{'cat': 'RB', 'resp': 'button'}",37,11,Left,49.023933327103464,50.257648436699235,2.451196666355173,0.7894452955771644,Right,Incorrect,0.0,0.0,-45,45,2936,-1,-1
"{'cat': 'RB', 'resp': 'button'}",37,12,Left,45.610192512232075,63.882490224057804,2.2805096256116038,1.003463809904609,Left,Correct,0.0,0.0,-45,45,2278,-1,-1
"{'cat': 'RB', 'resp': 'button'}",37,13,Right,52.4745577996538,37.28942768633528,2.6237278899826904,0.5857409603797937,Right,Correct,0.0,0.0,-45,45,2523,-1,-1
"{'cat': 'RB', 'resp': 'button'}",37,14,Left,36.089442970500144,31.40216788794075,1.8044721485250073,0.4932640997177398,Left,Correct,0.0,0.0,-45,45,2036,-1,-1
"{'cat': 'RB', 'resp': 'button'}",37,15,Right,64.88502684425332,35.23876228137743,3.244251342212666,0.5535291835238622,Right,Correct,0.0,0.0,-45,45,1346,-1,-1
"{'cat': 'RB', 'resp': 'button'}",37,16,Right,62.728437265405994,30.923842111397203,3.1364218632702996,0.4857505759896807,Right,Correct,0.0,0.0,-45,45,1087,-1,-1
"{'cat': 'RB', 'resp': 'button'}",37,17,Right,58.83180961202734,17.174365376583943,2.941590480601367,0.2697743004857151,Right,Correct,0.0,0.0,-45,45,1132,-1,-1
"{'cat': 'RB', 'resp': 'button'}",37,18,Right,52.58044692130893,61.4570799206938,2.6290223460654465,0.9653655539496623,Left,Incorrect,0.0,0.0,-45,45,2902,-1,-1
"{'cat': 'RB', 'resp': 'button'}",37,19,Left,36.988110837163966,52.14565395550725,1.8494055418581983,0.8191020169162855,Left,Correct,0.0,0.0,-45,45,1166,-1,-1
"{'cat': 'RB', 'resp': 'button'}",37,20,Right,66.5135089610243,46.23720932115285,3.3256754480512147,0.7262923856291364,Right,Correct,0.0,0.0,-45,45,934,-1,-1
"{'cat': 'RB', 'resp': 'button'}",37,21,Right,54.65063166482936,63.1084101788079,2.732531583241468,0.9913045889873712,Right,Correct,0.0,0.0,-45,45,1074,-1,-1
"{'cat': 'RB', 'resp': 'button'}",37,22,Right,62.92453210497888,54.29971073911946,3.146226605248944,0.8529378617503426,Right,Correct,0.0,0.0,-45,45,801,-1,-1
"{'cat': 'RB', 'resp': 'button'}",37,23,Left,44.558122768922104,68.554439121454,2.227906138446105,1.076850611574643,Left,Correct,0.0,0.0,-45,45,1675,-1,-1
"{'cat': 'RB', 'resp': 'button'}",37,24,Left,41.163365367258955,45.63558679470416,2.0581682683629476,0.7168421210825099,Left,Correct,0.0,0.0,-45,45,871,-1,-1
"{'cat': 'RB', 'resp': 'button'}",37,25,Right,54.6048706187692,58.94267612154591,2.73024353093846,0.9258693914318558,Right,Correct,0.0,0.0,-45,45,1039,-1,-1
"{'cat': 'RB', 'resp': 'button'}",37,26,Right,58.76444011291108,44.99772301585622,2.9382220056455544,0.7068225802744111,Right,Correct,0.0,0.0,-45,45,860,-1,-1
"{'cat': 'RB', 'resp': 'button'}",37,27,Right,62.29444448711083,86.68942134437775,3.1147222243555417,1.361714246197237,Right,Correct,0.0,0.0,-45,45,2964,-1,-1
"{'cat': 'RB', 'resp': 'button'}",37,28,Left,40.519208967622156,63.2278794604661,2.025960448381108,0.9931812080753063,Left,Correct,0.0,0.0,-45,45,813,-1,-1
"{'cat': 'RB', 'resp': 'button'}",37,29,Right,53.701646138919,66.02946413505786,2.68508230694595,1.0371883972358427,Right,Correct,0.0,0.0,-45,45,652,-1,-1
"{'cat': 'RB', 'resp': 'button'}",37,30,Left,34.87203841218818,81.4784341409045,1.743601920609409,1.2798602506153267,Left,Correct,0.0,0.0,-45,45,793,-1,-1
"{'cat': 'RB', 'resp': 'button'}",37,31,Right,63.21393282663665,62.527210625725616,3.1606966413318327,0.9821751277562062,Right,Correct,0.0,0.0,-45,45,1866,-1,-1
"{'cat': 'RB', 'resp': 'button'}",37,32,Right,66.35818982539071,26.801885678075937,3.3179094912695355,0.4210030357429843,Right,Correct,0.0,0.0,-45,45,970,-1,-1
"{'cat': 'RB', 'resp': 'button'}",37,33,Right,67.11396898185596,62.15944946942942,3.3556984490927984,0.9763983490217271,Right,Correct,0.0,0.0,-45,45,651,-1,-1
"{'cat': 'RB', 'resp': 'button'}",37,34,Left,42.209292749460325,61.906833236526595,2.1104646374730165,0.9724302625144018,Left,Correct,0.0,0.0,-45,45,1001,-1,-1
"{'cat': 'RB', 'resp': 'button'}",37,35,Left,43.15019855784894,32.67921778600501,2.157509927892447,0.5133239526078712,Left,Correct,0.0,0.0,-45,45,682,-1,-1
"{'cat': 'RB', 'resp': 'button'}",37,36,Right,55.565869532860816,26.87942243466474,2.7782934766430407,0.42222098026739713,Right,Correct,0.0,0.0,-45,45,649,-1,-1
"{'cat': 'RB', 'resp': 'button'}",37,37,Right,56.69033566177368,86.23664468241253,2.834516783088684,1.3546020470225024,Right,Correct,0.0,0.0,-45,45,1121,-1,-1
"{'cat': 'RB', 'resp': 'button'}",37,38,Right,62.879193025577706,75.12386232248345,3.143959651278885,1.1800428699080252,Right,Correct,0.0,0.0,-45,45,688,-1,-1
"{'cat': 'RB', 'resp': 'button'}",37,39,Left,34.28622101909501,65.18685329318339,1.7143110509547506,1.0239526970825028,Left,Correct,0.0,0.0,-45,45,648,-1,-1
"{'cat': 'RB', 'resp': 'button'}",37,40,Left,40.949282260531106,47.71829827901537,2.0474641130265554,0.7495572765758057,Left,Correct,0.0,0.0,-45,45,548,-1,-1
"{'cat': 'RB', 'resp': 'button'}",37,41,Left,38.74075153291979,24.034979328406273,1.9370375766459893,0.3775405724365184,Left,Correct,0.0,0.0,-45,45,557,-1,-1
"{'cat': 'RB', 'resp': 'button'}",37,42,Left,38.711799316776776,12.613955153154727,1.9355899658388387,0.19813954420931001,Left,Correct,0.0,0.0,-45,45,709,-1,-1
"{'cat': 'RB', 'resp': 'button'}",37,43,Right,55.1588572686088,76.04095941986029,2.75794286343044,1.1944485974267633,Right,Correct,0.0,0.0,-45,45,691,-1,-1
"{'cat': 'RB', 'resp': 'button'}",37,44,Left,42.10778885975846,39.09980590915849,2.1053894429879225,0.6141783150049954,Left,Correct,0.0,0.0,-45,45,765,-1,-1
"{'cat': 'RB', 'resp': 'button'}",37,45,Right,58.28779388259398,72.64409931366362,2.9143896941296994,1.1410908436522649,Right,Correct,0.0,0.0,-45,45,461,-1,-1
"{'cat': 'RB', 'resp': 'button'}",37,46,Left,34.518119764003785,48.36818524855246,1.7259059882001893,0.7597656772216129,Left,Correct,0.0,0.0,-45,45,645,-1,-1
"{'cat': 'RB', 'resp': 'button'}",37,47,Right,57.866256810246725,39.20727240424897,2.8933128405123365,0.6158663947624119,Right,Correct,0.0,0.0,-45,45,629,-1,-1
"{'cat': 'RB', 'resp': 'button'}",37,48,Right,59.44028562854816,10.597014561399881,2.9720142814274078,0.16645751548038965,Right,Correct,0.0,0.0,-45,45,730,-1,-1
"{'cat': 'RB', 'resp': 'button'}",37,49,Right,60.046817813139306,82.5313382483488,3.0023408906569653,1.2963992296597346,Right,Correct,0.0,0.0,-45,45,892,-1,-1
"{'cat': 'RB', 'resp': 'button'}",37,50,Left,44.267234526613095,21.534151495821664,2.2133617263306546,0.338257660702815,Left,Correct,0.0,0.0,-45,45,676,-1,-1
"{'cat': 'RB', 'resp': 'button'}",37,51,Left,39.333800010461616,60.74407300804126,1.966690000523081,0.9541656675559225,Left,Correct,0.0,0.0,-45,45,598,-1,-1
"{'cat': 'RB', 'resp': 'button'}",37,52,Right,66.33779383600296,70.84646875778199,3.316889691800148,1.1128537289111335,Right,Correct,0.0,0.0,-45,45,650,-1,-1
"{'cat': 'RB', 'resp': 'button'}",37,53,Left,36.67265212733998,46.27297288080257,1.833632606366999,0.7268541583104454,Left,Correct,0.0,0.0,-45,45,598,-1,-1
"{'cat': 'RB', 'resp': 'button'}",37,54,Right,65.82464129630941,60.69631847608146,3.2912320648154707,0.9534155411220198,Right,Correct,0.0,0.0,-45,45,636,-1,-1
"{'cat': 'RB', 'resp': 'button'}",37,55,Right,62.157934761626834,36.61968836658578,3.107896738081342,0.5752207197460674,Right,Correct,0.0,0.0,-45,45,558,-1,-1
"{'cat': 'RB', 'resp': 'button'}",37,56,Right,54.808345476047464,21.715929637198183,2.740417273802373,0.34111302507047336,Right,Correct,0.0,0.0,-45,45,667,-1,-1
"{'cat': 'RB', 'resp': 'button'}",37,57,Left,42.9828404565921,75.22503010511261,2.149142022829605,1.1816320097214639,Left,Correct,0.0,0.0,-45,45,968,-1,-1
"{'cat': 'RB', 'resp': 'button'}",37,58,Left,33.81568755192302,32.81979323262303,1.690784377596151,0.5155321065597226,Left,Correct,0.0,0.0,-45,45,643,-1,-1
"{'cat': 'RB', 'resp': 'button'}",37,59,Right,55.18410538401301,67.30591696174989,2.759205269200651,1.0572388713507905,Right,Correct,0.0,0.0,-45,45,557,-1,-1
"{'cat': 'RB', 'resp': 'button'}",37,60,Left,43.82762324058563,56.57212429176196,2.191381162029282,0.8886328503648402,Left,Correct,0.0,0.0,-45,45,974,-1,-1
"{'cat': 'RB', 'resp': 'button'}",37,61,Right,59.42519803066145,79.64942040173048,2.9712599015330725,1.251130169983807,Right,Correct,0.0,0.0,-45,45,586,-1,-1
"{'cat': 'RB', 'resp': 'button'}",37,62,Left,39.72484285179263,51.16259748521436,1.9862421425896315,0.8036602019906054,Left,Correct,0.0,0.0,-45,45,759,-1,-1
"{'cat': 'RB', 'resp': 'button'}",37,63,Right,54.87960415714914,66.18339359575333,2.743980207857457,1.0396063155503021,Right,Correct,0.0,0.0,-45,45,2645,-1,-1
"{'cat': 'RB', 'resp': 'button'}",37,64,Right,61.96430139645806,83.65397717004079,3.098215069822903,1.3140336006048419,Right,Correct,0.0,0.0,-45,45,490,-1,-1
"{'cat': 'RB', 'resp': 'button'}",37,65,Right,67.35616518089691,31.146020865739658,3.3678082590448457,0.4892405517018106,Right,Correct,0.0,0.0,-45,45,698,-1,-1
"{'cat': 'RB', 'resp': 'button'}",37,66,Left,45.02275655255493,82.38545275353917,2.2511378276277467,1.2941076656659383,Left,Correct,0.0,0.0,-45,45,472,-1,-1
"{'cat': 'RB', 'resp': 'button'}",37,67,Right,63.559338393559884,86.05378077173549,3.177966919677994,1.351729627430554,Right,Correct,0.0,0.0,-45,45,503,-1,-1
"{'cat': 'RB', 'resp': 'button'}",37,68,Right,57.64917461647345,20.816723964885387,2.882458730823673,0.3269883353994526,Right,Correct,0.0,0.0,-45,45,730,-1,-1
"{'cat': 'RB', 'resp': 'button'}",37,69,Left,38.75558684168185,29.35405941808939,1.9377793420840925,0.46109248710453954,Left,Correct,0.0,0.0,-45,45,585,-1,-1
"{'cat': 'RB', 'resp': 'button'}",37,70,Right,59.11256960939936,60.684919478754054,2.955628480469968,0.9532364860907093,Right,Correct,0.0,0.0,-45,45,737,-1,-1
"{'cat': 'RB', 'resp': 'button'}",37,71,Left,42.47949372907815,20.287120600694657,2.1239746864539075,0.3186693452081624,Left,Correct,0.0,0.0,-45,45,568,-1,-1
"{'cat': 'RB', 'resp': 'button'}",37,72,Right,66.00585037253285,52.43374157867141,3.3002925186266423,0.823627286718899,Right,Correct,0.0,0.0,-45,45,495,-1,-1
"{'cat': 'RB', 'resp': 'button'}",37,73,Left,37.9514709564894,54.47592374336011,1.8975735478244702,0.8557058091482896,Left,Correct,0.0,0.0,-45,45,449,-1,-1
"{'cat': 'RB', 'resp': 'button'}",37,74,Right,58.18157091416932,9.625491060029304,2.909078545708466,0.15119686000691143,Right,Correct,0.0,0.0,-45,45,470,-1,-1
"{'cat': 'RB', 'resp': 'button'}",37,75,Right,51.21342130096088,56.460888331821415,2.5606710650480444,0.8868855599920192,Right,Correct,0.0,0.0,-45,45,572,-1,-1
"{'cat': 'RB', 'resp': 'button'}",37,76,Left,33.06224067187772,42.673574768740124,1.6531120335938858,0.6703149449794437,Left,Correct,0.0,0.0,-45,45,474,-1,-1
"{'cat': 'RB', 'resp': 'button'}",37,77,Left,36.14797552092524,18.393584396476164,1.807398776046262,0.28892574806576676,Left,Correct,0.0,0.0,-45,45,739,-1,-1
"{'cat': 'RB', 'resp': 'button'}",37,78,Left,44.81545798286185,83.53991242250439,2.2407728991430926,1.3122418757403724,Right,Incorrect,0.0,0.0,-45,45,623,-1,-1
"{'cat': 'RB', 'resp': 'button'}",37,79,Right,65.32019017658925,47.71011693147515,3.266009508829462,0.7494287642691617,Right,Correct,0.0,0.0,-45,45,485,-1,-1
"{'cat': 'RB', 'resp': 'button'}",37,80,Right,63.87870206003297,70.94847025736473,3.1939351030016483,1.114455964719855,Right,Correct,0.0,0.0,-45,45,710,-1,-1
"{'cat': 'RB', 'resp': 'button'}",37,81,Left,46.74988897367275,54.33847943862685,2.3374944486836373,0.8535468390581505,Left,Correct,0.0,0.0,-45,45,490,-1,-1
"{'cat': 'RB', 'resp': 'button'}",37,82,Left,40.237307794253574,24.892738715699622,2.011865389712679,0.3910142253848607,Left,Correct,0.0,0.0,-45,45,724,-1,-1
"{'cat': 'RB', 'resp': 'button'}",37,83,Left,31.632497603411593,52.644257813819536,1.5816248801705797,0.8269340680079125,Left,Correct,0.0,0.0,-45,45,629,-1,-1
"{'cat': 'RB', 'resp': 'button'}",37,84,Left,42.4608245086086,34.46882550240096,2.12304122543043,0.5414350448810569,Left,Correct,0.0,0.0,-45,45,794,-1,-1
"{'cat': 'RB', 'resp': 'button'}",37,85,Right,60.539653880951576,23.274070299948196,3.026982694047579,0.36558824136724827,Right,Correct,0.0,0.0,-45,45,419,-1,-1
"{'cat': 'RB', 'resp': 'button'}",37,86,Right,68.70758291093787,49.73418342879121,3.4353791455468934,0.7812227264608885,Right,Correct,0.0,0.0,-45,45,663,-1,-1
"{'cat': 'RB', 'resp': 'button'}",37,87,Right,63.03298464823121,32.09521927339546,3.151649232411561,0.5041505254232636,Right,Correct,0.0,0.0,-45,45,992,-1,-1
"{'cat': 'RB', 'resp': 'button'}",37,88,Left,33.848724786295406,21.66661057017402,1.6924362393147703,0.34033832297724825,Left,Correct,0.0,0.0,-45,45,577,-1,-1
"{'cat': 'RB', 'resp': 'button'}",37,89,Left,32.8134151233064,34.54154802925076,1.64067075616532,0.542577367661566,Left,Correct,0.0,0.0,-45,45,505,-1,-1
"{'cat': 'RB', 'resp': 'button'}",37,90,Left,38.787515454626075,61.61793354119895,1.939375772731304,0.9678922367120737,Left,Correct,0.0,0.0,-45,45,648,-1,-1
"{'cat': 'RB', 'resp': 'button'}",37,91,Right,56.03254654286598,22.511487840451135,2.801627327143299,0.3536096241046862,Right,Correct,0.0,0.0,-45,45,609,-1,-1
"{'cat': 'RB', 'resp': 'button'}",37,92,Left,40.47837918703282,24.52873687947034,2.0239189593516413,0.38529649791190523,Left,Correct,0.0,0.0,-45,45,544,-1,-1
"{'cat': 'RB', 'resp': 'button'}",37,93,Right,56.46662873459394,41.63370486159546,2.823331436729697,0.6539807066745698,Right,Correct,0.0,0.0,-45,45,534,-1,-1
"{'cat': 'RB', 'resp': 'button'}",37,94,Left,42.03417167334237,83.76714531109316,2.1017085836671185,1.3158112416075949,Right,Incorrect,0.0,0.0,-45,45,1022,-1,-1
"{'cat': 'RB', 'resp': 'button'}",37,95,Right,56.174505974812625,26.39694443695277,2.8087252987406313,0.4146422336017439,Right,Correct,0.0,0.0,-45,45,504,-1,-1
"{'cat': 'RB', 'resp': 'button'}",37,96,Right,63.28531463421238,41.85929145201271,3.1642657317106186,0.6575242125505858,Right,Correct,0.0,0.0,-45,45,760,-1,-1
"{'cat': 'RB', 'resp': 'button'}",37,97,Right,51.14204584061364,44.89763228486359,2.557102292030682,0.7052503587485168,Right,Correct,0.0,0.0,-45,45,2172,-1,-1
"{'cat': 'RB', 'resp': 'button'}",37,98,Left,42.879597575592626,60.577542025572626,2.1439798787796316,0.9515498050003297,Left,Correct,0.0,0.0,-45,45,589,-1,-1
"{'cat': 'RB', 'resp': 'button'}",37,99,Left,35.20525290288401,65.0355620327843,1.7602626451442007,1.0215762195213922,Left,Correct,0.0,0.0,-45,45,1069,-1,-1
"{'cat': 'RB', 'resp': 'button'}",37,100,Right,57.44633686435962,58.50577629234967,2.8723168432179813,0.919006584963068,Right,Correct,0.0,0.0,-45,45,761,-1,-1
"{'cat': 'RB', 'resp': 'button'}",37,101,Right,61.469862131786705,68.95911814710446,3.073493106589335,1.0832072948448699,Right,Correct,0.0,0.0,-45,45,598,-1,-1
"{'cat': 'RB', 'resp': 'button'}",37,102,Left,33.15969410392591,39.846957220344294,1.6579847051962955,0.625914540356702,Left,Correct,0.0,0.0,-45,45,603,-1,-1
"{'cat': 'RB', 'resp': 'button'}",37,103,Left,32.83819086292023,26.602444981347666,1.6419095431460113,0.4178702286046425,Left,Correct,0.0,0.0,-45,45,506,-1,-1
"{'cat': 'RB', 'resp': 'button'}",37,104,Left,45.83411086505486,57.737511878721584,2.291705543252743,0.9069387157737256,Left,Correct,0.0,0.0,-45,45,1987,-1,-1
"{'cat': 'RB', 'resp': 'button'}",37,105,Left,40.56999330990792,49.91273621053437,2.028499665495396,0.7840274269979001,Left,Correct,0.0,0.0,-45,45,777,-1,-1
"{'cat': 'RB', 'resp': 'button'}",37,106,Right,64.85279440908822,67.27239809795785,3.2426397204544113,1.056712358269562,Right,Correct,0.0,0.0,-45,45,591,-1,-1
"{'cat': 'RB', 'resp': 'button'}",37,107,Left,47.18293829381888,37.09684379039831,2.3591469146909443,0.5827158596164174,Left,Correct,0.0,0.0,-45,45,1023,-1,-1
"{'cat': 'RB', 'resp': 'button'}",37,108,Left,39.31789607611459,35.60091421997962,1.9658948038057298,0.559217852872842,Left,Correct,0.0,0.0,-45,45,844,-1,-1
"{'cat': 'RB', 'resp': 'button'}",37,109,Right,66.85471466557371,48.40719641594162,3.3427357332786856,0.7603784632060017,Right,Correct,0.0,0.0,-45,45,537,-1,-1
"{'cat': 'RB', 'resp': 'button'}",37,110,Left,40.90010609437333,88.76110624209458,2.045005304718666,1.3942561964733373,Left,Correct,0.0,0.0,-45,45,703,-1,-1
"{'cat': 'RB', 'resp': 'button'}",37,111,Left,38.59340980804605,49.22473414094523,1.9296704904023023,0.7732203157605211,Left,Correct,0.0,0.0,-45,45,595,-1,-1
"{'cat': 'RB', 'resp': 'button'}",37,112,Left,35.54599259473116,34.960716516181776,1.777299629736558,0.54916165085736,Left,Correct,0.0,0.0,-45,45,530,-1,-1
"{'cat': 'RB', 'resp': 'button'}",37,113,Right,61.76134652000033,89.06104502129955,3.0880673260000164,1.3989676237997226,Right,Correct,0.0,0.0,-45,45,586,-1,-1
"{'cat': 'RB', 'resp': 'button'}",37,114,Left,47.39420303253526,52.337989680160426,2.3697101516267627,0.8221232194142519,Right,Incorrect,0.0,0.0,-45,45,736,-1,-1
"{'cat': 'RB', 'resp': 'button'}",37,115,Left,39.99696694108062,51.655096222219235,1.999848347054031,0.8113963540609891,Left,Correct,0.0,0.0,-45,45,1386,-1,-1
"{'cat': 'RB', 'resp': 'button'}",37,116,Right,56.523469799424625,70.7853711278575,2.8261734899712314,1.111894009584521,Right,Correct,0.0,0.0,-45,45,644,-1,-1
"{'cat': 'RB', 'resp': 'button'}",37,117,Right,52.914948587009825,65.16847672032105,2.6457474293504912,1.0236640385509903,Right,Correct,0.0,0.0,-45,45,604,-1,-1
"{'cat': 'RB', 'resp': 'button'}",37,118,Right,65.62304091492956,47.94609820866275,3.2811520457464782,0.7531355495031481,Right,Correct,0.0,0.0,-45,45,790,-1,-1
"{'cat': 'RB', 'resp': 'button'}",37,119,Right,57.95301421827817,33.22377869376483,2.8976507109139082,0.5218778953441234,Right,Correct,0.0,0.0,-45,45,1717,-1,-1
"{'cat': 'RB', 'resp': 'button'}",37,120,Right,60.347682380865585,52.58253564943418,3.017384119043279,0.8259645385169291,Right,Correct,0.0,0.0,-45,45,762,-1,-1
"{'cat': 'RB', 'resp': 'button'}",37,121,Right,57.9687206147148,67.82379491956769,2.89843603073574,1.065373679289473,Right,Correct,0.0,0.0,-45,45,543,-1,-1
"{'cat': 'RB', 'resp': 'button'}",37,122,Left,34.42079817844311,64.57120857592942,1.7210399089221553,1.0142821724777706,Left,Correct,0.0,0.0,-45,45,514,-1,-1
"{'cat': 'RB', 'resp': 'button'}",37,123,Right,54.41481251070892,20.88527730891427,2.720740625535446,0.3280651688093533,Right,Correct,0.0,0.0,-45,45,545,-1,-1
"{'cat': 'RB', 'resp': 'button'}",37,124,Left,42.704810797225015,44.1878604371265,2.135240539861251,0.6941012886356385,Left,Correct,0.0,0.0,-45,45,636,-1,-1
"{'cat': 'RB', 'resp': 'button'}",37,125,Right,57.846970388996894,17.280631037721996,2.892348519449845,0.27144351758751595,Right,Correct,0.0,0.0,-45,45,526,-1,-1
"{'cat': 'RB', 'resp': 'button'}",37,126,Left,42.09409796966956,52.900242736436866,2.104704898483478,0.8309550697695345,Left,Correct,0.0,0.0,-45,45,732,-1,-1
"{'cat': 'RB', 'resp': 'button'}",37,127,Right,63.980707011956525,44.6459217105814,3.199035350597826,0.7012964982935379,Right,Correct,0.0,0.0,-45,45,432,-1,-1
"{'cat': 'RB', 'resp': 'button'}",37,128,Left,46.892676938669126,55.05541471448733,2.3446338469334562,0.8648084320368639,Right,Incorrect,0.0,0.0,-45,45,852,-1,-1
"{'cat': 'RB', 'resp': 'button'}",37,129,Left,36.39071889773363,78.32352506798054,1.8195359448866812,1.2303030547841183,Left,Correct,0.0,0.0,-45,45,1112,-1,-1
"{'cat': 'RB', 'resp': 'button'}",37,130,Left,32.52132496232133,39.27174209316881,1.6260662481160666,0.6168790822678609,Left,Correct,0.0,0.0,-45,45,665,-1,-1
"{'cat': 'RB', 'resp': 'button'}",37,131,Right,64.18623646605722,52.93135677695239,3.209311823302861,0.8314438079750697,Right,Correct,0.0,0.0,-45,45,824,-1,-1
"{'cat': 'RB', 'resp': 'button'}",37,132,Right,61.83808458953146,89.20633985914083,3.0919042294765733,1.401249909775556,Right,Correct,0.0,0.0,-45,45,890,-1,-1
"{'cat': 'RB', 'resp': 'button'}",37,133,Left,49.07964268533925,49.1338209025024,2.4539821342669628,0.7717922539504909,Left,Correct,0.0,0.0,-45,45,1886,-1,-1
"{'cat': 'RB', 'resp': 'button'}",37,134,Left,37.444359309146826,28.147191609909505,1.8722179654573412,0.44213505190437985,Left,Correct,0.0,0.0,-45,45,659,-1,-1
"{'cat': 'RB', 'resp': 'button'}",37,135,Left,38.34189001625546,25.911751335652287,1.917094500812773,0.4070208381886537,Left,Correct,0.0,0.0,-45,45,575,-1,-1
"{'cat': 'RB', 'resp': 'button'}",37,136,Left,38.87245953930026,27.62446606466635,1.9436229769650128,0.4339240982404817,Left,Correct,0.0,0.0,-45,45,649,-1,-1
"{'cat': 'RB', 'resp': 'button'}",37,137,Right,57.89805348628367,68.90535620544777,2.8949026743141837,1.082362804240113,Right,Correct,0.0,0.0,-45,45,387,-1,-1
"{'cat': 'RB', 'resp': 'button'}",37,138,Right,60.178165069173964,45.493769438823826,3.008908253458698,0.714614459265584,Right,Correct,0.0,0.0,-45,45,824,-1,-1
"{'cat': 'RB', 'resp': 'button'}",37,139,Right,60.68296225136918,12.891983482413444,3.034148112568459,0.20250680299275517,Right,Correct,0.0,0.0,-45,45,882,-1,-1
"{'cat': 'RB', 'resp': 'button'}",37,140,Right,58.40269619335727,68.0229323515112,2.9201348096678634,1.0685017227557154,Right,Correct,0.0,0.0,-45,45,655,-1,-1
"{'cat': 'RB', 'resp': 'button'}",37,141,Left,37.21903642670842,45.12832478130002,1.860951821335421,0.7088740680087319,Left,Correct,0.0,0.0,-45,45,660,-1,-1
"{'cat': 'RB', 'resp': 'button'}",37,142,Right,62.29112281689369,73.0904578750616,3.1145561408446842,1.1481022275390391,Right,Correct,0.0,0.0,-45,45,624,-1,-1
"{'cat': 'RB', 'resp': 'button'}",37,143,Left,35.95487156261332,49.16821326699901,1.797743578130666,0.7723324879487014,Left,Correct,0.0,0.0,-45,45,602,-1,-1
"{'cat': 'RB', 'resp': 'button'}",37,144,Left,45.33058959955669,58.43007528810257,2.266529479977834,0.9178174763690077,Left,Correct,0.0,0.0,-45,45,854,-1,-1
"{'cat': 'RB', 'resp': 'button'}",37,145,Right,60.18366242920099,58.50252541800515,3.0091831214600493,0.9189555203482757,Right,Correct,0.0,0.0,-45,45,513,-1,-1
"{'cat': 'RB', 'resp': 'button'}",37,146,Right,63.40153491896902,29.5381425135971,3.170076745948451,0.46398405760702505,Right,Correct,0.0,0.0,-45,45,819,-1,-1
"{'cat': 'RB', 'resp': 'button'}",37,147,Left,44.19455470627572,25.075004234002282,2.209727735313786,0.3938772454513726,Left,Correct,0.0,0.0,-45,45,1251,-1,-1
"{'cat': 'RB', 'resp': 'button'}",37,148,Left,42.86977359602635,49.39438481230039,2.143488679801317,0.7758851822745508,Left,Correct,0.0,0.0,-45,45,741,-1,-1
"{'cat': 'RB', 'resp': 'button'}",37,149,Left,38.948883668209405,26.629146038169495,1.9474441834104703,0.41828964782441513,Left,Correct,0.0,0.0,-45,45,608,-1,-1
"{'cat': 'RB', 'resp': 'button'}",37,150,Left,35.884365277935856,69.68130514097308,1.7942182638967927,1.0945513816171486,Left,Correct,0.0,0.0,-45,45,727,-1,-1
"{'cat': 'RB', 'resp': 'button'}",37,151,Left,33.703275685917134,49.8253482774891,1.6851637842958567,0.7826547405555632,Left,Correct,0.0,0.0,-45,45,453,-1,-1
"{'cat': 'RB', 'resp': 'button'}",37,152,Left,47.896841759708224,29.073985829870242,2.394842087985411,0.4566931014684705,Right,Incorrect,0.0,0.0,-45,45,830,-1,-1
"{'cat': 'RB', 'resp': 'button'}",37,153,Right,63.64637681625937,58.81926185316414,3.1823188408129686,0.9239308046373741,Right,Correct,0.0,0.0,-45,45,724,-1,-1
"{'cat': 'RB', 'resp': 'button'}",37,154,Left,49.11329081063411,53.01664734207811,2.4556645405317057,0.8327835490391672,Right,Incorrect,0.0,0.0,-45,45,676,-1,-1
"{'cat': 'RB', 'resp': 'button'}",37,155,Left,37.387548864405275,64.99888967990996,1.869377443220264,1.021000171549493,Left,Correct,0.0,0.0,-45,45,642,-1,-1
"{'cat': 'RB', 'resp': 'button'}",37,156,Right,56.102930244562906,86.95710876116915,2.805146512228145,1.3659190703074882,Right,Correct,0.0,0.0,-45,45,939,-1,-1
"{'cat': 'RB', 'resp': 'button'}",37,157,Right,53.00546431479087,35.50464185516569,2.6502732157395434,0.557705610102626,Right,Correct,0.0,0.0,-45,45,887,-1,-1
"{'cat': 'RB', 'resp': 'button'}",37,158,Left,45.25406260293899,44.564898175881844,2.2627031301469493,0.7000237835866379,Left,Correct,0.0,0.0,-45,45,1567,-1,-1
"{'cat': 'RB', 'resp': 'button'}",37,159,Right,58.03199626609744,64.62314863110316,2.901599813304872,1.015098044956575,Right,Correct,0.0,0.0,-45,45,1032,-1,-1
"{'cat': 'RB', 'resp': 'button'}",37,160,Right,60.042592420237916,63.72161113976781,3.0021296210118957,1.0009367271580003,Right,Correct,0.0,0.0,-45,45,873,-1,-1
"{'cat': 'RB', 'resp': 'button'}",37,161,Right,68.04258025374072,46.614003716618235,3.402129012687036,0.732211058152676,Right,Correct,0.0,0.0,-45,45,854,-1,-1
"{'cat': 'RB', 'resp': 'button'}",37,162,Left,41.99471400870273,89.55259658212285,2.0997357004351365,1.4066888976614378,Left,Correct,0.0,0.0,-45,45,707,-1,-1
"{'cat': 'RB', 'resp': 'button'}",37,163,Left,40.996570168424974,57.012225446616014,2.0498285084212484,0.8955459431394698,Left,Correct,0.0,0.0,-45,45,937,-1,-1
"{'cat': 'RB', 'resp': 'button'}",37,164,Left,33.05032638924306,63.70779632593599,1.652516319462153,1.0007197245697765,Left,Correct,0.0,0.0,-45,45,702,-1,-1
"{'cat': 'RB', 'resp': 'button'}",37,165,Left,39.74345541731115,8.93784048648395,1.9871727708655573,0.14039527005647698,Left,Correct,0.0,0.0,-45,45,798,-1,-1
"{'cat': 'RB', 'resp': 'button'}",37,166,Left,35.987528635467456,79.40191438939215,1.799376431773373,1.2472423546334004,Left,Correct,0.0,0.0,-45,45,453,-1,-1
"{'cat': 'RB', 'resp': 'button'}",37,167,Right,61.25438160576968,43.28495970890769,3.0627190802884843,0.679918557162173,Right,Correct,0.0,0.0,-45,45,574,-1,-1
"{'cat': 'RB', 'resp': 'button'}",37,168,Left,38.11902175806335,17.65669083980771,1.9059510879031674,0.27735065114523044,Left,Correct,0.0,0.0,-45,45,605,-1,-1
"{'cat': 'RB', 'resp': 'button'}",37,169,Right,58.55932322150526,82.64092516232006,2.927966161075263,1.298120616879043,Right,Correct,0.0,0.0,-45,45,754,-1,-1
"{'cat': 'RB', 'resp': 'button'}",37,170,Right,59.73948272677631,84.08127301296997,2.9869741363388154,1.320745548010121,Right,Correct,0.0,0.0,-45,45,638,-1,-1
"{'cat': 'RB', 'resp': 'button'}",37,171,Right,62.7065983297681,13.784356395420595,3.1353299164884048,0.2165241639315841,Right,Correct,0.0,0.0,-45,45,514,-1,-1
"{'cat': 'RB', 'resp': 'button'}",37,172,Right,58.327508249297104,14.286294452906091,2.916375412464855,0.22440858850135192,Right,Correct,0.0,0.0,-45,45,398,-1,-1
"{'cat': 'RB', 'resp': 'button'}",37,173,Left,44.49252929098997,81.83868490039428,2.2246264645494986,1.285519056312643,Left,Correct,0.0,0.0,-45,45,1143,-1,-1
"{'cat': 'RB', 'resp': 'button'}",37,174,Left,37.91891320671885,87.51441955958703,1.8959456603359426,1.3746732878578676,Left,Correct,0.0,0.0,-45,45,611,-1,-1
"{'cat': 'RB', 'resp': 'button'}",37,175,Left,37.27387647662882,17.839839137810742,1.863693823831441,0.28022753788284943,Left,Correct,0.0,0.0,-45,45,524,-1,-1
"{'cat': 'RB', 'resp': 'button'}",37,176,Left,38.62915797094318,57.58507662097459,1.9314578985471593,0.9045442683442957,Left,Correct,0.0,0.0,-45,45,963,-1,-1
"{'cat': 'RB', 'resp': 'button'}",37,177,Right,60.959619793654895,85.68848472253731,3.0479809896827446,1.3459915705078223,Right,Correct,0.0,0.0,-45,45,935,-1,-1
"{'cat': 'RB', 'resp': 'button'}",37,178,Left,36.356732046044215,47.40967318495824,1.8178366023022108,0.7447094049347892,Left,Correct,0.0,0.0,-45,45,878,-1,-1
"{'cat': 'RB', 'resp': 'button'}",37,179,Left,48.44977172382415,31.504195763569562,2.4224885861912075,0.4948667498404241,Right,Incorrect,0.0,0.0,-45,45,2201,-1,-1
"{'cat': 'RB', 'resp': 'button'}",37,180,Right,53.03478476010602,25.075107090746837,2.6517392380053013,0.39387886112133785,Right,Correct,0.0,0.0,-45,45,765,-1,-1
"{'cat': 'RB', 'resp': 'button'}",37,181,Left,42.31470607480656,26.94955297709051,2.115735303740328,0.4233225882517824,Left,Correct,0.0,0.0,-45,45,1161,-1,-1
"{'cat': 'RB', 'resp': 'button'}",37,182,Left,32.726508502817936,41.97970125838536,1.6363254251408967,0.6594156053661883,Left,Correct,0.0,0.0,-45,45,650,-1,-1
"{'cat': 'RB', 'resp': 'button'}",37,183,Right,58.973693376964086,89.39261060506405,2.948684668848204,1.404175843810411,Right,Correct,0.0,0.0,-45,45,690,-1,-1
"{'cat': 'RB', 'resp': 'button'}",37,184,Right,58.13045776205934,26.14830427936321,2.9065228881029674,0.41073660313939,Right,Correct,0.0,0.0,-45,45,679,-1,-1
"{'cat': 'RB', 'resp': 'button'}",37,185,Right,55.04246410032486,20.55666271623785,2.7521232050162427,0.3229033028582801,Right,Correct,0.0,0.0,-45,45,597,-1,-1
"{'cat': 'RB', 'resp': 'button'}",37,186,Left,34.67595966749492,24.352944604595088,1.7337979833747459,0.3825351593153756,Left,Correct,0.0,0.0,-45,45,855,-1,-1
"{'cat': 'RB', 'resp': 'button'}",37,187,Left,38.74968148560484,41.62585995195807,1.937484074280242,0.6538574791221453,Left,Correct,0.0,0.0,-45,45,1007,-1,-1
"{'cat': 'RB', 'resp': 'button'}",37,188,Left,45.56683026936241,40.7095575836921,2.2783415134681206,0.6394642351790889,Left,Correct,0.0,0.0,-45,45,1988,-1,-1
"{'cat': 'RB', 'resp': 'button'}",37,189,Left,32.926070730368465,29.420786217357296,1.646303536518423,0.46214062921642757,Left,Correct,0.0,0.0,-45,45,659,-1,-1
"{'cat': 'RB', 'resp': 'button'}",37,190,Left,39.16218585068187,78.71138141853072,1.9581092925340937,1.2363954880918013,Left,Correct,0.0,0.0,-45,45,1624,-1,-1
"{'cat': 'RB', 'resp': 'button'}",37,191,Right,61.38719252615495,61.923610228133256,3.0693596263077474,0.9726937948823059,Right,Correct,0.0,0.0,-45,45,694,-1,-1
"{'cat': 'RB', 'resp': 'button'}",37,192,Right,69.07213844385299,38.78919989243278,3.4536069221926495,0.609299327103464,Right,Correct,0.0,0.0,-45,45,605,-1,-1
"{'cat': 'RB', 'resp': 'button'}",37,193,Left,37.6024035886298,69.92653193302525,1.8801201794314897,1.098403395059021,Left,Correct,0.0,0.0,-45,45,752,-1,-1
"{'cat': 'RB', 'resp': 'button'}",37,194,Left,44.19853361792507,55.825079145546084,2.209926680896254,0.8768982926485818,Left,Correct,0.0,0.0,-45,45,1617,-1,-1
"{'cat': 'RB', 'resp': 'button'}",37,195,Right,65.05180922889973,38.396094095834144,3.2525904614449868,0.6031244356900748,Right,Correct,0.0,0.0,-45,45,1071,-1,-1
"{'cat': 'RB', 'resp': 'button'}",37,196,Left,43.47545774122247,20.404933673354137,2.1737728870611237,0.3205199486259817,Left,Correct,0.0,0.0,-45,45,598,-1,-1
"{'cat': 'RB', 'resp': 'button'}",37,197,Right,63.165478674609616,20.81065082993524,3.158273933730481,0.32689293881873444,Right,Correct,0.0,0.0,-45,45,508,-1,-1
"{'cat': 'RB', 'resp': 'button'}",37,198,Right,67.2919092529128,75.03117206857448,3.36459546264564,1.178586894804326,Right,Correct,0.0,0.0,-45,45,1187,-1,-1
"{'cat': 'RB', 'resp': 'button'}",37,199,Right,57.9125325614048,38.33210384350431,2.8956266280702403,0.6021192791569712,Right,Correct,0.0,0.0,-45,45,673,-1,-1
"{'cat': 'RB', 'resp': 'button'}",37,200,Right,65.59285465309812,60.250879931970175,3.279642732654906,0.946418608832991,Right,Correct,0.0,0.0,-45,45,512,-1,-1
"{'cat': 'RB', 'resp': 'button'}",37,201,Right,57.09193212894805,38.84264521542319,2.854596606447403,0.610138844273841,Right,Correct,0.0,0.0,-45,45,745,-1,-1
"{'cat': 'RB', 'resp': 'button'}",37,202,Left,40.8902980385041,9.553278997894282,2.044514901925205,0.15006255558739165,Left,Correct,0.0,0.0,-45,45,1051,-1,-1
"{'cat': 'RB', 'resp': 'button'}",37,203,Left,37.63005891027414,62.11106566098446,1.8815029455137067,0.9756383379359103,Left,Correct,0.0,0.0,-45,45,806,-1,-1
"{'cat': 'RB', 'resp': 'button'}",37,204,Left,42.917488184136566,72.45304323510938,2.1458744092068285,1.1380897417882163,Left,Correct,0.0,0.0,-45,45,676,-1,-1
"{'cat': 'RB', 'resp': 'button'}",37,205,Left,44.34238982980392,22.15900554931911,2.217119491490196,0.3480728452229819,Left,Correct,0.0,0.0,-45,45,887,-1,-1
"{'cat': 'RB', 'resp': 'button'}",37,206,Left,32.95424633994168,38.779378104960216,1.647712316997084,0.6091450468266194,Left,Correct,0.0,0.0,-45,45,783,-1,-1
"{'cat': 'RB', 'resp': 'button'}",37,207,Left,31.262258004731514,58.88304789834614,1.5631129002365756,0.9249327534921008,Left,Correct,0.0,0.0,-45,45,975,-1,-1
"{'cat': 'RB', 'resp': 'button'}",37,208,Left,39.48830742761609,11.4553266246146,1.9744153713808046,0.17993984984180394,Left,Correct,0.0,0.0,-45,45,1382,-1,-1
"{'cat': 'RB', 'resp': 'button'}",37,209,Right,65.65319935400149,17.292757615201175,3.282659967700074,0.2716340014211248,Right,Correct,0.0,0.0,-45,45,633,-1,-1
"{'cat': 'RB', 'resp': 'button'}",37,210,Right,64.45419481114668,78.4046892781366,3.222709740557334,1.2315779792159218,Right,Correct,0.0,0.0,-45,45,635,-1,-1
"{'cat': 'RB', 'resp': 'button'}",37,211,Left,41.47740230358964,41.609620274606165,2.0738701151794823,0.6536023868668183,Left,Correct,0.0,0.0,-45,45,1076,-1,-1
"{'cat': 'RB', 'resp': 'button'}",37,212,Left,39.80771777468475,59.71978875208457,1.9903858887342374,0.9380762480874162,Left,Correct,0.0,0.0,-45,45,608,-1,-1
"{'cat': 'RB', 'resp': 'button'}",37,213,Left,36.60031162148248,52.76977230977375,1.8300155810741243,0.8289056450999563,Left,Correct,0.0,0.0,-45,45,854,-1,-1
"{'cat': 'RB', 'resp': 'button'}",37,214,Left,39.04754920762996,21.44113164525008,1.9523774603814983,0.33679650830684643,Left,Correct,0.0,0.0,-45,45,455,-1,-1
"{'cat': 'RB', 'resp': 'button'}",37,215,Left,42.56087506569646,41.43983907084091,2.128043753284823,0.6509354699544854,Left,Correct,0.0,0.0,-45,45,553,-1,-1
"{'cat': 'RB', 'resp': 'button'}",37,216,Left,39.64109841522317,38.94561683354767,1.9820549207611584,0.6117563186689817,Left,Correct,0.0,0.0,-45,45,583,-1,-1
"{'cat': 'RB', 'resp': 'button'}",37,217,Left,34.79674593690039,72.54305502354435,1.7398372968450195,1.1395036436546353,Left,Correct,0.0,0.0,-45,45,464,-1,-1
"{'cat': 'RB', 'resp': 'button'}",37,218,Left,43.543257198135215,50.483395191669416,2.177162859906761,0.7929913173120947,Left,Correct,0.0,0.0,-45,45,1842,-1,-1
"{'cat': 'RB', 'resp': 'button'}",37,219,Right,65.24206934512064,67.49458954443072,3.262103467256032,1.06020253334921,Right,Correct,0.0,0.0,-45,45,445,-1,-1
"{'cat': 'RB', 'resp': 'button'}",37,220,Right,58.493086027922416,72.70386147047485,2.924654301396121,1.1420295854162688,Right,Correct,0.0,0.0,-45,45,393,-1,-1
"{'cat': 'RB', 'resp': 'button'}",37,221,Right,59.508741423039766,62.98708991352685,2.975437071151988,0.9893988947166785,Right,Correct,0.0,0.0,-45,45,494,-1,-1
"{'cat': 'RB', 'resp': 'button'}",37,222,Right,56.1849077542672,23.39814928986691,2.8092453877133603,0.36753726958321564,Right,Correct,0.0,0.0,-45,45,676,-1,-1
"{'cat': 'RB', 'resp': 'button'}",37,223,Left,37.380825851887856,57.9113494398363,1.869041292594393,0.9096693497983056,Left,Correct,0.0,0.0,-45,45,641,-1,-1
"{'cat': 'RB', 'resp': 'button'}",37,224,Left,30.908884341069168,46.98009397515099,1.5454442170534584,0.7379615904864624,Left,Correct,0.0,0.0,-45,45,610,-1,-1
"{'cat': 'RB', 'resp': 'button'}",37,225,Right,61.630324668206335,60.89416629589377,3.0815162334103166,0.9565233274082752,Right,Correct,0.0,0.0,-45,45,688,-1,-1
"{'cat': 'RB', 'resp': 'button'}",37,226,Left,37.93618061906213,66.68711145512509,1.8968090309531065,1.0475186971827235,Left,Correct,0.0,0.0,-45,45,605,-1,-1
"{'cat': 'RB', 'resp': 'button'}",37,227,Left,32.9545359046771,32.12764118962316,1.647726795233855,0.5046598076924448,Left,Correct,0.0,0.0,-45,45,648,-1,-1
"{'cat': 'RB', 'resp': 'button'}",37,228,Left,36.08725647544071,40.14620957005193,1.8043628237720355,0.6306151852737569,Left,Correct,0.0,0.0,-45,45,488,-1,-1
"{'cat': 'RB', 'resp': 'button'}",37,229,Left,35.09440923404434,48.70921336458568,1.7547204617022172,0.7651225343416006,Left,Correct,0.0,0.0,-45,45,439,-1,-1
"{'cat': 'RB', 'resp': 'button'}",37,230,Right,68.89919601907053,51.71761221767095,3.4449598009535265,0.8123783530212039,Right,Correct,0.0,0.0,-45,45,599,-1,-1
"{'cat': 'RB', 'resp': 'button'}",37,231,Left,45.70282556348745,55.176456344968074,2.2851412781743727,0.8667097495223481,Left,Correct,0.0,0.0,-45,45,1015,-1,-1
"{'cat': 'RB', 'resp': 'button'}",37,232,Right,64.17412359857066,56.91874872163392,3.208706179928533,0.8940776141770428,Right,Correct,0.0,0.0,-45,45,609,-1,-1
"{'cat': 'RB', 'resp': 'button'}",37,233,Right,66.23920846952336,59.96657704504349,3.311960423476168,0.9419527895281747,Right,Correct,0.0,0.0,-45,45,631,-1,-1
"{'cat': 'RB', 'resp': 'button'}",37,234,Right,55.688016967866574,71.48362743117866,2.7844008483933287,1.1228621939487036,Right,Correct,0.0,0.0,-45,45,779,-1,-1
"{'cat': 'RB', 'resp': 'button'}",37,235,Left,33.10058556458523,39.110585429284086,1.6550292782292615,0.6143476393111744,Left,Correct,0.0,0.0,-45,45,545,-1,-1
"{'cat': 'RB', 'resp': 'button'}",37,236,Right,65.55910445454946,68.9258893886861,3.277955222727473,1.0826853387281947,Right,Correct,0.0,0.0,-45,45,686,-1,-1
"{'cat': 'RB', 'resp': 'button'}",37,237,Left,34.76208027143137,57.74845315207069,1.7381040135715689,0.9071105808935981,Left,Correct,0.0,0.0,-45,45,916,-1,-1
"{'cat': 'RB', 'resp': 'button'}",37,238,Right,53.80141084017336,30.80246685654286,2.690070542008668,0.48384401794479065,Right,Correct,0.0,0.0,-45,45,1496,-1,-1
"{'cat': 'RB', 'resp': 'button'}",37,239,Right,58.72873238126073,29.56101542256607,2.9364366190630364,0.4643433444209407,Right,Correct,0.0,0.0,-45,45,794,-1,-1
"{'cat': 'RB', 'resp': 'button'}",37,240,Left,32.968964317265495,55.112842898353584,1.6484482158632747,0.8657105118395801,Left,Correct,0.0,0.0,-45,45,615,-1,-1
"{'cat': 'RB', 'resp': 'button'}",37,241,Right,57.49209064274929,53.93460842915428,2.8746045321374645,0.847202848076366,Right,Correct,0.0,0.0,-45,45,557,-1,-1
"{'cat': 'RB', 'resp': 'button'}",37,242,Left,33.13179818255507,29.68559476434407,1.6565899091277538,0.4663002321455348,Left,Correct,0.0,0.0,-45,45,1270,-1,-1
"{'cat': 'RB', 'resp': 'button'}",37,243,Left,31.937033737367763,57.132761926907754,1.596851686868388,0.8974393257443402,Left,Correct,0.0,0.0,-45,45,724,-1,-1
"{'cat': 'RB', 'resp': 'button'}",37,244,Left,40.1559508444308,87.60821156385244,2.00779754222154,1.3761465692156958,Left,Correct,0.0,0.0,-45,45,1053,-1,-1
"{'cat': 'RB', 'resp': 'button'}",37,245,Right,64.70051575036217,52.07780577904937,3.2350257875181088,0.8180362602526879,Right,Correct,0.0,0.0,-45,45,529,-1,-1
"{'cat': 'RB', 'resp': 'button'}",37,246,Right,55.60688812629457,48.87277511320162,2.780344406314729,0.7676917562809015,Right,Correct,0.0,0.0,-45,45,1392,-1,-1
"{'cat': 'RB', 'resp': 'button'}",37,247,Left,44.591683534563366,80.58429079023844,2.2295841767281686,1.2658150797067835,Right,Incorrect,0.0,0.0,-45,45,811,-1,-1
"{'cat': 'RB', 'resp': 'button'}",37,248,Left,35.29347728878084,47.7181527231373,1.7646738644390423,0.7495549901894195,Left,Correct,0.0,0.0,-45,45,767,-1,-1
"{'cat': 'RB', 'resp': 'button'}",37,249,Left,35.34100626026876,80.78273076327847,1.767050313013438,1.268932167514189,Left,Correct,0.0,0.0,-45,45,1116,-1,-1
"{'cat': 'RB', 'resp': 'button'}",37,250,Right,55.70101814734881,40.107540935252594,2.7850509073674408,0.6300077797787073,Right,Correct,0.0,0.0,-45,45,724,-1,-1
"{'cat': 'RB', 'resp': 'button'}",37,251,Right,67.65877518636572,31.697643145397546,3.3829387593182854,0.49790541420845896,Right,Correct,0.0,0.0,-45,45,576,-1,-1
"{'cat': 'RB', 'resp': 'button'}",37,252,Left,46.381332533406976,39.630872321178835,2.319066626670349,0.6225202866978526,Left,Correct,0.0,0.0,-45,45,2023,-1,-1
"{'cat': 'RB', 'resp': 'button'}",37,253,Left,42.741281569638346,74.49840450180707,2.1370640784819175,1.1702182014351892,Left,Correct,0.0,0.0,-45,45,668,-1,-1
"{'cat': 'RB', 'resp': 'button'}",37,254,Left,37.13203081084965,34.760925052713326,1.8566015405424823,0.5460233338879479,Left,Correct,0.0,0.0,-45,45,1013,-1,-1
"{'cat': 'RB', 'resp': 'button'}",37,255,Right,56.86848009065499,88.95104639107825,2.8434240045327495,1.3972397693566814,Right,Correct,0.0,0.0,-45,45,641,-1,-1
"{'cat': 'RB', 'resp': 'button'}",37,256,Left,31.12414666714123,39.02503528166012,1.5562073333570614,0.6130038207347295,Left,Correct,0.0,0.0,-45,45,616,-1,-1
"{'cat': 'RB', 'resp': 'button'}",37,257,Right,55.61211478787464,37.444683342492404,2.7806057393937316,0.5881797105238512,Right,Correct,0.0,0.0,-45,45,717,-1,-1
"{'cat': 'RB', 'resp': 'button'}",37,258,Left,37.060188926156435,44.98685802270329,1.8530094463078217,0.7066519133610585,Left,Correct,0.0,0.0,-45,45,632,-1,-1
"{'cat': 'RB', 'resp': 'button'}",37,259,Left,35.17148970266925,35.51547077775149,1.7585744851334624,0.5578757104208353,Left,Correct,0.0,0.0,-45,45,481,-1,-1
"{'cat': 'RB', 'resp': 'button'}",37,260,Left,38.87268541098641,71.58362507757684,1.9436342705493206,1.1244329533052073,Left,Correct,0.0,0.0,-45,45,525,-1,-1
"{'cat': 'RB', 'resp': 'button'}",37,261,Left,42.40966998086203,11.555567256333646,2.120483499043101,0.18151442600280268,Left,Correct,0.0,0.0,-45,45,500,-1,-1
"{'cat': 'RB', 'resp': 'button'}",37,262,Right,58.612649596463626,81.18472162562412,2.930632479823181,1.2752466252139656,Right,Correct,0.0,0.0,-45,45,601,-1,-1
"{'cat': 'RB', 'resp': 'button'}",37,263,Left,39.38482826122822,21.184130669590004,1.969241413061411,0.3327595464213509,Left,Correct,0.0,0.0,-45,45,539,-1,-1
"{'cat': 'RB', 'resp': 'button'}",37,264,Right,57.67658411526225,81.85204821843828,2.8838292057631127,1.2857289668216163,Right,Correct,0.0,0.0,-45,45,553,-1,-1
"{'cat': 'RB', 'resp': 'button'}",37,265,Left,33.828147555705236,38.84513290186891,1.6914073777852618,0.6101779207611527,Left,Correct,0.0,0.0,-45,45,501,-1,-1
"{'cat': 'RB', 'resp': 'button'}",37,266,Left,39.12374996747029,24.80375204891189,1.9561874983735146,0.38961642609162184,Left,Correct,0.0,0.0,-45,45,1089,-1,-1
"{'cat': 'RB', 'resp': 'button'}",37,267,Left,41.76601252472965,46.003038860357066,2.088300626236483,0.7226140446325175,Left,Correct,0.0,0.0,-45,45,1230,-1,-1
"{'cat': 'RB', 'resp': 'button'}",37,268,Right,57.49319039304792,58.05827575559177,2.8746595196523956,0.9119772629692875,Right,Correct,0.0,0.0,-45,45,717,-1,-1
"{'cat': 'RB', 'resp': 'button'}",37,269,Left,35.5706739694412,24.596574744876346,1.77853369847206,0.3863620926098788,Left,Correct,0.0,0.0,-45,45,573,-1,-1
"{'cat': 'RB', 'resp': 'button'}",37,270,Left,35.294649737146116,43.76006575349339,1.764732486857306,0.6873815054589056,Left,Correct,0.0,0.0,-45,45,519,-1,-1
"{'cat': 'RB', 'resp': 'button'}",37,271,Right,60.0393123195062,74.92446541389926,3.00196561597531,1.1769107505922423,Right,Correct,0.0,0.0,-45,45,955,-1,-1
"{'cat': 'RB', 'resp': 'button'}",37,272,Right,65.86918675236575,69.39631004680136,3.2934593376182875,1.0900746891463535,Right,Correct,0.0,0.0,-45,45,750,-1,-1
"{'cat': 'RB', 'resp': 'button'}",37,273,Right,60.26965737420419,75.96362708420692,3.0134828687102093,1.1932338639388953,Right,Correct,0.0,0.0,-45,45,765,-1,-1
"{'cat': 'RB', 'resp': 'button'}",37,274,Right,60.273328222067114,75.85168552507197,3.013666411103356,1.1914754900398468,Right,Correct,0.0,0.0,-45,45,514,-1,-1
"{'cat': 'RB', 'resp': 'button'}",37,275,Left,44.26974909010386,58.0814147563378,2.213487454505193,0.9123407295430632,Left,Correct,0.0,0.0,-45,45,1982,-1,-1
"{'cat': 'RB', 'resp': 'button'}",37,276,Right,61.1029865512292,65.45882512022399,3.05514932756146,1.0282248205515734,Right,Correct,0.0,0.0,-45,45,647,-1,-1
"{'cat': 'RB', 'resp': 'button'}",37,277,Right,51.00440936235296,44.75040291561106,2.550220468117648,0.702937685224335,Right,Correct,0.0,0.0,-45,45,605,-1,-1
"{'cat': 'RB', 'resp': 'button'}",37,278,Left,40.34269582394581,80.21150224629584,2.0171347911972903,1.2599593309518207,Left,Correct,0.0,0.0,-45,45,574,-1,-1
"{'cat': 'RB', 'resp': 'button'}",37,279,Right,52.859426886075354,73.89104399370962,2.642971344303768,1.1606778048835915,Right,Correct,0.0,0.0,-45,45,593,-1,-1
"{'cat': 'RB', 'resp': 'button'}",37,280,Left,39.311251304452654,32.29651673360081,1.9655625652226325,0.5073124985341007,Left,Correct,0.0,0.0,-45,45,926,-1,-1
"{'cat': 'RB', 'resp': 'button'}",37,281,Left,45.56710961513647,45.92227092583573,2.2783554807568236,0.7213453448838283,Right,Incorrect,0.0,0.0,-45,45,848,-1,-1
"{'cat': 'RB', 'resp': 'button'}",37,282,Right,56.787421176679295,12.122460914925178,2.839371058833965,0.1904191707687917,Right,Correct,0.0,0.0,-45,45,1593,-1,-1
"{'cat': 'RB', 'resp': 'button'}",37,283,Right,56.372646253188044,50.857902057268525,2.818632312659402,0.7988740574005201,Right,Correct,0.0,0.0,-45,45,820,-1,-1
"{'cat': 'RB', 'resp': 'button'}",37,284,Right,60.408850163854225,83.02298000344834,3.0204425081927115,1.304121920289828,Right,Correct,0.0,0.0,-45,45,697,-1,-1
"{'cat': 'RB', 'resp': 'button'}",37,285,Left,46.83070586086373,52.6005661869494,2.3415352930431865,0.8262477615379193,Right,Incorrect,0.0,0.0,-45,45,1388,-1,-1
"{'cat': 'RB', 'resp': 'button'}",37,286,Right,62.99472797763532,87.12458363212161,3.1497363988817657,1.368549759428714,Right,Correct,0.0,0.0,-45,45,659,-1,-1
"{'cat': 'RB', 'resp': 'button'}",37,287,Right,63.49712510768561,35.312917471219755,3.1748562553842805,0.5546940105220332,Right,Correct,0.0,0.0,-45,45,568,-1,-1
"{'cat': 'RB', 'resp': 'button'}",37,288,Right,54.91787904420197,62.82939112510931,2.7458939522100985,0.986921767940816,Right,Correct,0.0,0.0,-45,45,1195,-1,-1
"{'cat': 'RB', 'resp': 'button'}",37,289,Left,41.719640264341955,30.419485970460492,2.0859820132170976,0.47782816825388236,Left,Correct,0.0,0.0,-45,45,588,-1,-1
"{'cat': 'RB', 'resp': 'button'}",37,290,Right,53.67147152014949,50.62233180340817,2.683573576007474,0.7951737285058603,Right,Correct,0.0,0.0,-45,45,789,-1,-1
"{'cat': 'RB', 'resp': 'button'}",37,291,Right,67.72723436344853,71.10431270000151,3.3863617181724264,1.116903932084381,Right,Correct,0.0,0.0,-45,45,691,-1,-1
"{'cat': 'RB', 'resp': 'button'}",37,292,Right,62.813925141247964,59.92182647249365,3.140696257062398,0.9412498491783422,Right,Correct,0.0,0.0,-45,45,721,-1,-1
"{'cat': 'RB', 'resp': 'button'}",37,293,Left,40.44067802274001,11.318626791416783,2.0220339011370005,0.17779257388319789,Left,Correct,0.0,0.0,-45,45,852,-1,-1
"{'cat': 'RB', 'resp': 'button'}",37,294,Left,46.550081477384474,27.521048207159385,2.327504073869224,0.4322996143335123,Right,Incorrect,0.0,0.0,-45,45,886,-1,-1
"{'cat': 'RB', 'resp': 'button'}",37,295,Right,56.34992150511706,61.89274437811579,2.817496075255853,0.9722089552439976,Right,Correct,0.0,0.0,-45,45,778,-1,-1
"{'cat': 'RB', 'resp': 'button'}",37,296,Right,57.12636654055876,21.32859329529475,2.856318327027938,0.33502876003951254,Right,Correct,0.0,0.0,-45,45,923,-1,-1
"{'cat': 'RB', 'resp': 'button'}",37,297,Left,40.727113839390306,24.380692767636972,2.0363556919695154,0.3829710264411906,Left,Correct,0.0,0.0,-45,45,536,-1,-1
"{'cat': 'RB', 'resp': 'button'}",37,298,Right,57.16448621978537,80.33567284828963,2.858224310989268,1.2619097982068987,Right,Correct,0.0,0.0,-45,45,1872,-1,-1
"{'cat': 'RB', 'resp': 'button'}",37,299,Right,53.91151663274018,28.537350381073868,2.695575831637009,0.4482636515504978,Right,Correct,0.0,0.0,-45,45,671,-1,-1
"{'cat': 'RB', 'resp': 'button'}",37,300,Left,35.72206360767072,42.89210936410407,1.7861031803835359,0.6737476783761966,Left,Correct,0.0,0.0,-45,45,599,-1,-1
"{'cat': 'RB', 'resp': 'button'}",37,301,Left,32.47717158293791,57.70208524887877,1.6238585791468956,0.9063822355734474,Left,Correct,0.0,0.0,-45,45,587,-1,-1
"{'cat': 'RB', 'resp': 'button'}",37,302,Left,35.33577978764013,37.766378977449484,1.7667889893820063,0.5932328937412165,Left,Correct,0.0,0.0,-45,45,814,-1,-1
"{'cat': 'RB', 'resp': 'button'}",37,303,Right,63.63212503614395,63.19714104541062,3.1816062518071977,0.9926983701806998,Right,Correct,0.0,0.0,-45,45,655,-1,-1
"{'cat': 'RB', 'resp': 'button'}",37,304,Right,67.44958775824307,43.09035998747527,3.3724793879121533,0.6768617918859594,Right,Correct,0.0,0.0,-45,45,597,-1,-1
"{'cat': 'RB', 'resp': 'button'}",37,305,Right,56.184255866184245,36.989801335408146,2.809212793309212,0.5810344406653207,Right,Correct,0.0,0.0,-45,45,651,-1,-1
"{'cat': 'RB', 'resp': 'button'}",37,306,Left,35.89491064632745,37.9090032494166,1.7947455323163726,0.5954732305663939,Left,Correct,0.0,0.0,-45,45,649,-1,-1
"{'cat': 'RB', 'resp': 'button'}",37,307,Left,42.40069457205345,43.243515199304255,2.120034728602673,0.6792675483276641,Left,Correct,0.0,0.0,-45,45,734,-1,-1
"{'cat': 'RB', 'resp': 'button'}",37,308,Right,62.83523925511647,58.63509554624716,3.1417619627558238,0.9210379270531284,Right,Correct,0.0,0.0,-45,45,641,-1,-1
"{'cat': 'RB', 'resp': 'button'}",37,309,Right,62.05626320625031,28.17651827206138,3.1028131603125155,0.44259571403623305,Right,Correct,0.0,0.0,-45,45,600,-1,-1
"{'cat': 'RB', 'resp': 'button'}",37,310,Right,66.32018682941674,44.30799053703987,3.316009341470837,0.6959882878324527,Right,Correct,0.0,0.0,-45,45,629,-1,-1
"{'cat': 'RB', 'resp': 'button'}",37,311,Left,40.73204317976496,69.90290924573806,2.0366021589882477,1.0980323307548236,Left,Correct,0.0,0.0,-45,45,660,-1,-1
"{'cat': 'RB', 'resp': 'button'}",37,312,Left,48.954792196374044,43.49890381534377,2.4477396098187025,0.6832791833274651,Left,Correct,0.0,0.0,-45,45,1158,-1,-1
"{'cat': 'RB', 'resp': 'button'}",37,313,Right,65.48176462732587,60.82008042386676,3.274088231366294,0.955359589251801,Right,Correct,0.0,0.0,-45,45,579,-1,-1
"{'cat': 'RB', 'resp': 'button'}",37,314,Right,57.126777478980564,83.43848102871868,2.8563388739490283,1.3106485951325697,Left,Incorrect,0.0,0.0,-45,45,598,-1,-1
"{'cat': 'RB', 'resp': 'button'}",37,315,Left,45.642317875615426,42.19775938538553,2.2821158937807713,0.6628408544153847,Left,Correct,0.0,0.0,-45,45,1524,-1,-1
"{'cat': 'RB', 'resp': 'button'}",37,316,Right,65.6491772712823,28.221475992866438,3.2824588635641145,0.44330190826324956,Right,Correct,0.0,0.0,-45,45,621,-1,-1
"{'cat': 'RB', 'resp': 'button'}",37,317,Right,61.79401504494475,56.28665184310728,3.0897007522472375,0.8841486596273611,Right,Correct,0.0,0.0,-45,45,742,-1,-1
"{'cat': 'RB', 'resp': 'button'}",37,318,Left,45.84062029085985,39.245393493905205,2.2920310145429927,0.6164651994384662,Left,Correct,0.0,0.0,-45,45,844,-1,-1
"{'cat': 'RB', 'resp': 'button'}",37,319,Right,56.8770993733276,33.39425940778739,2.84385496866638,0.5245558001378835,Right,Correct,0.0,0.0,-45,45,648,-1,-1
"{'cat': 'RB', 'resp': 'button'}",37,320,Left,43.74276601963459,42.96782179328777,2.1871383009817293,0.6749369664327413,Left,Correct,0.0,0.0,-45,45,802,-1,-1
"{'cat': 'RB', 'resp': 'button'}",37,321,Right,59.4457113870571,15.30025581481867,2.972285569352855,0.2403358563293942,Right,Correct,0.0,0.0,-45,45,719,-1,-1
"{'cat': 'RB', 'resp': 'button'}",37,322,Left,30.6385507420729,52.8581088264238,1.5319275371036452,0.8302932318587141,Left,Correct,0.0,0.0,-45,45,674,-1,-1
"{'cat': 'RB', 'resp': 'button'}",37,323,Right,54.45038265071209,21.08693692904066,2.722519132535605,0.3312328307149273,Right,Correct,0.0,0.0,-45,45,713,-1,-1
"{'cat': 'RB', 'resp': 'button'}",37,324,Right,66.1540700509679,55.26069158106152,3.307703502548395,0.868032913516771,Right,Correct,0.0,0.0,-45,45,573,-1,-1
"{'cat': 'RB', 'resp': 'button'}",37,325,Right,66.062310588963,21.153618301390857,3.30311552944815,0.3322802592624606,Right,Correct,0.0,0.0,-45,45,562,-1,-1
"{'cat': 'RB', 'resp': 'button'}",37,326,Right,56.611946174443744,27.742314769269967,2.8305973087221874,0.43577526136357075,Right,Correct,0.0,0.0,-45,45,896,-1,-1
"{'cat': 'RB', 'resp': 'button'}",37,327,Right,65.49544856715848,52.28677029222177,3.274772428357924,0.8213186671499046,Right,Correct,0.0,0.0,-45,45,576,-1,-1
"{'cat': 'RB', 'resp': 'button'}",37,328,Left,35.976870952786555,45.659412837999675,1.7988435476393279,0.7172163796954163,Left,Correct,0.0,0.0,-45,45,708,-1,-1
"{'cat': 'RB', 'resp': 'button'}",37,329,Right,64.94103991386534,17.30467029904986,3.247051995693267,0.2718211254214426,Right,Correct,0.0,0.0,-45,45,682,-1,-1
"{'cat': 'RB', 'resp': 'button'}",37,330,Right,66.94505652952888,31.964937364503395,3.347252826476444,0.5021040619839088,Right,Correct,0.0,0.0,-45,45,661,-1,-1
"{'cat': 'RB', 'resp': 'button'}",37,331,Left,46.51157260339251,41.34882666607334,2.325578630169625,0.6495058504434688,Left,Correct,0.0,0.0,-45,45,786,-1,-1
"{'cat': 'RB', 'resp': 'button'}",37,332,Right,65.01906430715839,56.065351275667055,3.250953215357919,0.8806724784428337,Right,Correct,0.0,0.0,-45,45,601,-1,-1
"{'cat': 'RB', 'resp': 'button'}",37,333,Left,45.82991887675678,19.277837646416668,2.291495943837839,0.30281556563539674,Left,Correct,0.0,0.0,-45,45,768,-1,-1
"{'cat': 'RB', 'resp': 'button'}",37,334,Left,40.78340579188653,49.15990136226171,2.0391702895943267,0.7722019248544012,Left,Correct,0.0,0.0,-45,45,595,-1,-1
"{'cat': 'RB', 'resp': 'button'}",37,335,Right,54.74558111605232,27.07725592836216,2.7372790558026163,0.4253285415195661,Right,Correct,0.0,0.0,-45,45,711,-1,-1
"{'cat': 'RB', 'resp': 'button'}",37,336,Right,56.71594902234017,70.11619516188927,2.8357974511170085,1.1013826180912976,Right,Correct,0.0,0.0,-45,45,705,-1,-1
"{'cat': 'RB', 'resp': 'button'}",37,337,Right,60.39201075865492,17.789057221458698,3.019600537932746,0.27942985740611553,Right,Correct,0.0,0.0,-45,45,623,-1,-1
"{'cat': 'RB', 'resp': 'button'}",37,338,Right,69.14979530305604,46.59189024564016,3.4574897651528023,0.7318637005628253,Right,Correct,0.0,0.0,-45,45,708,-1,-1
"{'cat': 'RB', 'resp': 'button'}",37,339,Left,42.030673482692876,46.24459796144622,2.1015336741346435,0.7264084461194649,Left,Correct,0.0,0.0,-45,45,616,-1,-1
"{'cat': 'RB', 'resp': 'button'}",37,340,Left,35.801935947819196,24.152564840076998,1.7900967973909598,0.3793876013346852,Left,Correct,0.0,0.0,-45,45,2048,-1,-1
"{'cat': 'RB', 'resp': 'button'}",37,341,Left,40.455304781936924,65.82200231230844,2.022765239096846,1.033929594544593,Left,Correct,0.0,0.0,-45,45,1244,-1,-1
"{'cat': 'RB', 'resp': 'button'}",37,342,Right,60.369079276987605,89.15744823791616,3.01845396384938,1.4004819219852482,Right,Correct,0.0,0.0,-45,45,715,-1,-1
"{'cat': 'RB', 'resp': 'button'}",37,343,Left,39.64981296478556,64.50763388103503,1.982490648239278,1.0132835435055985,Left,Correct,0.0,0.0,-45,45,1503,-1,-1
"{'cat': 'RB', 'resp': 'button'}",37,344,Right,64.04878520232984,14.788341103825154,3.202439260116492,0.23229471885278535,Right,Correct,0.0,0.0,-45,45,480,-1,-1
"{'cat': 'RB', 'resp': 'button'}",37,345,Left,37.615773612640744,66.33101287616479,1.880788680632037,1.0419251137846466,Left,Correct,0.0,0.0,-45,45,504,-1,-1
"{'cat': 'RB', 'resp': 'button'}",37,346,Right,66.09072084290247,50.47138585449229,3.304536042145123,0.7928026750848439,Right,Correct,0.0,0.0,-45,45,582,-1,-1
"{'cat': 'RB', 'resp': 'button'}",37,347,Left,39.294059142796144,48.99533180294533,1.9647029571398071,0.769616872261637,Left,Correct,0.0,0.0,-45,45,778,-1,-1
"{'cat': 'RB', 'resp': 'button'}",37,348,Left,39.55226428974431,18.512762174817848,1.9776132144872154,0.2907977882303137,Left,Correct,0.0,0.0,-45,45,636,-1,-1
"{'cat': 'RB', 'resp': 'button'}",37,349,Right,53.50353453196924,33.55746404790682,2.675176726598462,0.5271194126300384,Right,Correct,0.0,0.0,-45,45,1107,-1,-1
"{'cat': 'RB', 'resp': 'button'}",37,350,Left,46.42956716748204,50.24296004176978,2.3214783583741023,0.7892145708091471,Right,Incorrect,0.0,0.0,-45,45,1689,-1,-1
"{'cat': 'RB', 'resp': 'button'}",37,351,Right,64.20985479391842,66.06233623040606,3.2104927396959213,1.0377047509021127,Right,Correct,0.0,0.0,-45,45,784,-1,-1
"{'cat': 'RB', 'resp': 'button'}",37,352,Right,65.69325158315868,78.19052267956718,3.2846625791579345,1.2282138581523716,Right,Correct,0.0,0.0,-45,45,1063,-1,-1
"{'cat': 'RB', 'resp': 'button'}",37,353,Left,32.35180380286722,46.539319832470426,1.6175901901433607,0.7310379264437742,Left,Correct,0.0,0.0,-45,45,637,-1,-1
"{'cat': 'RB', 'resp': 'button'}",37,354,Right,66.01884970061755,20.40666339985125,3.3009424850308777,0.32054711910626205,Right,Correct,0.0,0.0,-45,45,1508,-1,-1
"{'cat': 'RB', 'resp': 'button'}",37,355,Left,38.1884301515986,60.92791500342088,1.9094215075799301,0.9570534508664518,Left,Correct,0.0,0.0,-45,45,662,-1,-1
"{'cat': 'RB', 'resp': 'button'}",37,356,Left,38.74277294994915,38.78360065527569,1.9371386474974575,0.6092113744918721,Left,Correct,0.0,0.0,-45,45,1105,-1,-1
"{'cat': 'RB', 'resp': 'button'}",37,357,Right,53.637709455434496,74.16845451833768,2.6818854727717247,1.165035359214592,Right,Correct,0.0,0.0,-45,45,853,-1,-1
"{'cat': 'RB', 'resp': 'button'}",37,358,Left,48.31909945169608,57.52751602227196,2.415954972584804,0.9036401085741936,Right,Incorrect,0.0,0.0,-45,45,895,-1,-1
"{'cat': 'RB', 'resp': 'button'}",37,359,Right,53.43887647431482,24.999831721309857,2.6719438237157407,0.3926964383832405,Right,Correct,0.0,0.0,-45,45,736,-1,-1
"{'cat': 'RB', 'resp': 'button'}",37,360,Left,41.182624261048105,82.12210091288942,2.059131213052405,1.2899709446264653,Left,Correct,0.0,0.0,-45,45,689,-1,-1
"{'cat': 'RB', 'resp': 'button'}",37,361,Left,44.821028873834976,36.00603566670243,2.241051443691749,0.5655814856770222,Left,Correct,0.0,0.0,-45,45,1241,-1,-1
"{'cat': 'RB', 'resp': 'button'}",37,362,Right,64.13847803912803,67.11023905232967,3.2069239019564013,1.0541651699372687,Right,Correct,0.0,0.0,-45,45,674,-1,-1
"{'cat': 'RB', 'resp': 'button'}",37,363,Left,33.24956265300721,45.14321805448993,1.6624781326503606,0.7091080109969383,Left,Correct,0.0,0.0,-45,45,2443,-1,-1
"{'cat': 'RB', 'resp': 'button'}",37,364,Left,31.546145531077915,40.00650270949911,1.5773072765538958,0.6284206750399128,Left,Correct,0.0,0.0,-45,45,528,-1,-1
"{'cat': 'RB', 'resp': 'button'}",37,365,Left,31.614436848107367,35.71615851693543,1.5807218424053684,0.5610281060562643,Left,Correct,0.0,0.0,-45,45,522,-1,-1
"{'cat': 'RB', 'resp': 'button'}",37,366,Right,55.18724215746168,50.98639358503754,2.759362107873084,0.8008923975989585,Right,Correct,0.0,0.0,-45,45,546,-1,-1
"{'cat': 'RB', 'resp': 'button'}",37,367,Right,57.819892830120196,79.32691457484437,2.8909946415060097,1.2460642603013807,Right,Correct,0.0,0.0,-45,45,922,-1,-1
"{'cat': 'RB', 'resp': 'button'}",37,368,Right,51.95368167390696,61.26633894246956,2.5976840836953476,0.962369401670023,Right,Correct,0.0,0.0,-45,45,1381,-1,-1
"{'cat': 'RB', 'resp': 'button'}",37,369,Left,37.86071031722487,73.81560609041817,1.8930355158612435,1.1594928290696787,Left,Correct,0.0,0.0,-45,45,677,-1,-1
"{'cat': 'RB', 'resp': 'button'}",37,370,Right,59.3929112769662,39.52380052423363,2.9696455638483097,0.6208384068444038,Right,Correct,0.0,0.0,-45,45,598,-1,-1
"{'cat': 'RB', 'resp': 'button'}",37,371,Left,32.38541887131368,55.17413445200653,1.619270943565684,0.866673277312996,Left,Correct,0.0,0.0,-45,45,510,-1,-1
"{'cat': 'RB', 'resp': 'button'}",37,372,Right,58.18318747589196,40.72653506779564,2.909159373794598,0.6397309168757692,Right,Correct,0.0,0.0,-45,45,664,-1,-1
"{'cat': 'RB', 'resp': 'button'}",37,373,Right,60.7881893314586,35.327095188328656,3.03940946657293,0.5549167135816032,Right,Correct,0.0,0.0,-45,45,1483,-1,-1
"{'cat': 'RB', 'resp': 'button'}",37,374,Right,59.89380597937727,61.61421602765486,2.9946902989688637,0.9678338421458752,Right,Correct,0.0,0.0,-45,45,1042,-1,-1
"{'cat': 'RB', 'resp': 'button'}",37,375,Left,42.37460438366818,44.46596377389238,2.118730219183409,0.6984697256342508,Left,Correct,0.0,0.0,-45,45,1219,-1,-1
"{'cat': 'RB', 'resp': 'button'}",37,376,Left,48.80379300483369,49.58220098053081,2.4401896502416847,0.7788353917462412,Left,Correct,0.0,0.0,-45,45,763,-1,-1
"{'cat': 'RB', 'resp': 'button'}",37,377,Right,57.45921546910389,46.81968825111068,2.8729607734551945,0.7354419432652682,Right,Correct,0.0,0.0,-45,45,737,-1,-1
"{'cat': 'RB', 'resp': 'button'}",37,378,Left,31.83264287499714,32.37480309055961,1.591632143749857,0.508542217753591,Left,Correct,0.0,0.0,-45,45,604,-1,-1
"{'cat': 'RB', 'resp': 'button'}",37,379,Right,59.399990639885175,30.90599090917928,2.969999531994259,0.4854701699609527,Right,Correct,0.0,0.0,-45,45,784,-1,-1
"{'cat': 'RB', 'resp': 'button'}",37,380,Left,47.62802249246016,65.7689588727848,2.3814011246230082,1.03309639014495,Left,Correct,0.0,0.0,-45,45,1632,-1,-1
"{'cat': 'RB', 'resp': 'button'}",37,381,Left,41.09755344415897,38.54567619104297,2.0548776722079483,0.605474065747158,Left,Correct,0.0,0.0,-45,45,1139,-1,-1
"{'cat': 'RB', 'resp': 'button'}",37,382,Left,35.89093912510777,21.634448779862595,1.7945469562553884,0.339833126756405,Left,Correct,0.0,0.0,-45,45,797,-1,-1
"{'cat': 'RB', 'resp': 'button'}",37,383,Right,60.31683768722786,40.59547890853043,3.015841884361393,0.637672291539993,Right,Correct,0.0,0.0,-45,45,804,-1,-1
"{'cat': 'RB', 'resp': 'button'}",37,384,Right,66.00174141873639,60.17926479840247,3.3000870709368195,0.9452936809454803,Right,Correct,0.0,0.0,-45,45,810,-1,-1
"{'cat': 'RB', 'resp': 'button'}",37,385,Right,54.91704262146005,33.89767566270925,2.7458521310730024,0.5324634441786845,Left,Incorrect,0.0,0.0,-45,45,913,-1,-1
"{'cat': 'RB', 'resp': 'button'}",37,386,Left,37.43295880548862,37.57499883831308,1.871647940274431,0.5902267015454469,Left,Correct,0.0,0.0,-45,45,743,-1,-1
"{'cat': 'RB', 'resp': 'button'}",37,387,Right,56.72086931546159,23.388017907137794,2.8360434657730798,0.36737812619545307,Right,Correct,0.0,0.0,-45,45,1089,-1,-1
"{'cat': 'RB', 'resp': 'button'}",37,388,Right,62.51410569229733,67.13353272178414,3.1257052846148663,1.054531066041435,Right,Correct,0.0,0.0,-45,45,747,-1,-1
"{'cat': 'RB', 'resp': 'button'}",37,389,Left,47.099728197295214,68.2498968299536,2.3549864098647606,1.0720668724462177,Left,Correct,0.0,0.0,-45,45,1332,-1,-1
"{'cat': 'RB', 'resp': 'button'}",37,390,Right,63.39357587784265,88.1195515109691,3.1696787938921323,1.3841786783224395,Right,Correct,0.0,0.0,-45,45,631,-1,-1
"{'cat': 'RB', 'resp': 'button'}",37,391,Right,59.08655525265219,13.346360444834417,2.9543277626326097,0.20964413962826606,Right,Correct,0.0,0.0,-45,45,570,-1,-1
"{'cat': 'RB', 'resp': 'button'}",37,392,Left,43.21044596658659,23.030118813017992,2.1605222983293295,0.36175626037138703,Left,Correct,0.0,0.0,-45,45,551,-1,-1
"{'cat': 'RB', 'resp': 'button'}",37,393,Right,62.47383925384668,88.59313215478647,3.123691962692334,1.3916176656799344,Right,Correct,0.0,0.0,-45,45,668,-1,-1
"{'cat': 'RB', 'resp': 'button'}",37,394,Right,60.252939439441974,64.64668139182984,3.012646971972099,1.015467696697663,Right,Correct,0.0,0.0,-45,45,1212,-1,-1
"{'cat': 'RB', 'resp': 'button'}",37,395,Right,55.156054124834206,73.66667746214628,2.7578027062417103,1.1571534636472376,Left,Incorrect,0.0,0.0,-45,45,1712,-1,-1
"{'cat': 'RB', 'resp': 'button'}",37,396,Right,57.51621233463104,64.4620809258929,2.875810616731552,1.0125679993594794,Right,Correct,0.0,0.0,-45,45,892,-1,-1
"{'cat': 'RB', 'resp': 'button'}",37,397,Left,36.41824164386285,77.09736616034775,1.8209120821931424,1.211042595702354,Left,Correct,0.0,0.0,-45,45,650,-1,-1
"{'cat': 'RB', 'resp': 'button'}",37,398,Right,65.80076119784648,82.3162544178576,3.2900380598923245,1.293020700750849,Right,Correct,0.0,0.0,-45,45,644,-1,-1
"{'cat': 'RB', 'resp': 'button'}",37,399,Right,60.4282293794135,73.51472102776953,3.0214114689706753,1.1547665375577192,Right,Correct,0.0,0.0,-45,45,886,-1,-1
