condition,subject,trial,cat,x,y,xt,yt,resp,fb,rotation,su,target_angle_left,target_angle_right,rt,mt,ep
"{'cat': 'II', 'resp': 'reach'}",36,0,Right,44.53060835013209,25.680322560470234,2.2265304175066047,0.40338556348894755,Right,Correct,0.0,0.0,-45,45,2004,988,-0.73
"{'cat': 'II', 'resp': 'reach'}",36,1,Right,47.54611169432698,34.77750826756517,2.377305584716349,0.5462838224177051,Right,Correct,0.0,0.0,-45,45,2004,1350,-0.83
"{'cat': 'II', 'resp': 'reach'}",36,2,Right,79.52620860083836,54.14320333906333,3.976310430041918,0.8504794492590986,Left,Incorrect,0.0,0.0,-45,45,2004,625,-2.42
"{'cat': 'II', 'resp': 'reach'}",36,3,Left,42.15483696285374,56.35694411442099,2.107741848142687,0.8852528080431777,Left,Correct,0.0,0.0,-45,45,2004,462,-2.45
"{'cat': 'II', 'resp': 'reach'}",36,4,Right,55.98675190607098,46.13082985278639,2.799337595303549,0.724621380847572,Right,Correct,0.0,0.0,-45,45,2008,571,-0.72
"{'cat': 'II', 'resp': 'reach'}",36,5,Right,69.3690757269258,39.93556057536311,3.46845378634629,0.6273063186027547,Right,Correct,0.0,0.0,-45,45,2013,604,-0.79
"{'cat': 'II', 'resp': 'reach'}",36,6,Right,60.918431462558054,30.845120899855573,3.045921573127903,0.48451402609037625,Left,Incorrect,0.0,0.0,-45,45,2013,467,-2.47
"{'cat': 'II', 'resp': 'reach'}",36,7,Left,43.08976526230446,70.13920546591898,2.154488263115223,1.1017440631017805,Left,Correct,0.0,0.0,-45,45,2004,421,-2.51
"{'cat': 'II', 'resp': 'reach'}",36,8,Right,34.72415052325729,21.36738849646826,1.7362075261628647,0.3356381536345187,Right,Correct,0.0,0.0,-45,45,2004,570,-0.73
"{'cat': 'II', 'resp': 'reach'}",36,9,Right,48.13719335224523,24.92669599963078,2.4068596676122613,0.3915476251535307,Right,Correct,0.0,0.0,-45,45,2012,517,-0.79
"{'cat': 'II', 'resp': 'reach'}",36,10,Right,61.4321420652805,53.431364340414014,3.071607103264025,0.8392979084156216,Left,Incorrect,0.0,0.0,-45,45,2004,525,-2.44
"{'cat': 'II', 'resp': 'reach'}",36,11,Left,61.195788144540465,70.39493601547395,3.059789407227023,1.1057610691806825,Left,Correct,0.0,0.0,-45,45,2013,483,-2.51
"{'cat': 'II', 'resp': 'reach'}",36,12,Left,56.992253700576526,85.91763967649877,2.849612685028826,1.3495911281073172,Right,Incorrect,0.0,0.0,-45,45,2004,604,-0.74
"{'cat': 'II', 'resp': 'reach'}",36,13,Left,49.92812772806911,73.38908106464206,2.4964063864034554,1.1527929896319264,Right,Incorrect,0.0,0.0,-45,45,2008,521,-0.83
"{'cat': 'II', 'resp': 'reach'}",36,14,Right,78.7834881767385,48.394669214114735,3.939174408836925,0.760181686379855,Right,Correct,0.0,0.0,-45,45,2008,742,-0.83
"{'cat': 'II', 'resp': 'reach'}",36,15,Right,68.16941299673994,45.54006522156142,3.408470649836997,0.715341671720287,Left,Incorrect,0.0,0.0,-45,45,2004,696,-2.44
"{'cat': 'II', 'resp': 'reach'}",36,16,Left,32.82205864946511,58.3923635105471,1.6411029324732556,0.9172251011523973,Right,Incorrect,0.0,0.0,-45,45,2005,570,-0.73
"{'cat': 'II', 'resp': 'reach'}",36,17,Left,28.16268877489564,45.40533378031032,1.408134438744782,0.7132253151900768,Right,Incorrect,0.0,0.0,-45,45,2004,504,-0.74
"{'cat': 'II', 'resp': 'reach'}",36,18,Right,46.96956011836762,24.251103649033873,2.348478005918381,0.3809354453262472,Right,Correct,0.0,0.0,-45,45,2004,2670,-0.75
"{'cat': 'II', 'resp': 'reach'}",36,19,Left,37.03242877179626,62.136372757062176,1.8516214385898133,0.9760358608715175,Left,Correct,0.0,0.0,-45,45,2017,762,-2.43
"{'cat': 'II', 'resp': 'reach'}",36,20,Left,36.54387999229828,53.830869082312745,1.827193999614914,0.8455733142267382,Left,Correct,0.0,0.0,-45,45,2004,575,-2.41
"{'cat': 'II', 'resp': 'reach'}",36,21,Left,35.73476775275654,47.06718506636655,1.7867383876378269,0.7393296141482418,Right,Incorrect,0.0,0.0,-45,45,2004,867,-0.8
"{'cat': 'II', 'resp': 'reach'}",36,22,Left,43.111061041989366,58.28374525172804,2.155553052099468,0.915518929532639,Right,Incorrect,0.0,0.0,-45,45,2004,537,-0.81
"{'cat': 'II', 'resp': 'reach'}",36,23,Left,38.278843227753164,49.852683984686905,1.9139421613876582,0.7830841288401296,Left,Correct,0.0,0.0,-45,45,2013,474,-2.24
"{'cat': 'II', 'resp': 'reach'}",36,24,Right,64.14212130339395,51.07463877881637,3.207106065169697,0.8022785498614093,Right,Correct,0.0,0.0,-45,45,2004,617,-0.78
"{'cat': 'II', 'resp': 'reach'}",36,25,Right,33.36543077265411,10.627840040276872,1.6682715386327056,0.16694172097030638,Right,Correct,0.0,0.0,-45,45,2005,504,-0.78
"{'cat': 'II', 'resp': 'reach'}",36,26,Right,54.85284439773133,29.312772822664336,2.7426422198865668,0.4604439587801441,Left,Incorrect,0.0,0.0,-45,45,2013,1412,-2.57
"{'cat': 'II', 'resp': 'reach'}",36,27,Left,44.767400182203176,66.19912958755761,2.2383700091101586,1.0398534959315486,Left,Correct,0.0,0.0,-45,45,2004,588,-2.6
"{'cat': 'II', 'resp': 'reach'}",36,28,Right,60.29690037163229,36.581573803864174,3.0148450185816147,0.5746220175948625,Right,Correct,0.0,0.0,-45,45,2004,475,-0.8
"{'cat': 'II', 'resp': 'reach'}",36,29,Right,61.14553258047782,48.16710863849804,3.057276629023891,0.7566071732168346,Right,Correct,0.0,0.0,-45,45,2008,534,-0.79
"{'cat': 'II', 'resp': 'reach'}",36,30,Right,52.964393435709965,32.66607489150216,2.648219671785498,0.513117504503786,Right,Correct,0.0,0.0,-45,45,2004,571,-0.79
"{'cat': 'II', 'resp': 'reach'}",36,31,Right,58.249223377657614,37.995084883914856,2.9124611688828805,0.5968253977191377,Left,Incorrect,0.0,0.0,-45,45,2004,525,-2.39
"{'cat': 'II', 'resp': 'reach'}",36,32,Left,35.430270731378165,59.74930580441388,1.771513536568908,0.9385399008611832,Left,Correct,0.0,0.0,-45,45,2008,429,-2.34
"{'cat': 'II', 'resp': 'reach'}",36,33,Right,69.8775850141743,55.858344451787715,3.4938792507087153,0.8774208228571224,Right,Correct,0.0,0.0,-45,45,2005,483,-0.76
"{'cat': 'II', 'resp': 'reach'}",36,34,Left,49.672221986017846,56.40379433850716,2.4836110993008926,0.8859887296422184,Right,Incorrect,0.0,0.0,-45,45,2004,796,-0.75
"{'cat': 'II', 'resp': 'reach'}",36,35,Right,53.123302307471604,45.331900954244055,2.65616511537358,0.7120718350555663,Left,Incorrect,0.0,0.0,-45,45,2004,687,-2.45
"{'cat': 'II', 'resp': 'reach'}",36,36,Left,50.22032213383302,63.44037575986985,2.5110161066916508,0.9965190921409156,Right,Incorrect,0.0,0.0,-45,45,2004,517,-0.79
"{'cat': 'II', 'resp': 'reach'}",36,37,Left,44.07392724025614,74.84109165657955,2.2036963620128067,1.1756011186747533,Right,Incorrect,0.0,0.0,-45,45,2004,554,-0.76
"{'cat': 'II', 'resp': 'reach'}",36,38,Right,79.72623805368313,52.10983578836394,3.9863119026841565,0.818539386462473,Right,Correct,0.0,0.0,-45,45,2004,545,-0.79
"{'cat': 'II', 'resp': 'reach'}",36,39,Left,33.87095656929527,66.7225301434263,1.6935478284647631,1.048075052637558,Left,Correct,0.0,0.0,-45,45,2012,688,-2.45
"{'cat': 'II', 'resp': 'reach'}",36,40,Right,55.06991634294864,40.9384215903891,2.753495817147432,0.6430592225896409,Left,Incorrect,0.0,0.0,-45,45,2004,3909,-2.63
"{'cat': 'II', 'resp': 'reach'}",36,41,Left,38.49451523437709,63.80545491183102,1.9247257617188547,1.0022537420498157,Right,Incorrect,0.0,0.0,-45,45,2004,592,-0.79
"{'cat': 'II', 'resp': 'reach'}",36,42,Left,49.38031599284068,71.98761121846061,2.469015799642034,1.1307787527669704,Right,Incorrect,0.0,0.0,-45,45,2004,1229,-0.77
"{'cat': 'II', 'resp': 'reach'}",36,43,Right,58.69947209299285,48.73115284427653,2.934973604649642,0.7654671588827026,Left,Incorrect,0.0,0.0,-45,45,2005,641,-2.56
"{'cat': 'II', 'resp': 'reach'}",36,44,Right,58.988740251142765,36.23057724288749,2.9494370125571385,0.5691085765078644,Left,Incorrect,0.0,0.0,-45,45,2004,1071,-2.55
"{'cat': 'II', 'resp': 'reach'}",36,45,Right,63.16586340042361,54.188745045740085,3.1582931700211803,0.8511948167147366,Right,Correct,0.0,0.0,-45,45,2004,538,-0.71
"{'cat': 'II', 'resp': 'reach'}",36,46,Left,34.98781482232988,43.32289063040674,1.749390741116494,0.6805143746837994,Right,Incorrect,0.0,0.0,-45,45,2004,1996,-0.81
"{'cat': 'II', 'resp': 'reach'}",36,47,Right,60.89665086172569,33.65856422360715,3.0448325430862844,0.5287074904763223,Left,Incorrect,0.0,0.0,-45,45,2009,512,-2.47
"{'cat': 'II', 'resp': 'reach'}",36,48,Right,76.44971045655181,49.54022846264043,3.822485522827591,0.7781760889769557,Right,Correct,0.0,0.0,-45,45,2004,746,-0.79
"{'cat': 'II', 'resp': 'reach'}",36,49,Right,52.49594341008967,42.81248045881529,2.6247971705044835,0.6724968704568535,Right,Correct,0.0,0.0,-45,45,2004,555,-0.75
"{'cat': 'II', 'resp': 'reach'}",36,50,Right,39.216915983104215,17.44045022575033,1.9608457991552108,0.2739539515225784,Left,Incorrect,0.0,0.0,-45,45,2004,621,-2.6
"{'cat': 'II', 'resp': 'reach'}",36,51,Left,62.68902752808462,80.15108681607977,3.134451376404231,1.2590103275931694,Left,Correct,0.0,0.0,-45,45,2004,504,-2.46
"{'cat': 'II', 'resp': 'reach'}",36,52,Left,27.310399141257392,41.405518474456116,1.3655199570628695,0.6503963632871389,Right,Incorrect,0.0,0.0,-45,45,2004,1941,-0.79
"{'cat': 'II', 'resp': 'reach'}",36,53,Right,58.164157791618365,50.961679539428204,2.9082078895809182,0.8005041902783246,Right,Correct,0.0,0.0,-45,45,2004,1179,-0.96
"{'cat': 'II', 'resp': 'reach'}",36,54,Left,19.442276859575472,43.90604190221838,0.9721138429787736,0.6896744934410743,Left,Correct,0.0,0.0,-45,45,2005,862,-2.51
"{'cat': 'II', 'resp': 'reach'}",36,55,Right,84.65668877332558,57.01608973855576,4.232834438666279,0.8956066432953158,Left,Incorrect,0.0,0.0,-45,45,2012,850,-2.53
"{'cat': 'II', 'resp': 'reach'}",36,56,Right,51.26639453187935,26.802544783268267,2.5633197265939676,0.4210133889431351,Right,Correct,0.0,0.0,-45,45,2016,484,-0.82
"{'cat': 'II', 'resp': 'reach'}",36,57,Left,32.0894044841063,44.46423625618305,1.604470224205315,0.698442589849528,Right,Incorrect,0.0,0.0,-45,45,2012,808,-0.82
"{'cat': 'II', 'resp': 'reach'}",36,58,Right,60.105857627671334,48.97537546717729,3.0052928813835664,0.7693033988724297,Left,Incorrect,0.0,0.0,-45,45,2012,917,-2.48
"{'cat': 'II', 'resp': 'reach'}",36,59,Right,70.08168792176266,47.15691254155524,3.504084396088133,0.7407390500326316,Left,Incorrect,0.0,0.0,-45,45,2008,550,-2.49
"{'cat': 'II', 'resp': 'reach'}",36,60,Left,48.414143255331346,64.91056066670988,2.420707162766567,1.0196127026546518,Left,Correct,0.0,0.0,-45,45,2004,567,-2.58
"{'cat': 'II', 'resp': 'reach'}",36,61,Right,55.32960540191658,46.95407949960941,2.766480270095829,0.7375529560602202,Right,Correct,0.0,0.0,-45,45,2004,850,-0.81
"{'cat': 'II', 'resp': 'reach'}",36,62,Right,31.596540981650403,14.882492767305,1.5798270490825201,0.23377364972434309,Right,Correct,0.0,0.0,-45,45,2003,484,-0.77
"{'cat': 'II', 'resp': 'reach'}",36,63,Left,53.994373868666784,77.22965378064019,2.6997186934333395,1.2131205647827121,Right,Incorrect,0.0,0.0,-45,45,2009,604,-0.78
"{'cat': 'II', 'resp': 'reach'}",36,64,Left,56.18455567419096,67.71540523417879,2.809227783709548,1.0636710980927595,Left,Correct,0.0,0.0,-45,45,2004,484,-2.49
"{'cat': 'II', 'resp': 'reach'}",36,65,Left,29.030965651057244,60.9492382613537,1.4515482825528623,0.9573883958188135,Right,Incorrect,0.0,0.0,-45,45,2004,946,-0.9
"{'cat': 'II', 'resp': 'reach'}",36,66,Right,47.133870417408964,32.30509811111696,2.356693520870448,0.5074472944969127,Left,Incorrect,0.0,0.0,-45,45,2004,655,-2.56
"{'cat': 'II', 'resp': 'reach'}",36,67,Left,29.798443699525265,49.91974540217201,1.4899221849762632,0.7841375271226821,Left,Correct,0.0,0.0,-45,45,2004,917,-2.54
"{'cat': 'II', 'resp': 'reach'}",36,68,Right,45.53721574560967,19.2879608706065,2.2768607872804836,0.3029745808691239,Right,Correct,0.0,0.0,-45,45,2004,646,-0.85
"{'cat': 'II', 'resp': 'reach'}",36,69,Left,48.72403017974354,72.89210783714084,2.4362015089871765,1.1449865524291833,Right,Incorrect,0.0,0.0,-45,45,2004,712,-0.84
"{'cat': 'II', 'resp': 'reach'}",36,70,Left,68.80048055968916,82.534483870594,3.440024027984458,1.296448640978417,Left,Correct,0.0,0.0,-45,45,2004,1150,-2.52
"{'cat': 'II', 'resp': 'reach'}",36,71,Right,50.081748340815146,21.582885302399387,2.504087417040757,0.3390231695464452,Left,Incorrect,0.0,0.0,-45,45,2004,975,-2.5
"{'cat': 'II', 'resp': 'reach'}",36,72,Right,72.26954605026464,45.08777498639989,3.613477302513232,0.7082371133199176,Right,Correct,0.0,0.0,-45,45,2004,554,-0.83
"{'cat': 'II', 'resp': 'reach'}",36,73,Right,68.174613743538,40.266101535960374,3.4087306871769,0.632498443870369,Right,Correct,0.0,0.0,-45,45,2004,888,-0.83
"{'cat': 'II', 'resp': 'reach'}",36,74,Right,58.00628622402037,30.241602056009764,2.9003143112010186,0.47503397425973126,Left,Incorrect,0.0,0.0,-45,45,2013,587,-2.59
"{'cat': 'II', 'resp': 'reach'}",36,75,Right,88.32836560311031,62.070366112530905,4.416418280155516,0.9749990309237796,Left,Incorrect,0.0,0.0,-45,45,2017,575,-2.48
"{'cat': 'II', 'resp': 'reach'}",36,76,Left,22.735694522098072,46.62150314441159,1.1367847261049036,0.7323288588889845,Left,Correct,0.0,0.0,-45,45,2004,662,-2.43
"{'cat': 'II', 'resp': 'reach'}",36,77,Left,19.850152725839255,37.71244127932398,0.9925076362919627,0.5923856423603034,Right,Incorrect,0.0,0.0,-45,45,2005,724,-0.9
"{'cat': 'II', 'resp': 'reach'}",36,78,Left,48.43298864031691,76.47568153758469,2.4216494320158457,1.2012771964837432,Left,Correct,0.0,0.0,-45,45,2004,604,-2.51
"{'cat': 'II', 'resp': 'reach'}",36,79,Left,21.35128983831028,46.40998086250444,1.067564491915514,0.7290062746544342,Left,Correct,0.0,0.0,-45,45,2004,680,-2.49
"{'cat': 'II', 'resp': 'reach'}",36,80,Left,43.88046301697164,67.5913682184822,2.194023150848582,1.0617227292063314,Right,Incorrect,0.0,0.0,-45,45,2009,570,-0.8
"{'cat': 'II', 'resp': 'reach'}",36,81,Right,59.560023744440755,34.75027794087222,2.9780011872220378,0.5458560894462381,Left,Incorrect,0.0,0.0,-45,45,2004,555,-2.49
"{'cat': 'II', 'resp': 'reach'}",36,82,Left,19.33051415958031,40.31894529453188,0.9665257079790155,0.6333285116889507,Left,Correct,0.0,0.0,-45,45,2009,571,-2.39
"{'cat': 'II', 'resp': 'reach'}",36,83,Left,65.42515643242682,86.21378825825063,3.271257821621341,1.3542430191513308,Right,Incorrect,0.0,0.0,-45,45,2013,504,-0.86
"{'cat': 'II', 'resp': 'reach'}",36,84,Right,45.759002162874005,33.72750191498691,2.2879501081437,0.5297903612002928,Right,Correct,0.0,0.0,-45,45,2004,471,-0.84
"{'cat': 'II', 'resp': 'reach'}",36,85,Right,49.62002707054194,20.44780850583224,2.481001353527097,0.3211934249196672,Left,Incorrect,0.0,0.0,-45,45,2004,1130,-2.35
"{'cat': 'II', 'resp': 'reach'}",36,86,Left,60.85131082392007,73.63364479570043,3.0425655411960038,1.156634587736064,Right,Incorrect,0.0,0.0,-45,45,2013,466,-0.82
"{'cat': 'II', 'resp': 'reach'}",36,87,Left,64.05532047199324,78.17191225611796,3.2027660235996622,1.2279215263044305,Right,Incorrect,0.0,0.0,-45,45,2017,433,-0.78
"{'cat': 'II', 'resp': 'reach'}",36,88,Left,16.075703971669704,37.13071882270385,0.8037851985834851,0.5832479673795733,Right,Incorrect,0.0,0.0,-45,45,2004,555,-0.83
"{'cat': 'II', 'resp': 'reach'}",36,89,Right,66.23815324615241,35.52495859683296,3.3119076623076205,0.55802474473446,Right,Correct,0.0,0.0,-45,45,2004,475,-0.88
"{'cat': 'II', 'resp': 'reach'}",36,90,Left,45.241937788133896,59.54500222128825,2.2620968894066946,0.9353307076819353,Left,Correct,0.0,0.0,-45,45,2012,638,-2.54
"{'cat': 'II', 'resp': 'reach'}",36,91,Left,44.82199902177724,68.98070492551018,2.2410999510888616,1.0835463791671403,Left,Correct,0.0,0.0,-45,45,2008,655,-2.48
"{'cat': 'II', 'resp': 'reach'}",36,92,Right,32.9534606844375,12.781691229295635,1.6476730342218753,0.2007743363320413,Right,Correct,0.0,0.0,-45,45,2013,608,-0.84
"{'cat': 'II', 'resp': 'reach'}",36,93,Right,55.697252116736195,47.504553427932855,2.7848626058368096,0.7461997803062884,Left,Incorrect,0.0,0.0,-45,45,2004,1358,-2.41
"{'cat': 'II', 'resp': 'reach'}",36,94,Right,75.33495677693188,61.26271122243812,3.766747838846594,0.9623124175770228,Right,Correct,0.0,0.0,-45,45,2005,662,-0.84
"{'cat': 'II', 'resp': 'reach'}",36,95,Right,36.07547613445564,17.796874499885586,1.803773806722782,0.2795526509285004,Right,Correct,0.0,0.0,-45,45,2013,2754,-0.84
"{'cat': 'II', 'resp': 'reach'}",36,96,Left,32.43537021072351,53.00622835258187,1.6217685105361754,0.8326198879348711,Left,Correct,0.0,0.0,-45,45,2004,533,-2.48
"{'cat': 'II', 'resp': 'reach'}",36,97,Left,17.907480111097314,48.09384172098147,0.8953740055548657,0.7554562991677285,Left,Correct,0.0,0.0,-45,45,2005,646,-2.51
"{'cat': 'II', 'resp': 'reach'}",36,98,Right,85.38801056479525,56.42115626369789,4.269400528239762,0.8862614501253752,Right,Correct,0.0,0.0,-45,45,2004,517,-0.81
"{'cat': 'II', 'resp': 'reach'}",36,99,Left,33.69087433257676,45.2981501735204,1.684543716628838,0.7115416790316945,Right,Incorrect,0.0,0.0,-45,45,2017,571,-0.83
"{'cat': 'II', 'resp': 'reach'}",36,100,Left,47.85454453934059,63.06144760547811,2.3927272269670294,0.9905669026105383,Left,Correct,0.0,0.0,-45,45,2004,575,-2.49
"{'cat': 'II', 'resp': 'reach'}",36,101,Right,37.15253418196583,14.20226568397623,1.8576267090982912,0.22308866768555072,Right,Correct,0.0,0.0,-45,45,2004,467,-0.85
"{'cat': 'II', 'resp': 'reach'}",36,102,Right,52.632424596289624,30.705128315003204,2.631621229814481,0.48231502770973006,Left,Incorrect,0.0,0.0,-45,45,2004,621,-2.51
"{'cat': 'II', 'resp': 'reach'}",36,103,Left,36.813785425581614,60.44443744862722,1.8406892712790808,0.9494590031948753,Left,Correct,0.0,0.0,-45,45,2004,500,-2.48
"{'cat': 'II', 'resp': 'reach'}",36,104,Left,26.295250472293077,39.62464155291815,1.3147625236146538,0.6224224140188824,Right,Incorrect,0.0,0.0,-45,45,2017,583,-0.81
"{'cat': 'II', 'resp': 'reach'}",36,105,Left,57.76358283101232,83.14734423371583,2.888179141550616,1.3060754290507166,Left,Correct,0.0,0.0,-45,45,2012,659,-2.62
"{'cat': 'II', 'resp': 'reach'}",36,106,Left,19.158283568908317,39.047336909894675,0.9579141784454158,0.6133541338918534,Right,Incorrect,0.0,0.0,-45,45,2004,846,-0.89
"{'cat': 'II', 'resp': 'reach'}",36,107,Left,39.28057340686354,66.81410757159135,1.9640286703431769,1.0495135475153476,Left,Correct,0.0,0.0,-45,45,2008,571,-2.53
"{'cat': 'II', 'resp': 'reach'}",36,108,Left,17.531399759276,47.40370270873167,0.8765699879637999,0.7446156209135301,Right,Incorrect,0.0,0.0,-45,45,2004,2117,-0.79
"{'cat': 'II', 'resp': 'reach'}",36,109,Right,37.80152553389946,20.019118943150495,1.8900762766949728,0.3144595850157093,Left,Incorrect,0.0,0.0,-45,45,2013,654,-2.42
"{'cat': 'II', 'resp': 'reach'}",36,110,Left,30.804309700613068,45.49048388507834,1.5402154850306533,0.7145628499080349,Right,Incorrect,0.0,0.0,-45,45,2004,659,-0.82
"{'cat': 'II', 'resp': 'reach'}",36,111,Left,33.56682305287824,65.02658884484558,1.6783411526439123,1.0214352690148543,Right,Incorrect,0.0,0.0,-45,45,2004,583,-0.83
"{'cat': 'II', 'resp': 'reach'}",36,112,Right,66.97965703706043,34.78908067037311,3.3489828518530214,0.5464656012959342,Right,Correct,0.0,0.0,-45,45,2004,484,-0.92
"{'cat': 'II', 'resp': 'reach'}",36,113,Right,55.20340899485889,26.829125229338402,2.7601704497429442,0.4214309136136505,Left,Incorrect,0.0,0.0,-45,45,2005,574,-2.37
"{'cat': 'II', 'resp': 'reach'}",36,114,Left,47.3430528827941,78.50777107702694,2.367152644139705,1.2331971843264855,Left,Correct,0.0,0.0,-45,45,2004,1075,-2.41
"{'cat': 'II', 'resp': 'reach'}",36,115,Right,38.76056894524706,11.854438904698323,1.938028447262353,0.18620909087714643,Left,Incorrect,0.0,0.0,-45,45,2004,592,-2.49
"{'cat': 'II', 'resp': 'reach'}",36,116,Left,36.64041946574934,68.59879952618701,1.832020973287467,1.0775474231827404,Right,Incorrect,0.0,0.0,-45,45,2005,537,-0.74
"{'cat': 'II', 'resp': 'reach'}",36,117,Left,58.8562451180964,80.53250622677561,2.94281225590482,1.2650016496860628,Right,Incorrect,0.0,0.0,-45,45,2004,483,-0.78
"{'cat': 'II', 'resp': 'reach'}",36,118,Left,25.725070010585682,52.71062438302076,1.286253500529284,0.8279765516391452,Right,Incorrect,0.0,0.0,-45,45,2004,538,-0.8
"{'cat': 'II', 'resp': 'reach'}",36,119,Right,76.8493668176796,50.98324837478833,3.84246834088398,0.8008429927518939,Right,Correct,0.0,0.0,-45,45,2004,525,-0.84
"{'cat': 'II', 'resp': 'reach'}",36,120,Left,21.321326883331835,37.87713630436584,1.0660663441665919,0.5949726657640748,Left,Correct,0.0,0.0,-45,45,2008,550,-2.44
"{'cat': 'II', 'resp': 'reach'}",36,121,Left,52.73452589835046,63.037276307527364,2.636726294917523,0.9901872207501894,Right,Incorrect,0.0,0.0,-45,45,2004,471,-0.77
"{'cat': 'II', 'resp': 'reach'}",36,122,Right,61.174059628650134,36.974352005067054,3.058702981432507,0.5807917631518085,Left,Incorrect,0.0,0.0,-45,45,2005,587,-2.47
"{'cat': 'II', 'resp': 'reach'}",36,123,Left,58.85625181659411,70.76867281991653,2.9428125908297056,1.111631713176747,Right,Incorrect,0.0,0.0,-45,45,2004,571,-0.81
"{'cat': 'II', 'resp': 'reach'}",36,124,Left,16.687526881287475,34.60568178012345,0.8343763440643738,0.5435847782645098,Left,Correct,0.0,0.0,-45,45,2009,554,-2.46
"{'cat': 'II', 'resp': 'reach'}",36,125,Left,43.65985372288427,66.86572676327289,2.1829926861442135,1.0503243798822026,Left,Correct,0.0,0.0,-45,45,2009,504,-2.5
"{'cat': 'II', 'resp': 'reach'}",36,126,Right,70.24481371377499,59.93990138937518,3.5122406856887496,0.9415337693087886,Right,Correct,0.0,0.0,-45,45,2004,554,-0.83
"{'cat': 'II', 'resp': 'reach'}",36,127,Left,13.910277850482387,38.792717023787844,0.6955138925241193,0.6093545740735979,Left,Correct,0.0,0.0,-45,45,2004,734,-2.55
"{'cat': 'II', 'resp': 'reach'}",36,128,Right,69.25749454273591,53.412476143923676,3.4628747271367954,0.8390012133189535,Left,Incorrect,0.0,0.0,-45,45,2004,587,-2.43
"{'cat': 'II', 'resp': 'reach'}",36,129,Left,59.22986376227628,78.59593480856529,2.9614931881138142,1.234582056983055,Right,Incorrect,0.0,0.0,-45,45,2004,500,-0.84
"{'cat': 'II', 'resp': 'reach'}",36,130,Right,62.13675454781781,47.59036429341761,3.1068377273908903,0.7475476942293139,Left,Incorrect,0.0,0.0,-45,45,2004,846,-2.55
"{'cat': 'II', 'resp': 'reach'}",36,131,Right,37.86637462021242,11.317171053943746,1.8933187310106208,0.17776970721244365,Left,Incorrect,0.0,0.0,-45,45,2012,588,-2.52
"{'cat': 'II', 'resp': 'reach'}",36,132,Left,36.767945979910124,53.1139988109391,1.838397298995506,0.8343127423361164,Left,Correct,0.0,0.0,-45,45,2004,646,-2.6
"{'cat': 'II', 'resp': 'reach'}",36,133,Right,75.45716626690634,45.121059835275915,3.7728583133453175,0.7087599505034414,Right,Correct,0.0,0.0,-45,45,2013,1342,-0.86
"{'cat': 'II', 'resp': 'reach'}",36,134,Right,61.34942788347651,32.21489121333248,3.0674713941738254,0.5060303278599985,Left,Incorrect,0.0,0.0,-45,45,2013,637,-2.44
"{'cat': 'II', 'resp': 'reach'}",36,135,Right,50.141485130196386,39.534866999193596,2.507074256509819,0.6210122386265807,Right,Correct,0.0,0.0,-45,45,2016,534,-0.87
"{'cat': 'II', 'resp': 'reach'}",36,136,Left,19.33228965863687,44.807802580909154,0.9666144829318435,0.7038393170584298,Right,Incorrect,0.0,0.0,-45,45,2005,658,-0.91
"{'cat': 'II', 'resp': 'reach'}",36,137,Right,42.191604331822774,21.066308069826743,2.1095802165911386,0.3309087933521353,Right,Correct,0.0,0.0,-45,45,2004,604,-0.9
"{'cat': 'II', 'resp': 'reach'}",36,138,Left,44.65796648414259,52.70554166250322,2.2328983242071296,0.8278967124519544,Left,Correct,0.0,0.0,-45,45,2004,625,-2.51
"{'cat': 'II', 'resp': 'reach'}",36,139,Left,14.349576503981634,33.425086330169236,0.7174788251990818,0.5250400283023215,Left,Correct,0.0,0.0,-45,45,2009,550,-2.49
"{'cat': 'II', 'resp': 'reach'}",36,140,Left,57.8512977106803,81.85146891400368,2.8925648855340147,1.2857198671288363,Right,Incorrect,0.0,0.0,-45,45,2004,1208,-0.88
"{'cat': 'II', 'resp': 'reach'}",36,141,Left,18.940779334591188,48.82163728697385,0.9470389667295593,0.7668884851849128,Right,Incorrect,0.0,0.0,-45,45,2004,1367,-0.89
"{'cat': 'II', 'resp': 'reach'}",36,142,Left,49.34485317062579,69.88057874426391,2.467242658531289,1.0976815640579127,Left,Correct,0.0,0.0,-45,45,2004,717,-2.57
"{'cat': 'II', 'resp': 'reach'}",36,143,Left,21.2968890023068,52.97713225087065,1.06484445011534,0.8321628474379507,Right,Incorrect,0.0,0.0,-45,45,2004,1054,-0.91
"{'cat': 'II', 'resp': 'reach'}",36,144,Right,56.28275968148379,33.536174499453615,2.8141379840741894,0.5267849971849442,Right,Correct,0.0,0.0,-45,45,2004,625,-0.88
"{'cat': 'II', 'resp': 'reach'}",36,145,Left,39.03761178859374,53.188714169395716,1.9518805894296873,0.8354863684423045,Right,Incorrect,0.0,0.0,-45,45,2004,884,-0.86
"{'cat': 'II', 'resp': 'reach'}",36,146,Right,52.77766400776155,23.839125397386386,2.6388832003880776,0.3744641060821747,Left,Incorrect,0.0,0.0,-45,45,2012,8554,-2.73
"{'cat': 'II', 'resp': 'reach'}",36,147,Right,57.361462896945376,41.60061470936853,2.8680731448472687,0.6534609277788583,Right,Correct,0.0,0.0,-45,45,2004,2054,-0.87
"{'cat': 'II', 'resp': 'reach'}",36,148,Right,38.839807143486695,25.093550405016174,1.9419903571743347,0.3941685680244199,Left,Incorrect,0.0,0.0,-45,45,2005,1520,-2.59
"{'cat': 'II', 'resp': 'reach'}",36,149,Left,40.5366492824809,56.58451425521567,2.026832464124045,0.8888274714556623,Left,Correct,0.0,0.0,-45,45,2004,554,-2.55
"{'cat': 'II', 'resp': 'reach'}",36,150,Left,23.1218844580225,47.096243796226865,1.1560942229011248,0.739786067609501,Left,Correct,0.0,0.0,-45,45,2008,621,-2.43
"{'cat': 'II', 'resp': 'reach'}",36,151,Right,52.76922206088252,36.01897008871366,2.638461103044126,0.5657846591028667,Right,Correct,0.0,0.0,-45,45,2012,533,-0.86
"{'cat': 'II', 'resp': 'reach'}",36,152,Right,79.97785623353957,58.39225552244146,3.9988928116769786,0.9172234048792006,Right,Correct,0.0,0.0,-45,45,2004,521,-0.95
"{'cat': 'II', 'resp': 'reach'}",36,153,Right,57.235629678593426,44.6530603357782,2.8617814839296716,0.7014086315559128,Right,Correct,0.0,0.0,-45,45,2004,454,-0.79
"{'cat': 'II', 'resp': 'reach'}",36,154,Right,56.86807011690809,37.441948822474636,2.843403505845405,0.5881367567838567,Left,Incorrect,0.0,0.0,-45,45,2004,846,-2.52
"{'cat': 'II', 'resp': 'reach'}",36,155,Left,61.86032654452962,83.96688539392885,3.093016327226481,1.318948751491915,Left,Correct,0.0,0.0,-45,45,2004,484,-2.36
"{'cat': 'II', 'resp': 'reach'}",36,156,Left,26.960407890180715,49.595034918210814,1.3480203945090359,0.7790369867679019,Left,Correct,0.0,0.0,-45,45,2005,500,-2.41
"{'cat': 'II', 'resp': 'reach'}",36,157,Right,63.5017951379039,54.952428111676085,3.1750897568951952,0.863190722262814,Right,Correct,0.0,0.0,-45,45,2004,463,-0.83
"{'cat': 'II', 'resp': 'reach'}",36,158,Left,48.27352747572142,61.95771109675073,2.413676373786071,0.9732294500739544,Right,Incorrect,0.0,0.0,-45,45,2004,575,-0.72
"{'cat': 'II', 'resp': 'reach'}",36,159,Right,55.651716838730486,29.213535343049127,2.7825858419365246,0.4588851400955446,Right,Correct,0.0,0.0,-45,45,2004,588,-0.86
"{'cat': 'II', 'resp': 'reach'}",36,160,Right,45.47890111219262,31.84518908369754,2.2739450556096306,0.5002230603876103,Right,Correct,0.0,0.0,-45,45,2004,433,-0.83
"{'cat': 'II', 'resp': 'reach'}",36,161,Right,69.87949214037197,46.153072294579125,3.493974607018598,0.7249707643062421,Right,Correct,0.0,0.0,-45,45,2005,516,-0.85
"{'cat': 'II', 'resp': 'reach'}",36,162,Left,38.71158294969096,51.00879186134206,1.9355791474845478,0.8012442289004152,Left,Correct,0.0,0.0,-45,45,2009,550,-2.62
"{'cat': 'II', 'resp': 'reach'}",36,163,Right,89.02590224335259,64.19315701670776,4.451295112167629,1.008343752472126,Right,Correct,0.0,0.0,-45,45,2013,446,-0.83
"{'cat': 'II', 'resp': 'reach'}",36,164,Right,76.67423042442354,59.31551682380222,3.833711521221177,0.9317259594876941,Right,Correct,0.0,0.0,-45,45,2013,462,-0.87
"{'cat': 'II', 'resp': 'reach'}",36,165,Right,81.34388690129035,53.7809646123715,4.067194345064518,0.8447894166459947,Right,Correct,0.0,0.0,-45,45,2004,575,-0.87
"{'cat': 'II', 'resp': 'reach'}",36,166,Right,70.21610724079629,47.637239271471145,3.5108053620398145,0.7482840046627647,Left,Incorrect,0.0,0.0,-45,45,2004,555,-2.42
"{'cat': 'II', 'resp': 'reach'}",36,167,Right,67.19825076468906,50.88389166796477,3.3599125382344535,0.799282301250685,Right,Correct,0.0,0.0,-45,45,2005,624,-0.79
"{'cat': 'II', 'resp': 'reach'}",36,168,Left,57.36492195881581,73.596739520602,2.86824609794079,1.1560548810304243,Left,Correct,0.0,0.0,-45,45,2004,471,-2.38
"{'cat': 'II', 'resp': 'reach'}",36,169,Left,35.423099211095995,67.71855836867375,1.7711549605547998,1.0637206274135853,Left,Correct,0.0,0.0,-45,45,2004,525,-2.55
"{'cat': 'II', 'resp': 'reach'}",36,170,Left,42.758298499913934,61.70749917209127,2.137914924995697,0.9692991303522009,Right,Incorrect,0.0,0.0,-45,45,2005,795,-0.79
"{'cat': 'II', 'resp': 'reach'}",36,171,Left,40.66158977764697,72.93026806124345,2.0330794888823482,1.1455859718276837,Right,Incorrect,0.0,0.0,-45,45,2004,525,-0.78
"{'cat': 'II', 'resp': 'reach'}",36,172,Right,49.946266214271304,38.226999224173106,2.497313310713565,0.6004682996572248,Right,Correct,0.0,0.0,-45,45,2009,500,-0.86
"{'cat': 'II', 'resp': 'reach'}",36,173,Left,31.692345519670877,50.34644485476059,1.5846172759835437,0.7908401064503975,Right,Incorrect,0.0,0.0,-45,45,2004,834,-0.85
"{'cat': 'II', 'resp': 'reach'}",36,174,Right,49.38764337921984,41.606102950451,2.469382168960992,0.6535471368681874,Left,Incorrect,0.0,0.0,-45,45,2008,854,-2.49
"{'cat': 'II', 'resp': 'reach'}",36,175,Right,31.554699961394704,11.547527047245737,1.5777349980697353,0.1813881306937832,Right,Correct,0.0,0.0,-45,45,2004,1300,-0.84
"{'cat': 'II', 'resp': 'reach'}",36,176,Right,53.653606687048566,25.104942397278762,2.6826803343524284,0.3943475130204294,Right,Correct,0.0,0.0,-45,45,2004,1029,-0.83
"{'cat': 'II', 'resp': 'reach'}",36,177,Left,22.047270690551848,36.66168282283839,1.1023635345275924,0.575880367122341,Left,Correct,0.0,0.0,-45,45,2004,538,-2.44
"{'cat': 'II', 'resp': 'reach'}",36,178,Left,18.919246438780952,48.14029542569402,0.9459623219390477,0.7561859922550132,Right,Incorrect,0.0,0.0,-45,45,2004,683,-0.79
"{'cat': 'II', 'resp': 'reach'}",36,179,Right,70.6660995362526,41.73958613906793,3.53330497681263,0.6556438858918708,Left,Incorrect,0.0,0.0,-45,45,2005,625,-2.52
"{'cat': 'II', 'resp': 'reach'}",36,180,Right,61.95948513640683,29.42941772706972,3.0979742568203417,0.46227621265393726,Left,Incorrect,0.0,0.0,-45,45,2004,525,-2.56
"{'cat': 'II', 'resp': 'reach'}",36,181,Left,17.146844024930587,30.978695252863652,0.8573422012465294,0.4866122071209672,Left,Correct,0.0,0.0,-45,45,2013,512,-2.54
"{'cat': 'II', 'resp': 'reach'}",36,182,Right,83.8794438385784,55.31093711469053,4.1939721919289195,0.8688221685133939,Right,Correct,0.0,0.0,-45,45,2004,492,-0.8
"{'cat': 'II', 'resp': 'reach'}",36,183,Right,46.87164497770425,35.18445470164603,2.3435822488852125,0.5526761220562701,Right,Correct,0.0,0.0,-45,45,2004,450,-0.86
"{'cat': 'II', 'resp': 'reach'}",36,184,Right,72.7691380403131,54.440487212492016,3.638456902015655,0.85514917342307,Right,Correct,0.0,0.0,-45,45,2004,484,-0.85
"{'cat': 'II', 'resp': 'reach'}",36,185,Right,35.44627197218209,13.535152840080663,1.7723135986091045,0.21260968363806218,Right,Correct,0.0,0.0,-45,45,2004,505,-0.89
"{'cat': 'II', 'resp': 'reach'}",36,186,Left,22.87497858148243,52.64465056718428,1.1437489290741214,0.8269402373633393,Left,Correct,0.0,0.0,-45,45,2012,517,-2.43
"{'cat': 'II', 'resp': 'reach'}",36,187,Left,31.67167772077014,45.78828346223084,1.583583886038507,0.7192406747271571,Left,Correct,0.0,0.0,-45,45,2008,500,-2.57
"{'cat': 'II', 'resp': 'reach'}",36,188,Left,36.10425345416751,58.00128938884208,1.8052126727083757,0.9110821232136094,Right,Incorrect,0.0,0.0,-45,45,2016,442,-0.74
"{'cat': 'II', 'resp': 'reach'}",36,189,Right,73.76479079053789,50.08233357460604,3.688239539526894,0.7866914561630788,Right,Correct,0.0,0.0,-45,45,2004,525,-0.84
"{'cat': 'II', 'resp': 'reach'}",36,190,Right,50.5942992236417,42.198263977919936,2.5297149611820853,0.6628487805363804,Right,Correct,0.0,0.0,-45,45,2005,1129,-0.87
"{'cat': 'II', 'resp': 'reach'}",36,191,Right,47.894761696811045,26.2961299100378,2.394738084840552,0.4130586427160879,Left,Incorrect,0.0,0.0,-45,45,2004,625,-2.44
"{'cat': 'II', 'resp': 'reach'}",36,192,Right,83.11094057367367,57.12772499388687,4.155547028683684,0.897360205785465,Right,Correct,0.0,0.0,-45,45,2008,605,-0.84
"{'cat': 'II', 'resp': 'reach'}",36,193,Left,55.36914987969678,80.90921352598497,2.768457493984839,1.2709189541048114,Left,Correct,0.0,0.0,-45,45,2012,1229,-2.49
"{'cat': 'II', 'resp': 'reach'}",36,194,Right,48.31980768603869,23.665371553545334,2.4159903843019346,0.37173478708545454,Left,Incorrect,0.0,0.0,-45,45,2003,1501,-2.47
"{'cat': 'II', 'resp': 'reach'}",36,195,Right,60.992083509638206,32.00402538979536,3.04960417548191,0.5027180552494116,Right,Correct,0.0,0.0,-45,45,2004,692,-0.8
"{'cat': 'II', 'resp': 'reach'}",36,196,Left,48.687579703322655,75.27956731883431,2.434378985166133,1.1824886782713409,Right,Incorrect,0.0,0.0,-45,45,2008,463,-0.81
"{'cat': 'II', 'resp': 'reach'}",36,197,Right,57.40789525147046,42.15920933747422,2.870394762573523,0.6622353116788162,Left,Incorrect,0.0,0.0,-45,45,2004,604,-2.47
"{'cat': 'II', 'resp': 'reach'}",36,198,Left,42.93754074552303,68.41027712753802,2.1468770372761514,1.0745861202695766,Right,Incorrect,0.0,0.0,-45,45,2012,567,-0.88
"{'cat': 'II', 'resp': 'reach'}",36,199,Left,38.99536341519789,63.05489740121437,1.9497681707598946,0.990464012242566,Right,Incorrect,0.0,0.0,-45,45,2004,517,-0.83
"{'cat': 'II', 'resp': 'reach'}",36,200,Left,23.212792881835565,42.50195530456597,1.1606396440917783,0.6676191527401308,Left,Correct,0.0,0.0,-45,45,2013,537,-2.46
"{'cat': 'II', 'resp': 'reach'}",36,201,Right,79.16505026570496,62.936970060892364,3.958252513285248,0.9886116139125011,Right,Correct,0.0,0.0,-45,45,2009,441,-0.77
"{'cat': 'II', 'resp': 'reach'}",36,202,Right,67.15865721582503,48.69226595942993,3.3579328607912515,0.7648563251239272,Right,Correct,0.0,0.0,-45,45,2008,554,-0.89
"{'cat': 'II', 'resp': 'reach'}",36,203,Left,11.563520108207971,37.402336538551,0.5781760054103985,0.5875145284830245,Left,Correct,0.0,0.0,-45,45,2004,696,-2.34
"{'cat': 'II', 'resp': 'reach'}",36,204,Left,19.851441939374855,35.332484023293674,0.9925720969687427,0.5550013612032907,Left,Correct,0.0,0.0,-45,45,2004,613,-2.49
"{'cat': 'II', 'resp': 'reach'}",36,205,Left,60.75171244061859,84.27910091521349,3.0375856220309294,1.3238530214319375,Right,Incorrect,0.0,0.0,-45,45,2012,588,-0.83
"{'cat': 'II', 'resp': 'reach'}",36,206,Right,37.04727087201549,23.11171409162391,1.8523635436007744,0.3630379560105669,Left,Incorrect,0.0,0.0,-45,45,2012,555,-2.48
"{'cat': 'II', 'resp': 'reach'}",36,207,Left,43.21585473144444,55.645660240865894,2.1607927365722217,0.8740799870842895,Right,Incorrect,0.0,0.0,-45,45,2004,621,-0.88
"{'cat': 'II', 'resp': 'reach'}",36,208,Left,57.78319204007437,72.63000386865923,2.8891596020037182,1.1408694329198903,Right,Incorrect,0.0,0.0,-45,45,2004,504,-0.85
"{'cat': 'II', 'resp': 'reach'}",36,209,Right,33.39084120199296,17.50664601036067,1.6695420600996482,0.27499375247573066,Right,Correct,0.0,0.0,-45,45,2004,495,-0.89
"{'cat': 'II', 'resp': 'reach'}",36,210,Right,62.00437466148734,30.565053345297947,3.100218733074367,0.4801147352308409,Right,Correct,0.0,0.0,-45,45,2005,483,-0.93
"{'cat': 'II', 'resp': 'reach'}",36,211,Left,21.59520916668486,48.4570689690258,1.079760458334243,0.7611618594379269,Left,Correct,0.0,0.0,-45,45,2016,533,-2.53
"{'cat': 'II', 'resp': 'reach'}",36,212,Left,33.17108223440904,51.39054976155893,1.6585541117204519,0.8072408679742712,Right,Incorrect,0.0,0.0,-45,45,2016,938,-0.95
"{'cat': 'II', 'resp': 'reach'}",36,213,Left,52.777819363151295,63.45386187716813,2.6388909681575647,0.9967309315760642,Right,Incorrect,0.0,0.0,-45,45,2008,1642,-0.88
"{'cat': 'II', 'resp': 'reach'}",36,214,Right,88.72072030033543,65.12395847407139,4.4360360150167715,1.022964747574147,Left,Incorrect,0.0,0.0,-45,45,2004,1046,-2.46
"{'cat': 'II', 'resp': 'reach'}",36,215,Right,68.24191552316256,52.645552380093264,3.412095776158128,0.8269544030073882,Right,Correct,0.0,0.0,-45,45,2017,592,-0.74
"{'cat': 'II', 'resp': 'reach'}",36,216,Left,63.72636286280279,84.63853397463285,3.1863181431401393,1.3294989827265835,Right,Incorrect,0.0,0.0,-45,45,2009,462,-0.89
"{'cat': 'II', 'resp': 'reach'}",36,217,Left,29.010258183863982,38.839678770135635,1.4505129091931992,0.6100922474602279,Right,Incorrect,0.0,0.0,-45,45,2004,633,-0.79
"{'cat': 'II', 'resp': 'reach'}",36,218,Left,62.1926199169085,86.01093088490322,3.109630995845425,1.3510565429821568,Left,Correct,0.0,0.0,-45,45,2004,759,-2.51
"{'cat': 'II', 'resp': 'reach'}",36,219,Right,68.22118425112936,40.42331862003461,3.411059212556468,0.634968004052101,Left,Incorrect,0.0,0.0,-45,45,2004,1041,-2.51
"{'cat': 'II', 'resp': 'reach'}",36,220,Right,48.1937196243795,34.56031800699714,2.409685981218975,0.5428722057825464,Left,Incorrect,0.0,0.0,-45,45,2013,658,-2.51
"{'cat': 'II', 'resp': 'reach'}",36,221,Right,44.196876808193906,28.07599035643006,2.2098438404096954,0.4410166252300928,Left,Incorrect,0.0,0.0,-45,45,2004,713,-2.6
"{'cat': 'II', 'resp': 'reach'}",36,222,Right,51.1518002440185,20.446659347964985,2.557590012200925,0.3211753739900993,Left,Incorrect,0.0,0.0,-45,45,2004,525,-2.57
"{'cat': 'II', 'resp': 'reach'}",36,223,Left,27.7522375986036,59.10406737991358,1.3876118799301798,0.9284045193900632,Left,Correct,0.0,0.0,-45,45,2004,583,-2.54
"{'cat': 'II', 'resp': 'reach'}",36,224,Left,33.98255840883522,66.08039551818376,1.6991279204417609,1.03798842553117,Left,Correct,0.0,0.0,-45,45,2004,659,-2.61
"{'cat': 'II', 'resp': 'reach'}",36,225,Right,78.26063283062132,59.08585747429422,3.9130316415310658,0.9281184788614815,Right,Correct,0.0,0.0,-45,45,2012,567,-0.81
"{'cat': 'II', 'resp': 'reach'}",36,226,Left,39.97375626809293,65.4166103035356,1.9986878134046464,1.027561711761669,Right,Incorrect,0.0,0.0,-45,45,2004,592,-0.95
"{'cat': 'II', 'resp': 'reach'}",36,227,Left,15.131147139864893,37.592950450362196,0.7565573569932447,0.5905086848081149,Left,Correct,0.0,0.0,-45,45,2004,746,-2.55
"{'cat': 'II', 'resp': 'reach'}",36,228,Left,32.036361024054294,45.569058238211525,1.6018180512027147,0.715797092960854,Right,Incorrect,0.0,0.0,-45,45,2004,421,-0.89
"{'cat': 'II', 'resp': 'reach'}",36,229,Left,35.5648088107538,58.37298675347266,1.77824044053769,0.91692073176402,Left,Correct,0.0,0.0,-45,45,2017,595,-2.45
"{'cat': 'II', 'resp': 'reach'}",36,230,Left,53.76339114016489,79.37500758551624,2.6881695570082447,1.2468197035464597,Right,Incorrect,0.0,0.0,-45,45,2004,554,-0.83
"{'cat': 'II', 'resp': 'reach'}",36,231,Right,77.31973250901163,54.203245649928576,3.865986625450581,0.8514225916726925,Right,Correct,0.0,0.0,-45,45,2004,517,-0.81
"{'cat': 'II', 'resp': 'reach'}",36,232,Left,38.372630209500116,48.75410490886544,1.918631510475006,0.7658276890701886,Right,Incorrect,0.0,0.0,-45,45,2004,483,-0.88
"{'cat': 'II', 'resp': 'reach'}",36,233,Left,23.898474594328242,55.22347419437184,1.194923729716412,0.8674483041737204,Left,Correct,0.0,0.0,-45,45,2004,575,-2.48
"{'cat': 'II', 'resp': 'reach'}",36,234,Left,13.779214948916195,31.499647420843534,0.6889607474458097,0.49479530463995364,Left,Correct,0.0,0.0,-45,45,2012,675,-2.41
"{'cat': 'II', 'resp': 'reach'}",36,235,Left,52.2244888372419,66.18830518317293,2.6112244418620953,1.0396834665850765,Right,Incorrect,0.0,0.0,-45,45,2004,617,-0.81
"{'cat': 'II', 'resp': 'reach'}",36,236,Left,67.56826402691895,81.5403972402065,3.3784132013459476,1.280833564703131,Left,Correct,0.0,0.0,-45,45,2005,1179,-2.64
"{'cat': 'II', 'resp': 'reach'}",36,237,Right,39.56956209472729,13.069646241619818,1.9784781047363647,0.20529752308845137,Right,Correct,0.0,0.0,-45,45,2004,620,-0.8
"{'cat': 'II', 'resp': 'reach'}",36,238,Left,44.790855038258904,72.96142152637746,2.2395427519129454,1.146075329313678,Right,Incorrect,0.0,0.0,-45,45,2008,429,-0.94
"{'cat': 'II', 'resp': 'reach'}",36,239,Right,54.18763444864761,27.70615495994103,2.7093817224323806,0.4352072644068558,Right,Correct,0.0,0.0,-45,45,2004,471,-0.88
"{'cat': 'II', 'resp': 'reach'}",36,240,Left,49.447634927999815,77.58756376241436,2.4723817463999906,1.218742601629653,Left,Correct,0.0,0.0,-45,45,2004,625,-2.38
"{'cat': 'II', 'resp': 'reach'}",36,241,Left,60.81515011235953,75.07139759739508,3.040757505617977,1.1792187559334741,Left,Correct,0.0,0.0,-45,45,2009,583,-2.49
"{'cat': 'II', 'resp': 'reach'}",36,242,Right,62.51892677547307,36.52634906664853,3.1259463387736535,0.5737545494511971,Right,Correct,0.0,0.0,-45,45,2004,696,-0.98
"{'cat': 'II', 'resp': 'reach'}",36,243,Left,60.35584642772999,83.55539602007066,3.0177923213864997,1.312485091522199,Right,Incorrect,0.0,0.0,-45,45,2009,1175,-0.94
"{'cat': 'II', 'resp': 'reach'}",36,244,Left,39.8872434636378,72.3938739488162,1.99436217318189,1.1371603128125327,Left,Correct,0.0,0.0,-45,45,2004,1179,-2.68
"{'cat': 'II', 'resp': 'reach'}",36,245,Left,53.59547903395363,76.22106451540753,2.6797739516976815,1.19727768165199,Right,Incorrect,0.0,0.0,-45,45,2004,833,-0.87
"{'cat': 'II', 'resp': 'reach'}",36,246,Left,20.921212027806796,33.21345835530098,1.04606060139034,0.5217157838466204,Left,Correct,0.0,0.0,-45,45,2017,846,-2.65
"{'cat': 'II', 'resp': 'reach'}",36,247,Right,43.88107572149175,35.58098307890732,2.1940537860745875,0.5589047752409899,Left,Incorrect,0.0,0.0,-45,45,2004,838,-2.62
"{'cat': 'II', 'resp': 'reach'}",36,248,Left,51.00299528837199,72.44689418964282,2.5501497644185998,1.1379931528078946,Right,Incorrect,0.0,0.0,-45,45,2012,1088,-0.8
"{'cat': 'II', 'resp': 'reach'}",36,249,Right,54.089734692207195,45.2664704074404,2.70448673461036,0.7110440544297726,Right,Correct,0.0,0.0,-45,45,2008,513,-0.77
"{'cat': 'II', 'resp': 'reach'}",36,250,Left,26.400277651235992,37.823332313117945,1.3200138825617995,0.5941275146458839,Left,Correct,0.0,0.0,-45,45,2008,641,-2.51
"{'cat': 'II', 'resp': 'reach'}",36,251,Right,66.77487546341814,39.61959282293755,3.338743773170907,0.6223431087537975,Right,Correct,0.0,0.0,-45,45,2013,525,-0.79
"{'cat': 'II', 'resp': 'reach'}",36,252,Right,33.12143028354707,13.37315095758063,1.6560715141773534,0.21006496401841307,Right,Correct,0.0,0.0,-45,45,2008,450,-0.82
"{'cat': 'II', 'resp': 'reach'}",36,253,Left,32.05096876112079,51.59543997227352,1.6025484380560397,0.8104592758781383,Left,Correct,0.0,0.0,-45,45,2004,562,-2.53
"{'cat': 'II', 'resp': 'reach'}",36,254,Right,61.82970148199476,53.01790877783931,3.0914850740997384,0.8328033636257689,Left,Incorrect,0.0,0.0,-45,45,2004,554,-2.54
"{'cat': 'II', 'resp': 'reach'}",36,255,Right,35.315945757964386,20.210859746361546,1.7657972878982193,0.31747144250951553,Right,Correct,0.0,0.0,-45,45,2012,483,-0.78
"{'cat': 'II', 'resp': 'reach'}",36,256,Left,44.44011463907843,75.48131269251277,2.2220057319539217,1.1856576871905606,Left,Correct,0.0,0.0,-45,45,2004,554,-2.48
"{'cat': 'II', 'resp': 'reach'}",36,257,Left,13.562798330372658,32.14361985581448,0.6781399165186329,0.5049107999940489,Right,Incorrect,0.0,0.0,-45,45,2004,675,-0.88
"{'cat': 'II', 'resp': 'reach'}",36,258,Left,26.296482835495365,46.58770501017172,1.3148241417747681,0.7317979590378193,Left,Correct,0.0,0.0,-45,45,2013,616,-2.35
"{'cat': 'II', 'resp': 'reach'}",36,259,Left,62.475378334749635,76.81588036716823,3.1237689167374816,1.2066210272026405,Right,Incorrect,0.0,0.0,-45,45,2004,504,-0.86
"{'cat': 'II', 'resp': 'reach'}",36,260,Right,39.433282423600815,23.810397523081814,1.9716641211800408,0.37401284968783216,Right,Correct,0.0,0.0,-45,45,2004,846,-0.82
"{'cat': 'II', 'resp': 'reach'}",36,261,Left,27.82501866048507,42.813239281254326,1.3912509330242535,0.6725087900118527,Right,Incorrect,0.0,0.0,-45,45,2005,520,-0.83
"{'cat': 'II', 'resp': 'reach'}",36,262,Right,87.0751017671444,66.6527037825926,4.353755088357221,1.0469782227264475,Left,Incorrect,0.0,0.0,-45,45,2013,1000,-2.44
"{'cat': 'II', 'resp': 'reach'}",36,263,Right,60.71024018087673,36.657131319787226,3.0355120090438366,0.5758088722795994,Right,Correct,0.0,0.0,-45,45,2004,555,-0.85
"{'cat': 'II', 'resp': 'reach'}",36,264,Left,36.38211077973885,66.34007978317761,1.8191055389869428,1.0420675364269578,Right,Incorrect,0.0,0.0,-45,45,2004,546,-0.91
"{'cat': 'II', 'resp': 'reach'}",36,265,Left,41.43317483109189,52.21055524788975,2.0716587415545944,0.8201214840330724,Left,Correct,0.0,0.0,-45,45,2004,533,-2.51
"{'cat': 'II', 'resp': 'reach'}",36,266,Right,82.74174824466789,63.28165734323363,4.137087412233394,0.9940259490824469,Left,Incorrect,0.0,0.0,-45,45,2004,1038,-2.52
"{'cat': 'II', 'resp': 'reach'}",36,267,Left,62.35176580692978,88.758404523209,3.117588290346489,1.3942137579723222,Right,Incorrect,0.0,0.0,-45,45,2009,512,-0.85
"{'cat': 'II', 'resp': 'reach'}",36,268,Left,41.81946936445722,74.09577056111299,2.0909734682228613,1.1638936422843371,Right,Incorrect,0.0,0.0,-45,45,2009,450,-0.87
"{'cat': 'II', 'resp': 'reach'}",36,269,Left,26.599944414213105,51.92077298806797,1.3299972207106552,0.8155695949400884,Left,Correct,0.0,0.0,-45,45,2013,616,-2.58
"{'cat': 'II', 'resp': 'reach'}",36,270,Left,18.21642273113406,47.28581280991838,0.9108211365567029,0.7427638107133085,Right,Incorrect,0.0,0.0,-45,45,2017,571,-0.83
"{'cat': 'II', 'resp': 'reach'}",36,271,Right,55.60597498378514,45.40251761947442,2.780298749189257,0.7131810790391099,Left,Incorrect,0.0,0.0,-45,45,2008,654,-2.49
"{'cat': 'II', 'resp': 'reach'}",36,272,Left,44.82898285357546,54.8618098580352,2.241449142678773,0.8617672940632174,Right,Incorrect,0.0,0.0,-45,45,2004,471,-0.9
"{'cat': 'II', 'resp': 'reach'}",36,273,Left,33.22390867509701,63.61356966910372,1.6611954337548502,0.9992396157053937,Right,Incorrect,0.0,0.0,-45,45,2004,779,-0.9
"{'cat': 'II', 'resp': 'reach'}",36,274,Right,68.05104375131266,43.83678136843335,3.402552187565633,0.6885865515204606,Left,Incorrect,0.0,0.0,-45,45,2004,454,-2.61
"{'cat': 'II', 'resp': 'reach'}",36,275,Right,62.501423590577105,42.726496214132624,3.1250711795288555,0.6711462330997557,Left,Incorrect,0.0,0.0,-45,45,2004,484,-2.34
"{'cat': 'II', 'resp': 'reach'}",36,276,Right,66.13809994668883,36.885954057161946,3.3069049973344415,0.579403211433153,Left,Incorrect,0.0,0.0,-45,45,2004,483,-2.48
"{'cat': 'II', 'resp': 'reach'}",36,277,Right,77.82261082958928,48.116729716988964,3.891130541479464,0.7558158229682911,Left,Incorrect,0.0,0.0,-45,45,2004,475,-2.75
"{'cat': 'II', 'resp': 'reach'}",36,278,Right,44.61034629715009,16.62469603375343,2.2305173148575044,0.2611401146390157,Left,Incorrect,0.0,0.0,-45,45,2004,484,-2.61
"{'cat': 'II', 'resp': 'reach'}",36,279,Right,80.31653359233337,49.948841915492515,4.015826679616668,0.7845945740851462,Right,Correct,0.0,0.0,-45,45,2005,466,-0.72
"{'cat': 'II', 'resp': 'reach'}",36,280,Right,48.75384405864266,30.610822956635893,2.437692202932133,0.4808336826045255,Right,Correct,0.0,0.0,-45,45,2004,1025,-0.76
"{'cat': 'II', 'resp': 'reach'}",36,281,Right,85.92588285498461,62.49702621206937,4.29629414274923,0.9817009920952293,Right,Correct,0.0,0.0,-45,45,2004,484,-0.87
"{'cat': 'II', 'resp': 'reach'}",36,282,Left,52.11807291568487,68.2653442298448,2.6059036457842435,1.072309519636294,Right,Incorrect,0.0,0.0,-45,45,2013,495,-0.97
"{'cat': 'II', 'resp': 'reach'}",36,283,Right,50.83385323542127,31.551979393180684,2.5416926617710636,0.4956173333391648,Left,Incorrect,0.0,0.0,-45,45,2012,646,-2.54
"{'cat': 'II', 'resp': 'reach'}",36,284,Right,56.73531226144912,38.95810298654385,2.836765613072456,0.6119524507016038,Left,Incorrect,0.0,0.0,-45,45,2005,716,-2.57
"{'cat': 'II', 'resp': 'reach'}",36,285,Right,33.08770896879201,11.771627725893886,1.6543854484396006,0.1849082959223108,Right,Correct,0.0,0.0,-45,45,2004,654,-0.95
"{'cat': 'II', 'resp': 'reach'}",36,286,Right,43.05181875876488,19.4879509626684,2.152590937938244,0.30611601788918585,Left,Incorrect,0.0,0.0,-45,45,2004,612,-2.51
"{'cat': 'II', 'resp': 'reach'}",36,287,Right,81.13531436466963,50.716665697629125,4.056765718233481,0.7966555218512056,Right,Correct,0.0,0.0,-45,45,2009,500,-0.87
"{'cat': 'II', 'resp': 'reach'}",36,288,Right,74.98192278414385,54.98187109035079,3.7490961392071926,0.8636532114903355,Left,Incorrect,0.0,0.0,-45,45,2004,867,-2.58
"{'cat': 'II', 'resp': 'reach'}",36,289,Right,31.81116597631545,13.657928535705793,1.5905582988157727,0.21453823975513858,Right,Correct,0.0,0.0,-45,45,2005,470,-0.88
"{'cat': 'II', 'resp': 'reach'}",36,290,Left,28.564346131953958,60.007585302049975,1.428217306597698,0.9425969457229153,Right,Incorrect,0.0,0.0,-45,45,2005,470,-0.86
"{'cat': 'II', 'resp': 'reach'}",36,291,Right,44.69090362441911,24.844274180816054,2.2345451812209554,0.39025294625111145,Left,Incorrect,0.0,0.0,-45,45,2008,675,-2.51
"{'cat': 'II', 'resp': 'reach'}",36,292,Left,37.97766651347166,62.98371030590767,1.898883325673583,0.9893458079643364,Right,Incorrect,0.0,0.0,-45,45,2013,537,-0.9
"{'cat': 'II', 'resp': 'reach'}",36,293,Left,33.26078631559217,47.77228612158758,1.6630393157796084,0.7504053156238457,Left,Correct,0.0,0.0,-45,45,2008,633,-2.55
"{'cat': 'II', 'resp': 'reach'}",36,294,Left,57.802186343115025,66.12640358641934,2.8901093171557513,1.038711118577044,Right,Incorrect,0.0,0.0,-45,45,2004,584,-0.79
"{'cat': 'II', 'resp': 'reach'}",36,295,Right,62.74015629499964,50.20269804851688,3.1370078147499822,0.7885821368980364,Left,Incorrect,0.0,0.0,-45,45,2004,504,-2.43
"{'cat': 'II', 'resp': 'reach'}",36,296,Right,64.6752952282816,42.06905848287469,3.2337647614140796,0.6608192253661924,Right,Correct,0.0,0.0,-45,45,2004,513,-0.8
"{'cat': 'II', 'resp': 'reach'}",36,297,Right,65.19124293903533,43.20656044761223,3.2595621469517666,0.6786870644455096,Right,Correct,0.0,0.0,-45,45,2016,1075,-0.88
"{'cat': 'II', 'resp': 'reach'}",36,298,Left,40.461687489391906,71.46776823243287,2.0230843744695957,1.1226130782373456,Left,Correct,0.0,0.0,-45,45,2004,642,-2.39
"{'cat': 'II', 'resp': 'reach'}",36,299,Left,46.06878537640948,63.68284560567704,2.3034392688204743,1.00032779957244,Left,Correct,0.0,0.0,-45,45,2004,696,-2.55
"{'cat': 'II', 'resp': 'reach'}",36,300,Right,48.919096843596364,34.780865250862675,2.4459548421798183,0.5463365537880335,Right,Correct,0.0,0.0,-45,45,2004,738,-0.84
"{'cat': 'II', 'resp': 'reach'}",36,301,Left,32.033545713236755,48.23809762305238,1.6016772856618378,0.7577222655786432,Left,Correct,0.0,0.0,-45,45,2004,696,-2.55
"{'cat': 'II', 'resp': 'reach'}",36,302,Left,13.57328161269142,36.09824938710632,0.678664080634571,0.5670299754099274,Left,Correct,0.0,0.0,-45,45,2012,758,-2.62
"{'cat': 'II', 'resp': 'reach'}",36,303,Left,61.57035650795107,71.2310517052044,3.078517825397553,1.118894743722724,Left,Correct,0.0,0.0,-45,45,2005,766,-2.65
"{'cat': 'II', 'resp': 'reach'}",36,304,Left,34.15502860014927,51.583846113074486,1.7077514300074637,0.8102771599637061,Right,Incorrect,0.0,0.0,-45,45,2008,571,-0.85
"{'cat': 'II', 'resp': 'reach'}",36,305,Left,46.23758736853589,77.12029270123989,2.3118793684267946,1.211402724964549,Right,Incorrect,0.0,0.0,-45,45,2004,554,-0.88
"{'cat': 'II', 'resp': 'reach'}",36,306,Right,46.77370306208354,18.627567587162396,2.3386851531041772,0.29260114743038373,Left,Incorrect,0.0,0.0,-45,45,2004,613,-2.57
"{'cat': 'II', 'resp': 'reach'}",36,307,Right,64.35966926372669,33.710847839987025,3.2179834631863344,0.529528759601933,Right,Correct,0.0,0.0,-45,45,2013,604,-0.93
"{'cat': 'II', 'resp': 'reach'}",36,308,Right,57.48835671974473,39.584868372267536,2.8744178359872365,0.6217976583581734,Right,Correct,0.0,0.0,-45,45,2004,692,-0.93
"{'cat': 'II', 'resp': 'reach'}",36,309,Left,46.693002548364205,76.98392578989821,2.33465012741821,1.20926067853023,Left,Correct,0.0,0.0,-45,45,2004,829,-2.46
"{'cat': 'II', 'resp': 'reach'}",36,310,Right,69.98589296864873,50.83126727957257,3.4992946484324365,0.7984556792908221,Right,Correct,0.0,0.0,-45,45,2004,484,-0.96
"{'cat': 'II', 'resp': 'reach'}",36,311,Right,57.03245439632481,27.27592846203823,2.8516227198162403,0.42844928238090024,Right,Correct,0.0,0.0,-45,45,2013,416,-0.99
"{'cat': 'II', 'resp': 'reach'}",36,312,Right,78.78771539062691,52.690120145984565,3.9393857695313454,0.8276544718369433,Left,Incorrect,0.0,0.0,-45,45,2004,625,-2.49
"{'cat': 'II', 'resp': 'reach'}",36,313,Left,26.731042041907443,39.65870754187257,1.3365521020953721,0.6229575213220649,Right,Incorrect,0.0,0.0,-45,45,2017,554,-0.87
"{'cat': 'II', 'resp': 'reach'}",36,314,Left,25.1104438161679,45.423361810277754,1.255522190808395,0.7135084988225988,Right,Incorrect,0.0,0.0,-45,45,2012,483,-0.91
"{'cat': 'II', 'resp': 'reach'}",36,315,Left,32.94270850653881,63.85162017867804,1.6471354253269401,1.0029789043657036,Left,Correct,0.0,0.0,-45,45,2004,521,-2.38
"{'cat': 'II', 'resp': 'reach'}",36,316,Left,26.170098390519176,57.097954199905026,1.3085049195259588,0.8968925672471405,Right,Incorrect,0.0,0.0,-45,45,2013,625,-0.94
"{'cat': 'II', 'resp': 'reach'}",36,317,Left,62.21518538526729,84.4738631481257,3.1107592692633648,1.3269123394325064,Left,Correct,0.0,0.0,-45,45,2008,605,-2.39
"{'cat': 'II', 'resp': 'reach'}",36,318,Right,80.82579002605792,59.56697558844947,4.041289501302896,0.9356758645261769,Left,Incorrect,0.0,0.0,-45,45,2012,1000,-2.54
"{'cat': 'II', 'resp': 'reach'}",36,319,Left,67.15851366936798,84.11566813869348,3.3579256834683986,1.3212858253815825,Right,Incorrect,0.0,0.0,-45,45,2017,704,-0.76
"{'cat': 'II', 'resp': 'reach'}",36,320,Left,24.660242335889226,46.27662251869084,1.2330121167944612,0.7269114866883358,Left,Correct,0.0,0.0,-45,45,2004,525,-2.41
"{'cat': 'II', 'resp': 'reach'}",36,321,Right,33.22288894748568,21.532212546198124,1.6611444473742838,0.33822720375335,Right,Correct,0.0,0.0,-45,45,2013,517,-0.89
"{'cat': 'II', 'resp': 'reach'}",36,322,Left,39.62449740647875,57.86729160937588,1.9812248703239377,0.9089772910157677,Left,Correct,0.0,0.0,-45,45,2004,2941,-2.64
"{'cat': 'II', 'resp': 'reach'}",36,323,Left,17.640009541573093,31.56645077905312,0.8820004770786547,0.4958446493368854,Right,Incorrect,0.0,0.0,-45,45,2008,792,-0.73
"{'cat': 'II', 'resp': 'reach'}",36,324,Right,53.85285188017538,39.59511118672242,2.6926425940087686,0.6219585521113911,Left,Incorrect,0.0,0.0,-45,45,2008,746,-2.56
"{'cat': 'II', 'resp': 'reach'}",36,325,Left,57.40886458715835,76.60886151741217,2.8704432293579174,1.2033691827148993,Left,Correct,0.0,0.0,-45,45,2004,521,-2.61
"{'cat': 'II', 'resp': 'reach'}",36,326,Right,49.580440867765645,23.331974945466833,2.4790220433882824,0.3664978054120986,Right,Correct,0.0,0.0,-45,45,2004,613,-0.84
"{'cat': 'II', 'resp': 'reach'}",36,327,Right,38.58804841722979,16.672153258154182,1.9294024208614897,0.26188557097670156,Right,Correct,0.0,0.0,-45,45,2013,758,-0.87
"{'cat': 'II', 'resp': 'reach'}",36,328,Left,18.05548974375972,43.93109555270452,0.9027744871879859,0.6900680352626386,Right,Incorrect,0.0,0.0,-45,45,2004,575,-0.77
"{'cat': 'II', 'resp': 'reach'}",36,329,Left,52.38227979565746,62.73446620129431,2.619113989782873,0.9854306907243169,Left,Correct,0.0,0.0,-45,45,2004,1613,-2.45
"{'cat': 'II', 'resp': 'reach'}",36,330,Left,46.482574987498914,76.74377720811653,2.3241287493749456,1.2054884334287534,Right,Incorrect,0.0,0.0,-45,45,2008,834,-0.8
"{'cat': 'II', 'resp': 'reach'}",36,331,Right,68.13113522629912,38.66355874095143,3.406556761314956,0.6073257605110522,Left,Incorrect,0.0,0.0,-45,45,2017,754,-2.47
"{'cat': 'II', 'resp': 'reach'}",36,332,Left,49.31127983125232,63.527616935474306,2.465563991562616,0.997889473322763,Right,Incorrect,0.0,0.0,-45,45,2004,537,-0.8
"{'cat': 'II', 'resp': 'reach'}",36,333,Left,38.08686043035691,60.192348723653495,1.9043430215178454,0.9454992027627238,Right,Incorrect,0.0,0.0,-45,45,2004,504,-0.86
"{'cat': 'II', 'resp': 'reach'}",36,334,Right,48.5958100955161,30.669561838151125,2.429790504775805,0.48175635079776724,Left,Incorrect,0.0,0.0,-45,45,2004,554,-2.44
"{'cat': 'II', 'resp': 'reach'}",36,335,Left,64.71520337613615,78.78605152873338,3.2357601688068076,1.2375684034400785,Left,Correct,0.0,0.0,-45,45,2013,496,-2.48
"{'cat': 'II', 'resp': 'reach'}",36,336,Right,69.82458016223298,47.570593545361014,3.491229008111649,0.7472371360450609,Right,Correct,0.0,0.0,-45,45,2004,517,-0.83
"{'cat': 'II', 'resp': 'reach'}",36,337,Right,62.757659435374244,49.12101733834068,3.137882971768712,0.7715911360349397,Right,Correct,0.0,0.0,-45,45,2008,792,-0.8
"{'cat': 'II', 'resp': 'reach'}",36,338,Right,88.6166745327144,62.75936011237937,4.43083372663572,0.9858217233652367,Left,Incorrect,0.0,0.0,-45,45,2004,642,-2.44
"{'cat': 'II', 'resp': 'reach'}",36,339,Left,47.78898698489475,65.7455578495266,2.389449349244737,1.0327288077311776,Right,Incorrect,0.0,0.0,-45,45,2004,454,-0.8
"{'cat': 'II', 'resp': 'reach'}",36,340,Right,59.42243185855631,49.11343770861114,2.9711215929278154,0.7714720754895633,Left,Incorrect,0.0,0.0,-45,45,2013,637,-2.44
"{'cat': 'II', 'resp': 'reach'}",36,341,Right,66.5412186107595,44.26218401148021,3.3270609305379755,0.6952687606115291,Left,Incorrect,0.0,0.0,-45,45,2004,534,-2.45
"{'cat': 'II', 'resp': 'reach'}",36,342,Left,14.76508067507211,33.634735283292244,0.7382540337536055,0.5283331863571417,Left,Correct,0.0,0.0,-45,45,2005,2387,-2.52
"{'cat': 'II', 'resp': 'reach'}",36,343,Left,39.51604266388555,51.141948061325294,1.9758021331942774,0.8033358415986516,Right,Incorrect,0.0,0.0,-45,45,2009,854,-0.87
"{'cat': 'II', 'resp': 'reach'}",36,344,Right,42.96703742777907,19.768708968074613,2.1483518713889533,0.3105261543252893,Right,Correct,0.0,0.0,-45,45,2004,450,-0.86
"{'cat': 'II', 'resp': 'reach'}",36,345,Right,80.79548836311416,61.70141930918406,4.039774418155708,0.9692036280889803,Left,Incorrect,0.0,0.0,-45,45,2005,966,-2.51
"{'cat': 'II', 'resp': 'reach'}",36,346,Left,16.438029247002824,35.43809246928529,0.8219014623501412,0.5566602547937122,Right,Incorrect,0.0,0.0,-45,45,2004,709,-0.98
"{'cat': 'II', 'resp': 'reach'}",36,347,Left,63.24226518948832,75.57979366831921,3.162113259474416,1.1872046227411202,Left,Correct,0.0,0.0,-45,45,2008,725,-2.5
"{'cat': 'II', 'resp': 'reach'}",36,348,Right,49.9523513442058,23.507397505806438,2.49761756721029,0.3692533365462827,Right,Correct,0.0,0.0,-45,45,2016,813,-0.86
"{'cat': 'II', 'resp': 'reach'}",36,349,Right,48.43485559215075,26.338049143005016,2.4217427796075373,0.4137171084877575,Left,Incorrect,0.0,0.0,-45,45,2008,1017,-2.38
"{'cat': 'II', 'resp': 'reach'}",36,350,Right,83.58465397937947,56.051682499676886,4.179232698968973,0.8804577698116623,Right,Correct,0.0,0.0,-45,45,2016,584,-0.9
"{'cat': 'II', 'resp': 'reach'}",36,351,Left,50.97473183238042,73.35991311550886,2.548736591619021,1.1523348205583408,Right,Incorrect,0.0,0.0,-45,45,2004,533,-0.9
"{'cat': 'II', 'resp': 'reach'}",36,352,Right,49.30765705040594,31.742146030353503,2.465382852520297,0.4986044638906649,Left,Incorrect,0.0,0.0,-45,45,2008,605,-2.52
"{'cat': 'II', 'resp': 'reach'}",36,353,Right,47.281755407290916,28.70838772527511,2.364087770364546,0.4509502998706583,Right,Correct,0.0,0.0,-45,45,2004,587,-0.86
"{'cat': 'II', 'resp': 'reach'}",36,354,Right,72.9341676057742,50.569376941344956,3.64670838028871,0.7943419154777119,Left,Incorrect,0.0,0.0,-45,45,2012,567,-2.49
"{'cat': 'II', 'resp': 'reach'}",36,355,Left,31.428096459508687,49.16777204418018,1.5714048229754343,0.7723255572368704,Right,Incorrect,0.0,0.0,-45,45,2004,725,-0.78
"{'cat': 'II', 'resp': 'reach'}",36,356,Right,42.28251456434833,29.999571918136226,2.1141257282174166,0.4712321737442771,Right,Correct,0.0,0.0,-45,45,2012,758,-0.92
"{'cat': 'II', 'resp': 'reach'}",36,357,Right,42.36724410756017,30.765773507783226,2.1183622053780082,0.48326764017029633,Right,Correct,0.0,0.0,-45,45,2004,554,-0.94
"{'cat': 'II', 'resp': 'reach'}",36,358,Left,41.16306522483157,48.1484141509266,2.0581532612415785,0.7563135208927493,Left,Correct,0.0,0.0,-45,45,2004,567,-2.41
"{'cat': 'II', 'resp': 'reach'}",36,359,Right,31.17879941216808,15.583638315008006,1.558939970608404,0.2447872182331479,Right,Correct,0.0,0.0,-45,45,2004,483,-1.04
"{'cat': 'II', 'resp': 'reach'}",36,360,Left,19.13989379150539,37.372522143164616,0.9569946895752695,0.5870462050554391,Right,Incorrect,0.0,0.0,-45,45,2009,583,-1.0
"{'cat': 'II', 'resp': 'reach'}",36,361,Left,61.560092098365004,78.84376441721264,3.07800460491825,1.2384749553723977,Left,Correct,0.0,0.0,-45,45,2003,776,-2.38
"{'cat': 'II', 'resp': 'reach'}",36,362,Right,53.10421180824391,40.96460586001882,2.6552105904121954,0.6434705241351826,Right,Correct,0.0,0.0,-45,45,2004,471,-0.83
"{'cat': 'II', 'resp': 'reach'}",36,363,Left,53.236353212198836,60.94725371217865,2.6618176606099415,0.9573572225932685,Right,Incorrect,0.0,0.0,-45,45,2004,525,-0.89
"{'cat': 'II', 'resp': 'reach'}",36,364,Right,86.20902041048532,65.931449173968,4.310451020524266,1.0356487818273334,Left,Incorrect,0.0,0.0,-45,45,2004,467,-2.53
"{'cat': 'II', 'resp': 'reach'}",36,365,Left,68.49046606771888,85.89629698264852,3.4245233033859446,1.3492558778562784,Right,Incorrect,0.0,0.0,-45,45,2004,521,-0.93
"{'cat': 'II', 'resp': 'reach'}",36,366,Right,68.38488892561898,57.3292808239379,3.4192444462809486,0.9005262373603475,Left,Incorrect,0.0,0.0,-45,45,2004,500,-2.46
"{'cat': 'II', 'resp': 'reach'}",36,367,Right,59.73944598506035,36.138761592518364,2.9869722992530177,0.5676663396444434,Right,Correct,0.0,0.0,-45,45,2004,434,-0.84
"{'cat': 'II', 'resp': 'reach'}",36,368,Right,70.34077259249884,38.295326135780186,3.5170386296249423,0.6015415762749612,Right,Correct,0.0,0.0,-45,45,2004,413,-0.8
"{'cat': 'II', 'resp': 'reach'}",36,369,Left,34.61771590578057,53.085817340194836,1.7308857952890286,0.8338700688288287,Left,Correct,0.0,0.0,-45,45,2004,517,-2.56
"{'cat': 'II', 'resp': 'reach'}",36,370,Right,44.910284636275534,35.895313016709395,2.245514231813777,0.5638422583580016,Right,Correct,0.0,0.0,-45,45,2013,587,-0.9
"{'cat': 'II', 'resp': 'reach'}",36,371,Left,55.93146032125371,64.05163060423399,2.796573016062686,1.0061206607835433,Left,Correct,0.0,0.0,-45,45,2004,505,-2.46
"{'cat': 'II', 'resp': 'reach'}",36,372,Right,40.40521013556945,28.219976349920415,2.0202605067784725,0.4432783519269384,Right,Correct,0.0,0.0,-45,45,2008,450,-0.82
"{'cat': 'II', 'resp': 'reach'}",36,373,Right,77.46122823232393,45.3576818704237,3.873061411616197,0.7124768007399301,Right,Correct,0.0,0.0,-45,45,2013,433,-0.86
"{'cat': 'II', 'resp': 'reach'}",36,374,Right,81.97979099161485,65.54567467988495,4.098989549580742,1.0295890502445655,Left,Incorrect,0.0,0.0,-45,45,2005,512,-2.47
"{'cat': 'II', 'resp': 'reach'}",36,375,Left,51.386807343270945,73.49386767784829,2.5693403671635475,1.1544389739031427,Left,Correct,0.0,0.0,-45,45,2004,555,-2.65
"{'cat': 'II', 'resp': 'reach'}",36,376,Left,35.163858226527765,44.974388725816894,1.7581929113263883,0.7064560461035898,Right,Incorrect,0.0,0.0,-45,45,2004,555,-0.88
"{'cat': 'II', 'resp': 'reach'}",36,377,Left,37.47967579877373,57.85273153512009,1.8739837899386862,0.9087485819041792,Left,Correct,0.0,0.0,-45,45,2004,646,-2.47
"{'cat': 'II', 'resp': 'reach'}",36,378,Left,45.91603389474572,65.30002001500637,2.2958016947372863,1.0257303157920523,Right,Incorrect,0.0,0.0,-45,45,2004,637,-0.77
"{'cat': 'II', 'resp': 'reach'}",36,379,Right,77.70645374884617,56.83233247804796,3.885322687442309,0.8927201909970404,Left,Incorrect,0.0,0.0,-45,45,2004,525,-2.43
"{'cat': 'II', 'resp': 'reach'}",36,380,Right,71.91493172890513,48.643149785879714,3.5957465864452565,0.7640848100739382,Right,Correct,0.0,0.0,-45,45,2004,421,-0.81
"{'cat': 'II', 'resp': 'reach'}",36,381,Left,17.390919889030215,45.94228286781672,0.8695459944515107,0.7216596917333861,Right,Incorrect,0.0,0.0,-45,45,2004,675,-0.66
"{'cat': 'II', 'resp': 'reach'}",36,382,Left,52.4520753137603,83.009827219351,2.6226037656880146,1.3039153168403557,Left,Correct,0.0,0.0,-45,45,2004,1917,-2.6
"{'cat': 'II', 'resp': 'reach'}",36,383,Right,61.887562803626885,37.11699633209761,3.094378140181344,0.5830324150011857,Right,Correct,0.0,0.0,-45,45,2004,2088,-0.84
"{'cat': 'II', 'resp': 'reach'}",36,384,Right,61.43920661803716,53.24905660765748,3.0719603309018577,0.8364342252460188,Right,Correct,0.0,0.0,-45,45,2004,1750,-0.89
"{'cat': 'II', 'resp': 'reach'}",36,385,Right,70.48634705395,54.532234957498765,3.5243173526975,0.8565903436315531,Left,Incorrect,0.0,0.0,-45,45,2004,2096,-2.53
"{'cat': 'II', 'resp': 'reach'}",36,386,Right,63.09173648196126,52.428361329113905,3.1545868240980632,0.8235427739564773,Right,Correct,0.0,0.0,-45,45,2004,925,-1.0
"{'cat': 'II', 'resp': 'reach'}",36,387,Right,60.458426538636964,42.79340971210774,3.0229213269318485,0.672197307868079,Right,Correct,0.0,0.0,-45,45,2012,467,-0.85
"{'cat': 'II', 'resp': 'reach'}",36,388,Left,34.987397886293564,61.27957871124333,1.7493698943146783,0.9625773714715976,Right,Incorrect,0.0,0.0,-45,45,2004,850,-0.88
"{'cat': 'II', 'resp': 'reach'}",36,389,Left,32.32953821786828,44.57385348622737,1.616476910893414,0.7001644532725985,Left,Correct,0.0,0.0,-45,45,2004,675,-2.48
"{'cat': 'II', 'resp': 'reach'}",36,390,Left,16.003001587077627,43.28640976157115,0.8001500793538813,0.6799413345361472,Right,Incorrect,0.0,0.0,-45,45,2004,646,-0.89
"{'cat': 'II', 'resp': 'reach'}",36,391,Right,74.0560884489259,45.850867897116764,3.7028044224462953,0.7202237487314906,Left,Incorrect,0.0,0.0,-45,45,2004,567,-2.5
"{'cat': 'II', 'resp': 'reach'}",36,392,Right,54.7932508871376,36.98369344331769,2.7396625443568805,0.5809384981207192,Left,Incorrect,0.0,0.0,-45,45,2004,487,-2.47
"{'cat': 'II', 'resp': 'reach'}",36,393,Left,10.22660042107001,31.96566544068714,0.5113300210535006,0.5021154985778592,Right,Incorrect,0.0,0.0,-45,45,2017,433,-0.91
"{'cat': 'II', 'resp': 'reach'}",36,394,Left,58.94096000048294,71.10049138131166,2.947048000024147,1.1168439069507654,Right,Incorrect,0.0,0.0,-45,45,2004,433,-0.92
"{'cat': 'II', 'resp': 'reach'}",36,395,Right,61.468286835112046,29.340331864594408,3.073414341755602,0.4608768551984815,Right,Correct,0.0,0.0,-45,45,2009,512,-0.76
"{'cat': 'II', 'resp': 'reach'}",36,396,Right,83.41208513511279,59.147501349120105,4.170604256755639,0.9290867785829405,Left,Incorrect,0.0,0.0,-45,45,2004,1250,-2.56
"{'cat': 'II', 'resp': 'reach'}",36,397,Left,37.088609102372914,51.928680454424565,1.8544304551186457,0.8156938051311605,Right,Incorrect,0.0,0.0,-45,45,2004,575,-0.81
"{'cat': 'II', 'resp': 'reach'}",36,398,Left,45.139554251776396,62.44625000573575,2.2569777125888195,0.9809034013112552,Left,Correct,0.0,0.0,-45,45,2004,533,-2.47
"{'cat': 'II', 'resp': 'reach'}",36,399,Right,46.313447687178986,34.39305618240714,2.3156723843589493,0.5402448631857565,Right,Correct,0.0,0.0,-45,45,2004,471,-0.8
