condition,subject,trial,cat,x,y,xt,yt,resp,fb,rotation,su,target_angle_left,target_angle_right,rt,mt,ep
"{'cat': 'II', 'resp': 'reach'}",44,0,Right,43.027750378178695,28.260346188067036,2.1513875189089346,0.44391247986167853,Right,Correct,0.0,0.0,-45,45,2012,2871,-1.04
"{'cat': 'II', 'resp': 'reach'}",44,1,Left,45.686602070431036,72.0764331806604,2.284330103521552,1.1321739648865914,Right,Incorrect,0.0,0.0,-45,45,2009,1529,-0.98
"{'cat': 'II', 'resp': 'reach'}",44,2,Left,48.084453447284915,79.80407055249549,2.404222672364246,1.253559408871407,Right,Incorrect,0.0,0.0,-45,45,2008,5492,-1.0
"{'cat': 'II', 'resp': 'reach'}",44,3,Left,46.757826893144966,55.06540905008524,2.3378913446572485,0.8649654226933237,Right,Incorrect,0.0,0.0,-45,45,2013,6429,-1.03
"{'cat': 'II', 'resp': 'reach'}",44,4,Right,66.36777723824902,37.026920139823616,3.318388861912451,0.5816175014816292,Left,Incorrect,0.0,0.0,-45,45,2009,1954,-2.57
"{'cat': 'II', 'resp': 'reach'}",44,5,Left,48.40846333040404,76.0834197894437,2.420423166520202,1.195115563352523,Right,Incorrect,0.0,0.0,-45,45,2017,2246,-1.01
"{'cat': 'II', 'resp': 'reach'}",44,6,Left,41.39980336570913,62.70817151120838,2.069990168285457,0.985017654698305,Left,Correct,0.0,0.0,-45,45,2004,4704,-2.46
"{'cat': 'II', 'resp': 'reach'}",44,7,Left,23.98492540104444,34.551638136180856,1.199246270052222,0.5427358626905935,Left,Correct,0.0,0.0,-45,45,2004,3321,-2.57
"{'cat': 'II', 'resp': 'reach'}",44,8,Right,52.214628187156976,38.464599818482384,2.6107314093578484,0.6042005210650777,Right,Correct,0.0,0.0,-45,45,2004,1925,-1.04
"{'cat': 'II', 'resp': 'reach'}",44,9,Left,50.23973392235216,67.7145327388042,2.5119866961176083,1.063657392967464,Right,Incorrect,0.0,0.0,-45,45,2004,1884,-1.03
"{'cat': 'II', 'resp': 'reach'}",44,10,Right,50.1751771374808,19.826901269116505,2.50875885687404,0.3114402368525328,Right,Correct,0.0,0.0,-45,45,2004,2475,-1.05
"{'cat': 'II', 'resp': 'reach'}",44,11,Left,20.753159641448054,51.12545316283762,1.0376579820724026,0.8030767403390987,Left,Correct,0.0,0.0,-45,45,2004,5120,-2.38
"{'cat': 'II', 'resp': 'reach'}",44,12,Right,66.95939679504565,38.54276230767855,3.347969839752283,0.6054282945743025,Left,Incorrect,0.0,0.0,-45,45,2012,4779,-2.45
"{'cat': 'II', 'resp': 'reach'}",44,13,Left,43.81719962044049,57.35205629774321,2.190859981022024,0.9008839936662916,Right,Incorrect,0.0,0.0,-45,45,2004,3063,-1.04
"{'cat': 'II', 'resp': 'reach'}",44,14,Left,30.868063671245892,42.656476546599805,1.5434031835622946,0.6700463667341163,Left,Correct,0.0,0.0,-45,45,2013,5633,-2.47
"{'cat': 'II', 'resp': 'reach'}",44,15,Right,71.84860485070658,41.37891825827165,3.592430242535329,0.6499785280683938,Left,Incorrect,0.0,0.0,-45,45,2004,4833,-2.44
"{'cat': 'II', 'resp': 'reach'}",44,16,Right,61.51737397102112,30.439299093576864,3.075868698551056,0.4781393920640176,Left,Incorrect,0.0,0.0,-45,45,2017,2283,-2.55
"{'cat': 'II', 'resp': 'reach'}",44,17,Right,72.48896616909195,51.58280183469446,3.6244483084545975,0.8102607564772711,Right,Correct,0.0,0.0,-45,45,2004,2058,-1.02
"{'cat': 'II', 'resp': 'reach'}",44,18,Left,67.70443225364727,82.06261654692744,3.3852216126823635,1.2890365663909173,Left,Correct,0.0,0.0,-45,45,2017,2787,-2.27
"{'cat': 'II', 'resp': 'reach'}",44,19,Left,12.17305477714379,37.49313386511465,0.6086527388571895,0.5889407695535144,Left,Correct,0.0,0.0,-45,45,2004,10204,-2.41
"{'cat': 'II', 'resp': 'reach'}",44,20,Right,39.70825670282831,15.540640335835164,1.9854128351414153,0.24411180755570483,Left,Incorrect,0.0,0.0,-45,45,2008,4804,-2.52
"{'cat': 'II', 'resp': 'reach'}",44,21,Left,35.83253582179922,47.69230730826733,1.7916267910899608,0.7491490113619973,Left,Correct,0.0,0.0,-45,45,2004,2717,-2.55
"{'cat': 'II', 'resp': 'reach'}",44,22,Right,85.80606548597575,66.74418627085578,4.290303274298788,1.048415226291746,Left,Incorrect,0.0,0.0,-45,45,2005,5279,-2.37
"{'cat': 'II', 'resp': 'reach'}",44,23,Right,56.69767338966479,24.806907912547185,2.8348836694832396,0.3896659982816837,Left,Incorrect,0.0,0.0,-45,45,2004,2496,-2.52
"{'cat': 'II', 'resp': 'reach'}",44,24,Left,50.43550597386339,77.41880804109033,2.5217752986931696,1.216091792957839,Right,Incorrect,0.0,0.0,-45,45,2004,2416,-0.95
"{'cat': 'II', 'resp': 'reach'}",44,25,Right,80.45868115000906,57.65225974298231,4.022934057500453,0.905599578357019,Right,Correct,0.0,0.0,-45,45,2004,3100,-1.06
"{'cat': 'II', 'resp': 'reach'}",44,26,Right,75.8123289732329,59.326855186963755,3.7906164486616443,0.9319040620797542,Right,Correct,0.0,0.0,-45,45,2008,2679,-0.96
"{'cat': 'II', 'resp': 'reach'}",44,27,Right,81.50688335378499,51.124930209755014,4.0753441676892495,0.8030685258112862,Right,Correct,0.0,0.0,-45,45,2004,3909,-0.96
"{'cat': 'II', 'resp': 'reach'}",44,28,Right,55.8261011269159,28.71754110198829,2.791305056345795,0.4510940807758467,Right,Correct,0.0,0.0,-45,45,2004,4796,-0.94
"{'cat': 'II', 'resp': 'reach'}",44,29,Right,44.72133555679488,27.51550414951344,2.236066777839744,0.43221252847965447,Left,Incorrect,0.0,0.0,-45,45,2005,6437,-2.42
"{'cat': 'II', 'resp': 'reach'}",44,30,Right,80.83196963019245,54.46544170562964,4.041598481509623,0.8555411576846459,Left,Incorrect,0.0,0.0,-45,45,2004,2579,-2.57
"{'cat': 'II', 'resp': 'reach'}",44,31,Right,69.29710467742947,54.18820723438708,3.4648552338714738,0.8511863687937586,Right,Correct,0.0,0.0,-45,45,2004,2287,-0.99
"{'cat': 'II', 'resp': 'reach'}",44,32,Right,85.00520199252188,61.10014297213279,4.250260099626093,0.9597588014726919,Right,Correct,0.0,0.0,-45,45,2008,3496,-0.99
"{'cat': 'II', 'resp': 'reach'}",44,33,Left,46.91945359359205,62.28230550391228,2.3459726796796025,0.97832816709863,Right,Incorrect,0.0,0.0,-45,45,2005,2608,-0.91
"{'cat': 'II', 'resp': 'reach'}",44,34,Left,55.498626247408126,81.59568379948097,2.7749313123704065,1.2817020039454254,Right,Incorrect,0.0,0.0,-45,45,2012,2854,-0.91
"{'cat': 'II', 'resp': 'reach'}",44,35,Left,34.96895780070541,49.58272885668781,1.7484478900352707,0.7788436836055252,Left,Correct,0.0,0.0,-45,45,2003,4363,-2.41
"{'cat': 'II', 'resp': 'reach'}",44,36,Left,52.43366900617869,65.38280010492423,2.621683450308934,1.0270306224037997,Right,Incorrect,0.0,0.0,-45,45,2013,4183,-1.02
"{'cat': 'II', 'resp': 'reach'}",44,37,Left,58.48916878902405,68.70043143085475,2.9244584394512025,1.079143853408113,Left,Correct,0.0,0.0,-45,45,2004,2788,-2.42
"{'cat': 'II', 'resp': 'reach'}",44,38,Left,40.80904721313087,64.93284307557126,2.0404523606565435,1.0199627139145675,Left,Correct,0.0,0.0,-45,45,2013,3358,-2.41
"{'cat': 'II', 'resp': 'reach'}",44,39,Left,42.83303872552939,70.73841337111949,2.141651936276469,1.111156398866535,Left,Correct,0.0,0.0,-45,45,2012,2259,-2.51
"{'cat': 'II', 'resp': 'reach'}",44,40,Right,55.92186864476761,44.7082208445419,2.796093432238381,0.7022750908014145,Left,Incorrect,0.0,0.0,-45,45,2012,1554,-2.43
"{'cat': 'II', 'resp': 'reach'}",44,41,Right,37.65320980719906,14.932037036316178,1.882660490359953,0.23455188928210807,Left,Incorrect,0.0,0.0,-45,45,2016,8817,-2.58
"{'cat': 'II', 'resp': 'reach'}",44,42,Right,40.576058258431104,17.70520336171069,2.028802912921555,0.27811268405731804,Left,Incorrect,0.0,0.0,-45,45,2008,7354,-2.67
"{'cat': 'II', 'resp': 'reach'}",44,43,Left,42.39870367196389,65.14076001371222,2.1199351835981943,1.0232286655416705,Right,Incorrect,0.0,0.0,-45,45,2004,2004,-0.79
"{'cat': 'II', 'resp': 'reach'}",44,44,Right,66.02129950932712,47.79117533993046,3.3010649754663564,0.750702026771736,Right,Correct,0.0,0.0,-45,45,2008,2455,-0.86
"{'cat': 'II', 'resp': 'reach'}",44,45,Left,28.132590666400446,60.889933234872025,1.4066295333200225,0.9564568346412347,Right,Incorrect,0.0,0.0,-45,45,2012,6083,-0.88
"{'cat': 'II', 'resp': 'reach'}",44,46,Right,42.03769959262881,19.688943599113788,2.101884979631441,0.3092732028395983,Left,Incorrect,0.0,0.0,-45,45,2004,1558,-2.41
"{'cat': 'II', 'resp': 'reach'}",44,47,Left,31.81187428852666,62.55339334147542,1.5905937144263331,0.9825864048934594,Left,Correct,0.0,0.0,-45,45,2008,4167,-2.47
"{'cat': 'II', 'resp': 'reach'}",44,48,Right,50.201121777884474,43.05115162803188,2.5100560888942236,0.676245908416026,Left,Incorrect,0.0,0.0,-45,45,2004,3958,-2.42
"{'cat': 'II', 'resp': 'reach'}",44,49,Left,60.98040377381226,71.86099115611395,3.049020188690613,1.1287898094786435,Right,Incorrect,0.0,0.0,-45,45,2004,2962,-0.83
"{'cat': 'II', 'resp': 'reach'}",44,50,Right,65.88789807528269,41.63596429177262,3.2943949037641347,0.6540161977207991,Left,Incorrect,0.0,0.0,-45,45,2004,4725,-2.69
"{'cat': 'II', 'resp': 'reach'}",44,51,Left,37.533777015518,63.32948115420802,1.8766888507759,0.9947771637485658,Right,Incorrect,0.0,0.0,-45,45,2004,1883,-0.99
"{'cat': 'II', 'resp': 'reach'}",44,52,Left,23.98373344132069,38.862818951872924,1.1991866720660347,0.6104557325849709,Right,Incorrect,0.0,0.0,-45,45,2004,2129,2.99
"{'cat': 'II', 'resp': 'reach'}",44,53,Left,47.737119007182905,55.6565031219156,2.3868559503591453,0.8742503066615371,Left,Correct,0.0,0.0,-45,45,2013,2037,-2.45
"{'cat': 'II', 'resp': 'reach'}",44,54,Right,69.84703842524598,57.83052909699465,3.492351921262299,0.9083998268216459,Left,Incorrect,0.0,0.0,-45,45,2004,5450,-2.51
"{'cat': 'II', 'resp': 'reach'}",44,55,Left,57.948611547936636,68.65310803760386,2.897430577396832,1.0784004992852134,Right,Incorrect,0.0,0.0,-45,45,2004,1467,-0.98
"{'cat': 'II', 'resp': 'reach'}",44,56,Left,25.46526696370252,54.597705273820324,1.2732633481851259,0.8576187489554733,Right,Incorrect,0.0,0.0,-45,45,2013,5795,-0.98
"{'cat': 'II', 'resp': 'reach'}",44,57,Right,75.68110819586389,43.965508043434,3.7840554097931944,0.6906085854029761,Left,Incorrect,0.0,0.0,-45,45,2004,2671,-2.44
"{'cat': 'II', 'resp': 'reach'}",44,58,Left,64.30522628111963,75.84311653229466,3.2152613140559816,1.1913408886160575,Right,Incorrect,0.0,0.0,-45,45,2004,2408,-0.93
"{'cat': 'II', 'resp': 'reach'}",44,59,Left,54.975825038972864,77.69942855421958,2.7487912519486435,1.2204997696703062,Left,Correct,0.0,0.0,-45,45,2012,2350,-2.4
"{'cat': 'II', 'resp': 'reach'}",44,60,Left,15.647567027207756,43.46127455394451,0.7823783513603878,0.6826881042716054,Right,Incorrect,0.0,0.0,-45,45,2004,3012,-1.0
"{'cat': 'II', 'resp': 'reach'}",44,61,Left,49.13612711675701,77.75623241965451,2.45680635583785,1.2213920427020357,Left,Correct,0.0,0.0,-45,45,2013,3358,-2.41
"{'cat': 'II', 'resp': 'reach'}",44,62,Right,63.677730792380416,49.07154876066805,3.183886539619021,0.7708140854339405,Left,Incorrect,0.0,0.0,-45,45,2004,5158,-2.53
"{'cat': 'II', 'resp': 'reach'}",44,63,Left,25.29365370115636,40.88106391018991,1.264682685057818,0.6421582502559372,Right,Incorrect,0.0,0.0,-45,45,2008,3009,-0.98
"{'cat': 'II', 'resp': 'reach'}",44,64,Right,84.77411384023694,60.190394695853826,4.238705692011847,0.9454685089658222,Left,Incorrect,0.0,0.0,-45,45,2008,1971,-2.44
"{'cat': 'II', 'resp': 'reach'}",44,65,Right,47.84302970181244,37.48468619823593,2.392151485090622,0.5888080739124835,Right,Correct,0.0,0.0,-45,45,2009,2558,-1.01
"{'cat': 'II', 'resp': 'reach'}",44,66,Right,84.36836060468525,67.51905339803187,4.218418030234262,1.0605868106629694,Right,Correct,0.0,0.0,-45,45,2005,1800,-1.05
"{'cat': 'II', 'resp': 'reach'}",44,67,Left,36.012884304377216,57.40213362842684,1.8006442152188609,0.901670606537227,Right,Incorrect,0.0,0.0,-45,45,2009,1458,-0.98
"{'cat': 'II', 'resp': 'reach'}",44,68,Right,41.42645467712033,32.7057659610541,2.0713227338560163,0.5137409703663733,Right,Correct,0.0,0.0,-45,45,2004,1554,-1.01
"{'cat': 'II', 'resp': 'reach'}",44,69,Right,43.47751317354218,28.54162645987072,2.173875658677109,0.44833082003916946,Right,Correct,0.0,0.0,-45,45,2013,1916,-0.84
"{'cat': 'II', 'resp': 'reach'}",44,70,Left,48.83729994969274,56.16617949032652,2.4418649974846374,0.8822562843350776,Right,Incorrect,0.0,0.0,-45,45,2009,2146,-0.89
"{'cat': 'II', 'resp': 'reach'}",44,71,Right,76.99320062768645,57.49791103676026,3.849660031384323,0.9031750745492276,Right,Correct,0.0,0.0,-45,45,2008,4854,-0.95
"{'cat': 'II', 'resp': 'reach'}",44,72,Left,52.538764521227506,66.60049277432807,2.6269382260613754,1.046158094126446,Right,Incorrect,0.0,0.0,-45,45,2004,3704,-0.9
"{'cat': 'II', 'resp': 'reach'}",44,73,Left,48.569757071630015,59.41569765604577,2.4284878535815007,0.9332995963207285,Right,Incorrect,0.0,0.0,-45,45,2004,1621,-0.89
"{'cat': 'II', 'resp': 'reach'}",44,74,Left,43.61391213405187,56.36648119652179,2.1806956067025935,0.8854026161785004,Right,Incorrect,0.0,0.0,-45,45,2004,2388,-0.96
"{'cat': 'II', 'resp': 'reach'}",44,75,Left,38.86378675243912,65.55177779142163,1.943189337621956,1.0296849176964038,Left,Correct,0.0,0.0,-45,45,2005,3529,-2.4
"{'cat': 'II', 'resp': 'reach'}",44,76,Right,68.3213216210508,52.520087195010476,3.41606608105254,0.8249836004887013,Left,Incorrect,0.0,0.0,-45,45,2004,1833,-2.44
"{'cat': 'II', 'resp': 'reach'}",44,77,Left,46.227060636029464,53.06618691645026,2.3113530318014734,0.8335617148537147,Right,Incorrect,0.0,0.0,-45,45,2004,2559,-0.87
"{'cat': 'II', 'resp': 'reach'}",44,78,Left,64.42510212490188,86.90845815813157,3.221255106245094,1.36515486842201,Left,Correct,0.0,0.0,-45,45,2008,2388,-2.35
"{'cat': 'II', 'resp': 'reach'}",44,79,Left,58.75908188687501,70.9822084256896,2.9379540943437505,1.1149859226286298,Left,Correct,0.0,0.0,-45,45,2004,3196,-2.36
"{'cat': 'II', 'resp': 'reach'}",44,80,Right,53.78988679680521,46.444571741170144,2.6894943398402607,0.7295496269059213,Left,Incorrect,0.0,0.0,-45,45,2012,1746,-2.45
"{'cat': 'II', 'resp': 'reach'}",44,81,Right,50.054124877476696,22.460360354743788,2.502706243873835,0.3528065154372126,Left,Incorrect,0.0,0.0,-45,45,2009,2004,-2.47
"{'cat': 'II', 'resp': 'reach'}",44,82,Right,88.45152924762186,65.5511964216943,4.422576462381093,1.029675785562082,Right,Correct,0.0,0.0,-45,45,2012,1333,-0.87
"{'cat': 'II', 'resp': 'reach'}",44,83,Right,60.23090432365697,28.54236707918916,3.011545216182849,0.4483424536602192,Right,Correct,0.0,0.0,-45,45,2012,1334,-0.8
"{'cat': 'II', 'resp': 'reach'}",44,84,Right,62.77366907147917,54.70759203420856,3.1386834535739587,0.8593448461512855,Right,Correct,0.0,0.0,-45,45,2013,1179,-0.93
"{'cat': 'II', 'resp': 'reach'}",44,85,Right,41.511663487953555,27.950770131018334,2.075583174397678,0.43904967052892113,Right,Correct,0.0,0.0,-45,45,2004,2175,-0.88
"{'cat': 'II', 'resp': 'reach'}",44,86,Left,49.873887892909636,60.53377817437465,2.4936943946454817,0.9508623640332478,Right,Incorrect,0.0,0.0,-45,45,2005,1733,-0.94
"{'cat': 'II', 'resp': 'reach'}",44,87,Left,28.10553276824079,38.089333319620934,1.4052766384120394,0.5983058486852703,Right,Incorrect,0.0,0.0,-45,45,2004,5163,-0.88
"{'cat': 'II', 'resp': 'reach'}",44,88,Right,33.55869073941084,10.45450605309324,1.6779345369705423,0.16421899706653875,Right,Correct,0.0,0.0,-45,45,2004,5142,-0.86
"{'cat': 'II', 'resp': 'reach'}",44,89,Left,35.534014636466345,59.859034775488944,1.7767007318233172,0.9402635195082601,Right,Incorrect,0.0,0.0,-45,45,2012,5725,-0.83
"{'cat': 'II', 'resp': 'reach'}",44,90,Right,36.01426072360697,25.37834294999118,1.8007130361803485,0.3986420788598731,Right,Correct,0.0,0.0,-45,45,2004,4804,-0.92
"{'cat': 'II', 'resp': 'reach'}",44,91,Right,80.25273668991042,58.854300812190495,4.012636834495521,0.9244811953187072,Right,Correct,0.0,0.0,-45,45,2004,2075,-0.88
"{'cat': 'II', 'resp': 'reach'}",44,92,Right,46.43005627475223,34.86439442936715,2.3215028137376117,0.5476486270557838,Right,Correct,0.0,0.0,-45,45,2004,1316,-0.92
"{'cat': 'II', 'resp': 'reach'}",44,93,Left,24.082599845856514,45.7420031098937,1.2041299922928257,0.7185137046526177,Right,Incorrect,0.0,0.0,-45,45,2004,2338,-0.89
"{'cat': 'II', 'resp': 'reach'}",44,94,Right,52.067208834649165,22.312140843239586,2.603360441732458,0.3504782887949113,Right,Correct,0.0,0.0,-45,45,2012,2230,-0.86
"{'cat': 'II', 'resp': 'reach'}",44,95,Right,57.36702754045949,44.255759619315576,2.8683513770229747,0.6951678464953882,Right,Correct,0.0,0.0,-45,45,2012,3529,-0.88
"{'cat': 'II', 'resp': 'reach'}",44,96,Left,26.614471236983775,51.520696289301526,1.3307235618491888,0.809285204851503,Right,Incorrect,0.0,0.0,-45,45,2012,2400,-0.95
"{'cat': 'II', 'resp': 'reach'}",44,97,Right,52.794760583151096,25.828915827253837,2.6397380291575545,0.40571966106544893,Right,Correct,0.0,0.0,-45,45,2008,4504,-0.97
"{'cat': 'II', 'resp': 'reach'}",44,98,Left,17.08589209802263,42.46378893039535,0.8542946049011314,0.6670196367365882,Left,Correct,0.0,0.0,-45,45,2008,3254,-2.51
"{'cat': 'II', 'resp': 'reach'}",44,99,Left,45.26188584014603,69.57441572228868,2.263094292007301,1.0928723665547215,Right,Incorrect,0.0,0.0,-45,45,2013,3004,-1.05
"{'cat': 'II', 'resp': 'reach'}",44,100,Left,27.15678922747773,52.1056246634391,1.3578394613738864,0.818473238266837,Right,Incorrect,0.0,0.0,-45,45,2012,4546,-1.02
"{'cat': 'II', 'resp': 'reach'}",44,101,Left,65.41854950434197,80.97353575330685,3.2709274752170985,1.2719293252888961,Right,Incorrect,0.0,0.0,-45,45,2004,2216,-0.94
"{'cat': 'II', 'resp': 'reach'}",44,102,Left,40.706607551596555,50.91746025157787,2.035330377579828,0.7998095953290367,Left,Correct,0.0,0.0,-45,45,2013,5050,-2.3
"{'cat': 'II', 'resp': 'reach'}",44,103,Right,38.271586410295484,13.475455592370682,1.913579320514774,0.21167196146383616,Left,Incorrect,0.0,0.0,-45,45,2008,3587,-2.24
"{'cat': 'II', 'resp': 'reach'}",44,104,Right,52.81322171595337,36.1443830484307,2.6406610857976682,0.5677546412674267,Right,Correct,0.0,0.0,-45,45,2004,4883,-0.88
"{'cat': 'II', 'resp': 'reach'}",44,105,Right,78.6909912660529,52.192308790990474,3.934549563302645,0.8198348693583282,Right,Correct,0.0,0.0,-45,45,2004,1733,-0.84
"{'cat': 'II', 'resp': 'reach'}",44,106,Left,27.20838487639267,41.73809772111348,1.3604192438196336,0.655620505877315,Left,Correct,0.0,0.0,-45,45,2008,3254,-2.53
"{'cat': 'II', 'resp': 'reach'}",44,107,Left,34.98362235538304,61.33789733620127,1.7491811177691519,0.9634934382902743,Left,Correct,0.0,0.0,-45,45,2004,2687,-2.39
"{'cat': 'II', 'resp': 'reach'}",44,108,Right,52.940829787037764,45.049636081901305,2.647041489351888,0.7076380288089741,Left,Incorrect,0.0,0.0,-45,45,2004,1746,-2.47
"{'cat': 'II', 'resp': 'reach'}",44,109,Left,22.34450939945613,49.115905650807946,1.1172254699728064,0.7715108418349381,Right,Incorrect,0.0,0.0,-45,45,2009,4358,-0.91
"{'cat': 'II', 'resp': 'reach'}",44,110,Left,30.552384870800854,43.06842817795549,1.5276192435400426,0.676517287827623,Left,Correct,0.0,0.0,-45,45,2003,2288,-2.41
"{'cat': 'II', 'resp': 'reach'}",44,111,Left,34.53082408649499,43.60830745856912,1.7265412043247494,0.6849976917366286,Left,Correct,0.0,0.0,-45,45,2004,1475,-2.47
"{'cat': 'II', 'resp': 'reach'}",44,112,Right,69.20831547076969,53.25614551857744,3.460415773538484,0.8365455775983595,Left,Incorrect,0.0,0.0,-45,45,2004,1579,-2.37
"{'cat': 'II', 'resp': 'reach'}",44,113,Right,51.933545015817685,21.487636335069148,2.596677250790884,0.33752700226631177,Right,Correct,0.0,0.0,-45,45,2004,3496,-0.83
"{'cat': 'II', 'resp': 'reach'}",44,114,Right,73.95146839520933,49.65981422623413,3.697573419760466,0.7800545377588551,Right,Correct,0.0,0.0,-45,45,2009,3183,-0.95
"{'cat': 'II', 'resp': 'reach'}",44,115,Right,44.87015886415352,36.96256662883525,2.243507943207676,0.5806066388948602,Left,Incorrect,0.0,0.0,-45,45,2008,2617,-2.56
"{'cat': 'II', 'resp': 'reach'}",44,116,Right,32.29372051192337,10.062122751144155,1.6146860255961684,0.15805545457256598,Left,Incorrect,0.0,0.0,-45,45,2009,5274,-2.42
"{'cat': 'II', 'resp': 'reach'}",44,117,Right,56.60997991079356,47.47428924728011,2.830498995539678,0.7457243916682604,Right,Correct,0.0,0.0,-45,45,2008,5883,-0.79
"{'cat': 'II', 'resp': 'reach'}",44,118,Right,67.76440034861368,40.36272948483231,3.3882200174306836,0.6340162721419066,Right,Correct,0.0,0.0,-45,45,2004,1771,-0.9
"{'cat': 'II', 'resp': 'reach'}",44,119,Right,49.846898184178336,24.433347194706293,2.4923449092089167,0.3837981202474903,Right,Correct,0.0,0.0,-45,45,2008,1729,-0.86
"{'cat': 'II', 'resp': 'reach'}",44,120,Right,66.39422054402878,33.808031349942745,3.319711027201439,0.5310553146065676,Right,Correct,0.0,0.0,-45,45,2004,1388,-0.97
"{'cat': 'II', 'resp': 'reach'}",44,121,Right,83.88379127644644,61.14711597621226,4.194189563822323,0.9604966516953577,Right,Correct,0.0,0.0,-45,45,2005,6095,-0.82
"{'cat': 'II', 'resp': 'reach'}",44,122,Left,40.933499620644014,50.55642536789556,2.0466749810322007,0.7941384726377066,Right,Incorrect,0.0,0.0,-45,45,2013,2008,-0.88
"{'cat': 'II', 'resp': 'reach'}",44,123,Right,60.062383931425295,38.277857069803645,3.0031191965712645,0.6012671728282762,Right,Correct,0.0,0.0,-45,45,2009,2333,-0.84
"{'cat': 'II', 'resp': 'reach'}",44,124,Left,33.190689065681696,45.96489716937592,1.6595344532840846,0.7220149163516083,Right,Incorrect,0.0,0.0,-45,45,2004,3346,-0.85
"{'cat': 'II', 'resp': 'reach'}",44,125,Right,48.77654105602578,41.613415286570095,2.438827052801289,0.6536619987753489,Right,Correct,0.0,0.0,-45,45,2008,3375,-0.84
"{'cat': 'II', 'resp': 'reach'}",44,126,Left,50.91517655741218,79.36029328018257,2.5457588278706087,1.246588571778765,Right,Incorrect,0.0,0.0,-45,45,2004,6246,-0.78
"{'cat': 'II', 'resp': 'reach'}",44,127,Right,84.18149894277084,68.12040032479338,4.209074947138543,1.0700327460998333,Left,Incorrect,0.0,0.0,-45,45,2012,2217,-2.34
"{'cat': 'II', 'resp': 'reach'}",44,128,Right,59.1635319055198,43.641973679550496,2.95817659527599,0.6855265194991748,Right,Correct,0.0,0.0,-45,45,2004,1621,-0.9
"{'cat': 'II', 'resp': 'reach'}",44,129,Left,18.632788072184507,45.96270497291856,0.9316394036092254,0.72198048141018,Right,Incorrect,0.0,0.0,-45,45,2004,5046,-0.84
"{'cat': 'II', 'resp': 'reach'}",44,130,Right,56.62976085151573,35.965186813416494,2.8314880425757862,0.5649398333900688,Right,Correct,0.0,0.0,-45,45,2013,1904,-0.85
"{'cat': 'II', 'resp': 'reach'}",44,131,Right,51.62201237782802,41.09132276640434,2.5811006188914014,0.6454609886461145,Right,Correct,0.0,0.0,-45,45,2004,2158,-0.82
"{'cat': 'II', 'resp': 'reach'}",44,132,Left,51.41023522573437,65.34159958914492,2.5705117612867183,1.0263834462153176,Right,Incorrect,0.0,0.0,-45,45,2005,1129,-0.85
"{'cat': 'II', 'resp': 'reach'}",44,133,Right,49.67451379041571,37.09319386091701,2.4837256895207855,0.5826585266581945,Right,Correct,0.0,0.0,-45,45,2009,2454,-0.89
"{'cat': 'II', 'resp': 'reach'}",44,134,Left,49.246064216580365,67.20693132095695,2.462303210829018,1.0556840085411607,Right,Incorrect,0.0,0.0,-45,45,2004,4384,-0.9
"{'cat': 'II', 'resp': 'reach'}",44,135,Left,24.872825422456522,41.19488436247256,1.243641271122826,0.6470877303931241,Right,Incorrect,0.0,0.0,-45,45,2012,5362,-0.86
"{'cat': 'II', 'resp': 'reach'}",44,136,Right,79.56324353970246,67.17622576894624,3.9781621769851228,1.0552016868580543,Left,Incorrect,0.0,0.0,-45,45,2013,2250,-2.37
"{'cat': 'II', 'resp': 'reach'}",44,137,Left,51.83848936866958,71.09778752290615,2.5919244684334792,1.1168014348422501,Right,Incorrect,0.0,0.0,-45,45,2012,1521,-0.96
"{'cat': 'II', 'resp': 'reach'}",44,138,Right,41.20781929133402,28.320279382535915,2.060390964566701,0.44485390827892657,Left,Incorrect,0.0,0.0,-45,45,2004,1679,-2.5
"{'cat': 'II', 'resp': 'reach'}",44,139,Right,44.132448266624664,35.350059210174194,2.206622413331233,0.5552774315932373,Left,Incorrect,0.0,0.0,-45,45,2008,2900,-2.4
"{'cat': 'II', 'resp': 'reach'}",44,140,Left,60.75453453863008,71.53214008427395,3.037726726931504,1.1236242289215548,Right,Incorrect,0.0,0.0,-45,45,2008,1592,-0.98
"{'cat': 'II', 'resp': 'reach'}",44,141,Right,58.93172750890517,39.14852737650652,2.9465863754452584,0.6149436300244588,Right,Correct,0.0,0.0,-45,45,2004,1905,-0.81
"{'cat': 'II', 'resp': 'reach'}",44,142,Left,39.480522734810584,65.7230858126182,1.9740261367405294,1.0323758178008644,Right,Incorrect,0.0,0.0,-45,45,2008,2425,-0.91
"{'cat': 'II', 'resp': 'reach'}",44,143,Right,63.78882955892492,32.708325092696704,3.189441477946246,0.5137811691122133,Left,Incorrect,0.0,0.0,-45,45,2004,1863,-2.41
"{'cat': 'II', 'resp': 'reach'}",44,144,Right,73.07833974968469,62.40996374600208,3.6539169874842345,0.9803334180762273,Left,Incorrect,0.0,0.0,-45,45,2008,2888,-2.47
"{'cat': 'II', 'resp': 'reach'}",44,145,Left,36.53315262899594,53.93706228214674,1.826657631449797,0.8472413931090366,Right,Incorrect,0.0,0.0,-45,45,2004,2338,-0.8
"{'cat': 'II', 'resp': 'reach'}",44,146,Left,42.881494533171974,72.8798156089593,2.144074726658599,1.1447934665604265,Right,Incorrect,0.0,0.0,-45,45,2012,2025,-0.86
"{'cat': 'II', 'resp': 'reach'}",44,147,Left,13.02887708354255,36.649355985126505,0.6514438541771276,0.5756867376083528,Right,Incorrect,0.0,0.0,-45,45,2004,5537,-0.93
"{'cat': 'II', 'resp': 'reach'}",44,148,Right,58.60980229688223,46.12547543693486,2.9304901148441114,0.724537273880055,Left,Incorrect,0.0,0.0,-45,45,2004,2387,-2.47
"{'cat': 'II', 'resp': 'reach'}",44,149,Left,41.490489782316494,69.80824323350079,2.074524489115825,1.0965453205118774,Right,Incorrect,0.0,0.0,-45,45,2012,1363,-0.93
"{'cat': 'II', 'resp': 'reach'}",44,150,Right,67.9277315342768,38.96342434543832,3.39638657671384,0.6120360384116535,Right,Correct,0.0,0.0,-45,45,2005,6124,-0.91
"{'cat': 'II', 'resp': 'reach'}",44,151,Left,64.35237873345751,83.46522257572374,3.2176189366728756,1.3110686503706535,Right,Incorrect,0.0,0.0,-45,45,2004,1663,-0.85
"{'cat': 'II', 'resp': 'reach'}",44,152,Right,51.08031062443286,42.237270405702034,2.554015531221643,0.6634614920711954,Right,Correct,0.0,0.0,-45,45,2004,2458,-0.91
"{'cat': 'II', 'resp': 'reach'}",44,153,Left,16.613023301044308,43.16503068462064,0.8306511650522154,0.678034716453911,Left,Correct,0.0,0.0,-45,45,2004,5571,-2.29
"{'cat': 'II', 'resp': 'reach'}",44,154,Right,55.42460820687618,38.33998307041107,2.771230410343809,0.6022430457638024,Right,Correct,0.0,0.0,-45,45,2012,3337,-0.94
"{'cat': 'II', 'resp': 'reach'}",44,155,Left,60.9911623418061,78.13657100452949,3.049558117090305,1.2273663872226355,Right,Incorrect,0.0,0.0,-45,45,2012,2613,-0.86
"{'cat': 'II', 'resp': 'reach'}",44,156,Right,42.39426510312208,24.63457317446863,2.119713255156104,0.3869589705461542,Left,Incorrect,0.0,0.0,-45,45,2004,5825,-2.5
"{'cat': 'II', 'resp': 'reach'}",44,157,Right,45.60814546566875,19.00417574949865,2.2804072732834375,0.2985168946107713,Right,Correct,0.0,0.0,-45,45,2004,2563,-0.91
"{'cat': 'II', 'resp': 'reach'}",44,158,Left,45.576183740278864,72.9181792639092,2.278809187013943,1.1453960814432036,Right,Incorrect,0.0,0.0,-45,45,2004,2425,-0.97
"{'cat': 'II', 'resp': 'reach'}",44,159,Right,67.79994818051236,45.440713623022205,3.3899974090256184,0.713781060459821,Right,Correct,0.0,0.0,-45,45,2013,2733,-0.96
"{'cat': 'II', 'resp': 'reach'}",44,160,Left,28.75654565944029,59.816125019807394,1.4378272829720147,0.9395894946421777,Left,Correct,0.0,0.0,-45,45,2004,3483,-2.42
"{'cat': 'II', 'resp': 'reach'}",44,161,Left,21.80340602471983,52.93667669743967,1.0901703012359916,0.8315273730906724,Left,Correct,0.0,0.0,-45,45,2004,4262,-2.08
"{'cat': 'II', 'resp': 'reach'}",44,162,Right,62.54794968511162,53.865179250208385,3.127397484255581,0.8461122570837603,Left,Incorrect,0.0,0.0,-45,45,2005,1954,-2.51
"{'cat': 'II', 'resp': 'reach'}",44,163,Right,68.97118072129571,56.69321426191847,3.4485590360647853,0.8905349271681757,Left,Incorrect,0.0,0.0,-45,45,2004,2500,-2.48
"{'cat': 'II', 'resp': 'reach'}",44,164,Right,43.029243777248055,28.738567825607028,2.1514621888624026,0.4514243677780952,Right,Correct,0.0,0.0,-45,45,2004,2005,-0.86
"{'cat': 'II', 'resp': 'reach'}",44,165,Right,51.5972598297725,23.67450787889193,2.579862991488625,0.3718783001484029,Right,Correct,0.0,0.0,-45,45,2012,1263,-0.86
"{'cat': 'II', 'resp': 'reach'}",44,166,Right,73.09556989516574,41.5384930616539,3.654778494758287,0.6524851232184125,Right,Correct,0.0,0.0,-45,45,2005,1625,-0.87
"{'cat': 'II', 'resp': 'reach'}",44,167,Right,55.27399472409826,22.99544956444594,2.763699736204913,0.36121167708828983,Right,Correct,0.0,0.0,-45,45,2004,2217,-0.88
"{'cat': 'II', 'resp': 'reach'}",44,168,Right,43.36281340959933,17.071894375741792,2.168140670479967,0.2681646897684566,Right,Correct,0.0,0.0,-45,45,2009,2233,-0.88
"{'cat': 'II', 'resp': 'reach'}",44,169,Right,52.38031060237801,23.37241334806061,2.6190155301189004,0.36713301035465623,Right,Correct,0.0,0.0,-45,45,2004,3271,-0.88
"{'cat': 'II', 'resp': 'reach'}",44,170,Right,68.28621048970287,43.26234995476227,3.4143105244851433,0.6795634039745593,Right,Correct,0.0,0.0,-45,45,2004,1579,-0.89
"{'cat': 'II', 'resp': 'reach'}",44,171,Left,23.84450887138438,45.58128611115985,1.192225443569219,0.7159891679399712,Left,Correct,0.0,0.0,-45,45,2005,3754,-2.45
"{'cat': 'II', 'resp': 'reach'}",44,172,Left,48.89658340465753,79.10558157730966,2.444829170232876,1.2425875697061208,Right,Incorrect,0.0,0.0,-45,45,2009,1733,-0.84
"{'cat': 'II', 'resp': 'reach'}",44,173,Right,54.60817489020442,36.01531227242567,2.7304087445102208,0.565727202258974,Right,Correct,0.0,0.0,-45,45,2012,1263,-0.87
"{'cat': 'II', 'resp': 'reach'}",44,174,Right,72.12106205096505,55.81487990074316,3.6060531025482527,0.8767380832858566,Right,Correct,0.0,0.0,-45,45,2017,3070,-0.83
"{'cat': 'II', 'resp': 'reach'}",44,175,Left,62.999901520865414,73.15796155066963,3.1499950760432704,1.1491625727959411,Right,Incorrect,0.0,0.0,-45,45,2016,1592,-0.9
"{'cat': 'II', 'resp': 'reach'}",44,176,Left,22.690877387497157,52.73239971926082,1.1345438693748577,0.8283185978209512,Right,Incorrect,0.0,0.0,-45,45,2004,2754,-0.88
"{'cat': 'II', 'resp': 'reach'}",44,177,Right,34.75365855639954,20.997557878073533,1.7376829278199772,0.3298288678654115,Left,Incorrect,0.0,0.0,-45,45,2008,2608,-2.42
"{'cat': 'II', 'resp': 'reach'}",44,178,Left,57.04993664495339,83.29135759558896,2.8524968322476694,1.3083375856491135,Right,Incorrect,0.0,0.0,-45,45,2008,1330,-0.88
"{'cat': 'II', 'resp': 'reach'}",44,179,Left,44.360425769495336,69.06976900600719,2.218021288474767,1.0849453944720808,Right,Incorrect,0.0,0.0,-45,45,2012,6600,-0.92
"{'cat': 'II', 'resp': 'reach'}",44,180,Left,40.911652541673796,55.336113556464134,2.04558262708369,0.8692176391359913,Right,Incorrect,0.0,0.0,-45,45,2004,5671,-0.87
"{'cat': 'II', 'resp': 'reach'}",44,181,Left,14.725177057224709,34.27885242877906,0.7362588528612355,0.5384509548187046,Left,Correct,0.0,0.0,-45,45,2004,2701,-2.56
"{'cat': 'II', 'resp': 'reach'}",44,182,Left,35.11358917801408,66.91482402878064,1.755679458900704,1.0510955979253551,Left,Correct,0.0,0.0,-45,45,2004,3821,-2.47
"{'cat': 'II', 'resp': 'reach'}",44,183,Right,68.89930741538673,59.73396694308143,3.4449653707693364,0.9382989585908008,Left,Incorrect,0.0,0.0,-45,45,2009,3475,-2.76
"{'cat': 'II', 'resp': 'reach'}",44,184,Right,47.57093288790253,35.65076453912711,2.3785466443951266,0.5600008998549062,Left,Incorrect,0.0,0.0,-45,45,2004,1800,-2.69
"{'cat': 'II', 'resp': 'reach'}",44,185,Left,41.23085331733318,71.98458782056304,2.061542665866659,1.1307312613438505,Right,Incorrect,0.0,0.0,-45,45,2004,2134,-0.89
"{'cat': 'II', 'resp': 'reach'}",44,186,Left,44.28907818917583,66.5982042065646,2.2144539094587916,1.0461221453880811,Right,Incorrect,0.0,0.0,-45,45,2004,1675,-0.95
"{'cat': 'II', 'resp': 'reach'}",44,187,Right,82.0452799767187,59.15508846729135,4.102263998835935,0.9292059567564841,Left,Incorrect,0.0,0.0,-45,45,2013,5912,-2.46
"{'cat': 'II', 'resp': 'reach'}",44,188,Right,82.08741823007566,59.91110198733452,4.104370911503782,0.9410813893593949,Right,Correct,0.0,0.0,-45,45,2008,2104,-0.86
"{'cat': 'II', 'resp': 'reach'}",44,189,Left,25.503482946090458,37.83254167551543,1.2751741473045228,0.5942721749721448,Left,Correct,0.0,0.0,-45,45,2013,2558,-2.31
"{'cat': 'II', 'resp': 'reach'}",44,190,Right,73.29137948984616,57.75660099777908,3.6645689744923082,0.9072385669546984,Left,Incorrect,0.0,0.0,-45,45,2004,4654,-2.41
"{'cat': 'II', 'resp': 'reach'}",44,191,Left,17.98656309149506,35.9817413017789,0.899328154574753,0.5651998706851852,Left,Correct,0.0,0.0,-45,45,2004,1854,-2.4
"{'cat': 'II', 'resp': 'reach'}",44,192,Right,51.235839008103014,23.199726370430476,2.561791950405151,0.3644204496531889,Left,Incorrect,0.0,0.0,-45,45,2008,2466,-2.52
"{'cat': 'II', 'resp': 'reach'}",44,193,Left,40.27988298797335,50.74649487459952,2.0139941493986675,0.7971240774673697,Right,Incorrect,0.0,0.0,-45,45,2004,1434,-0.96
"{'cat': 'II', 'resp': 'reach'}",44,194,Left,22.746640249253296,34.61499446710325,1.1373320124626647,0.5437310616095145,Left,Correct,0.0,0.0,-45,45,2008,3875,-2.39
"{'cat': 'II', 'resp': 'reach'}",44,195,Right,50.64487909564193,21.30198292332025,2.5322439547820967,0.3346107652939906,Right,Correct,0.0,0.0,-45,45,2004,1713,-0.87
"{'cat': 'II', 'resp': 'reach'}",44,196,Right,78.13241281209132,49.77799660546188,3.906620640604566,0.7819109422306835,Right,Correct,0.0,0.0,-45,45,2012,2109,-0.9
"{'cat': 'II', 'resp': 'reach'}",44,197,Right,61.40353111475126,35.86948723318093,3.070176555737563,0.5634365878989703,Right,Correct,0.0,0.0,-45,45,2004,2450,-0.82
"{'cat': 'II', 'resp': 'reach'}",44,198,Left,58.160869516609765,72.42224190465122,2.908043475830488,1.1376059156207756,Left,Correct,0.0,0.0,-45,45,2004,7658,-2.48
"{'cat': 'II', 'resp': 'reach'}",44,199,Right,31.30619453002041,11.57355910047158,1.5653097265010205,0.18179704122964407,Left,Incorrect,0.0,0.0,-45,45,2004,3254,-2.3
"{'cat': 'II', 'resp': 'reach'}",44,200,Right,46.19324321997671,20.60060279671873,2.309662160998835,0.32359351202846454,Right,Correct,0.0,0.0,-45,45,2004,7334,-0.82
"{'cat': 'II', 'resp': 'reach'}",44,201,Left,30.059893952612086,38.880837763003456,1.5029946976306041,0.6107387714083412,Right,Incorrect,0.0,0.0,-45,45,2008,5017,-0.81
"{'cat': 'II', 'resp': 'reach'}",44,202,Left,48.50796326604819,56.185909059267416,2.4253981633024098,0.8825661956792936,Left,Correct,0.0,0.0,-45,45,2004,3079,-2.48
"{'cat': 'II', 'resp': 'reach'}",44,203,Left,15.947311466074193,42.292553066065764,0.7973655733037097,0.6643298700695435,Right,Incorrect,0.0,0.0,-45,45,2004,5621,-0.79
"{'cat': 'II', 'resp': 'reach'}",44,204,Left,26.22595315561104,47.21043490336909,1.311297657780552,0.7415797773260174,Right,Incorrect,0.0,0.0,-45,45,2013,5796,-0.84
"{'cat': 'II', 'resp': 'reach'}",44,205,Right,75.12889396538323,47.10103480069488,3.7564446982691613,0.7398613245317012,Right,Correct,0.0,0.0,-45,45,2004,1833,-0.81
"{'cat': 'II', 'resp': 'reach'}",44,206,Right,66.62499916122935,40.49391470793051,3.331249958061468,0.6360769248076307,Right,Correct,0.0,0.0,-45,45,2016,3129,-0.71
"{'cat': 'II', 'resp': 'reach'}",44,207,Right,46.57073815605092,33.02763606532393,2.328536907802546,0.5187968941412948,Left,Incorrect,0.0,0.0,-45,45,2004,3887,-2.37
"{'cat': 'II', 'resp': 'reach'}",44,208,Left,58.359214781873305,72.15922849452627,2.9179607390936657,1.133474510635555,Left,Correct,0.0,0.0,-45,45,2004,3342,-2.49
"{'cat': 'II', 'resp': 'reach'}",44,209,Left,62.14084855128908,77.76581924013324,3.107042427564454,1.2215426321259717,Right,Incorrect,0.0,0.0,-45,45,2008,5225,-0.92
"{'cat': 'II', 'resp': 'reach'}",44,210,Right,67.6859555283459,58.52800771905578,3.384297776417295,0.9193557953971617,Right,Correct,0.0,0.0,-45,45,2004,6259,-0.86
"{'cat': 'II', 'resp': 'reach'}",44,211,Right,51.4402151785049,28.19261137209459,2.572010758925245,0.44284850386042207,Right,Correct,0.0,0.0,-45,45,2004,3746,-0.86
"{'cat': 'II', 'resp': 'reach'}",44,212,Left,25.419498034682853,54.31673371670311,1.2709749017341425,0.8532052580569375,Left,Correct,0.0,0.0,-45,45,2004,3388,-2.47
"{'cat': 'II', 'resp': 'reach'}",44,213,Right,76.97116483839942,46.15954860607238,3.848558241919971,0.7250724939692899,Right,Correct,0.0,0.0,-45,45,2004,2980,-0.91
"{'cat': 'II', 'resp': 'reach'}",44,214,Left,27.73922200620771,58.080041189424044,1.3869611003103857,0.9123191536044358,Right,Incorrect,0.0,0.0,-45,45,2004,4983,-0.85
"{'cat': 'II', 'resp': 'reach'}",44,215,Left,46.62459713193715,66.63977395815371,2.3312298565968574,1.0467751215191006,Left,Correct,0.0,0.0,-45,45,2008,6212,-2.36
"{'cat': 'II', 'resp': 'reach'}",44,216,Right,59.095320919594286,45.47178538400178,2.9547660459797145,0.7142691345399586,Right,Correct,0.0,0.0,-45,45,2008,3467,-0.79
"{'cat': 'II', 'resp': 'reach'}",44,217,Right,81.658754392439,62.02307026401856,4.08293771962195,0.9742561094726213,Right,Correct,0.0,0.0,-45,45,2008,5258,-0.92
"{'cat': 'II', 'resp': 'reach'}",44,218,Right,79.70178367849363,66.23146289038665,3.985089183924681,1.0403613862647185,Left,Incorrect,0.0,0.0,-45,45,2004,4312,-2.46
"{'cat': 'II', 'resp': 'reach'}",44,219,Right,35.867775477428474,12.842771765082809,1.7933887738714236,0.20173378714457288,Right,Correct,0.0,0.0,-45,45,2013,5554,-0.86
"{'cat': 'II', 'resp': 'reach'}",44,220,Right,43.21652953651224,31.221884489095856,2.160826476825612,0.4904322147108633,Left,Incorrect,0.0,0.0,-45,45,2004,6942,-2.53
"{'cat': 'II', 'resp': 'reach'}",44,221,Right,74.40279314178235,61.7995181275862,3.720139657089118,0.9707445607250703,Right,Correct,0.0,0.0,-45,45,2004,2054,-0.89
"{'cat': 'II', 'resp': 'reach'}",44,222,Left,30.791320485053006,42.326131899213834,1.5395660242526503,0.664857325147214,Right,Incorrect,0.0,0.0,-45,45,2013,4291,-0.91
"{'cat': 'II', 'resp': 'reach'}",44,223,Right,50.387509054847854,35.736692582198536,2.5193754527423926,0.5613506543991589,Right,Correct,0.0,0.0,-45,45,2008,3475,-0.91
"{'cat': 'II', 'resp': 'reach'}",44,224,Right,55.12803176960465,32.94629692202815,2.7564015884802324,0.5175192218661581,Right,Correct,0.0,0.0,-45,45,2013,3337,-0.92
"{'cat': 'II', 'resp': 'reach'}",44,225,Left,19.217658635673814,35.91632538806686,0.9608829317836907,0.5641723199154571,Left,Correct,0.0,0.0,-45,45,2012,4121,-2.49
"{'cat': 'II', 'resp': 'reach'}",44,226,Left,33.335017330458236,47.72729937820822,1.6667508665229118,0.7496986655112983,Right,Incorrect,0.0,0.0,-45,45,2008,4342,-1.03
"{'cat': 'II', 'resp': 'reach'}",44,227,Left,21.79229397768077,34.68578356202172,1.0896146988840385,0.5448430141122652,Left,Correct,0.0,0.0,-45,45,2005,2979,-2.56
"{'cat': 'II', 'resp': 'reach'}",44,228,Right,40.02677674590199,29.729105592022528,2.0013388372950995,0.466983698628466,Right,Correct,0.0,0.0,-45,45,2004,4583,-0.9
"{'cat': 'II', 'resp': 'reach'}",44,229,Left,53.46340980756581,67.35173557436522,2.6731704903782907,1.0579585884347407,Right,Incorrect,0.0,0.0,-45,45,2012,2458,-0.86
"{'cat': 'II', 'resp': 'reach'}",44,230,Left,46.4262683253908,54.9346337611096,2.32131341626954,0.8629112092577388,Left,Correct,0.0,0.0,-45,45,2012,5221,-2.57
"{'cat': 'II', 'resp': 'reach'}",44,231,Left,10.078153770936623,32.97038930286333,0.5039076885468312,0.5178976640993547,Left,Correct,0.0,0.0,-45,45,2009,6658,-2.45
"{'cat': 'II', 'resp': 'reach'}",44,232,Right,57.17221375163904,36.44085379893238,2.858610687581952,0.5724115929263285,Right,Correct,0.0,0.0,-45,45,2004,2388,-0.87
"{'cat': 'II', 'resp': 'reach'}",44,233,Left,46.42148009959797,77.37791442763248,2.3210740049798986,1.2154494375797495,Left,Correct,0.0,0.0,-45,45,2004,3083,-2.37
"{'cat': 'II', 'resp': 'reach'}",44,234,Right,62.03789590720057,41.59717197696015,3.1018947953600287,0.6534068494646461,Right,Correct,0.0,0.0,-45,45,2013,2350,-0.88
"{'cat': 'II', 'resp': 'reach'}",44,235,Right,75.07255324354287,58.74736358336108,3.7536276621771436,0.9228014292562785,Right,Correct,0.0,0.0,-45,45,2009,2141,-0.84
"{'cat': 'II', 'resp': 'reach'}",44,236,Right,37.616772797780115,22.488581192854845,1.8808386398890058,0.3532498073256518,Left,Incorrect,0.0,0.0,-45,45,2004,4229,-2.42
"{'cat': 'II', 'resp': 'reach'}",44,237,Right,77.59390432996803,49.72522083625939,3.8796952164984013,0.7810819423866131,Right,Correct,0.0,0.0,-45,45,2005,2671,-0.87
"{'cat': 'II', 'resp': 'reach'}",44,238,Right,66.59962199374891,46.45048721706294,3.3299810996874455,0.7296425469839576,Right,Correct,0.0,0.0,-45,45,2004,2721,-0.82
"{'cat': 'II', 'resp': 'reach'}",44,239,Left,69.6477441916927,87.85226766709027,3.482387209584635,1.3799801935206746,Left,Correct,0.0,0.0,-45,45,2004,4120,-2.45
"{'cat': 'II', 'resp': 'reach'}",44,240,Right,50.52382765040069,22.53764279529125,2.526191382520034,0.3540204651745896,Right,Correct,0.0,0.0,-45,45,2017,5308,-0.87
"{'cat': 'II', 'resp': 'reach'}",44,241,Left,52.311849747777586,82.4405775824015,2.6155924873888794,1.29497356445286,Left,Correct,0.0,0.0,-45,45,2004,6087,-2.34
"{'cat': 'II', 'resp': 'reach'}",44,242,Left,42.52199447130128,70.40898895500426,2.126099723565064,1.1059818122386313,Right,Incorrect,0.0,0.0,-45,45,2004,4887,-0.93
"{'cat': 'II', 'resp': 'reach'}",44,243,Left,32.858327812473625,44.729941971931254,1.6429163906236812,0.7026162854725849,Right,Incorrect,0.0,0.0,-45,45,2004,4000,-0.88
"{'cat': 'II', 'resp': 'reach'}",44,244,Left,58.95002243890246,80.65125357544014,2.947501121945123,1.2668669286770513,Left,Correct,0.0,0.0,-45,45,2009,3475,-2.41
"{'cat': 'II', 'resp': 'reach'}",44,245,Left,17.399956475740602,40.713846865078686,0.8699978237870301,0.639531611053555,Right,Incorrect,0.0,0.0,-45,45,2004,6408,-0.78
"{'cat': 'II', 'resp': 'reach'}",44,246,Right,56.98272064142786,44.778823438677634,2.849136032071393,0.7033841137567205,Right,Correct,0.0,0.0,-45,45,2008,3404,-0.8
"{'cat': 'II', 'resp': 'reach'}",44,247,Left,54.108223883722985,66.59873997701956,2.705411194186149,1.0461305612507075,Right,Incorrect,0.0,0.0,-45,45,2017,2771,-0.83
"{'cat': 'II', 'resp': 'reach'}",44,248,Left,61.39985403915679,75.06906688444838,3.06999270195784,1.179182145180119,Left,Correct,0.0,0.0,-45,45,2004,2558,-2.33
"{'cat': 'II', 'resp': 'reach'}",44,249,Right,62.89374622089866,38.68499011031358,3.144687311044933,0.6076624036737747,Right,Correct,0.0,0.0,-45,45,2004,1683,-0.86
"{'cat': 'II', 'resp': 'reach'}",44,250,Right,76.24200821502905,52.70031239633472,3.8121004107514525,0.8278145713310614,Right,Correct,0.0,0.0,-45,45,2004,1804,-0.86
"{'cat': 'II', 'resp': 'reach'}",44,251,Right,63.745901434250605,49.691965283225386,3.1872950717125303,0.7805595653810995,Right,Correct,0.0,0.0,-45,45,2004,3408,-0.84
"{'cat': 'II', 'resp': 'reach'}",44,252,Left,51.298906572638785,69.19451950998382,2.5649453286319392,1.086904970806204,Left,Correct,0.0,0.0,-45,45,2012,4929,-2.35
"{'cat': 'II', 'resp': 'reach'}",44,253,Left,24.815623642061247,41.22045930115091,1.2407811821030623,0.6474894605904638,Right,Incorrect,0.0,0.0,-45,45,2004,5505,-0.86
"{'cat': 'II', 'resp': 'reach'}",44,254,Left,35.44503232846674,43.08665980303498,1.7722516164233368,0.6768036695246867,Left,Correct,0.0,0.0,-45,45,2004,3525,-2.31
"{'cat': 'II', 'resp': 'reach'}",44,255,Right,38.54521345514164,21.251330830959162,1.927260672757082,0.33381512408773784,Left,Incorrect,0.0,0.0,-45,45,2004,6658,-2.4
"{'cat': 'II', 'resp': 'reach'}",44,256,Left,40.55345100213001,71.52903126739196,2.0276725501065003,1.123575395740166,Left,Correct,0.0,0.0,-45,45,2012,4979,-2.33
"{'cat': 'II', 'resp': 'reach'}",44,257,Left,57.26898591684795,71.56798534238722,2.863449295842398,1.1241872849193286,Right,Incorrect,0.0,0.0,-45,45,2008,2175,-0.92
"{'cat': 'II', 'resp': 'reach'}",44,258,Right,81.63787768796381,59.89811816588659,4.08189388439819,0.9408774399690134,Right,Correct,0.0,0.0,-45,45,2004,1996,-0.87
"{'cat': 'II', 'resp': 'reach'}",44,259,Left,55.32876100408974,80.84804594504081,2.766438050204487,1.2699581359901513,Left,Correct,0.0,0.0,-45,45,2013,6429,-2.39
"{'cat': 'II', 'resp': 'reach'}",44,260,Left,30.752337609883583,40.030026294584495,1.537616880494179,0.6287901826503645,Left,Correct,0.0,0.0,-45,45,2008,2317,-2.44
"{'cat': 'II', 'resp': 'reach'}",44,261,Left,35.65246844743962,55.589616494179594,1.7826234223719808,0.8731996539699431,Left,Correct,0.0,0.0,-45,45,2004,4896,-2.34
"{'cat': 'II', 'resp': 'reach'}",44,262,Right,43.555115835378054,24.98924797170005,2.1777557917689028,0.39253018923313254,Right,Correct,0.0,0.0,-45,45,2008,1187,-0.92
"{'cat': 'II', 'resp': 'reach'}",44,263,Left,30.588632794985706,56.233906663946954,1.5294316397492853,0.8833201402905492,Left,Correct,0.0,0.0,-45,45,2004,4725,-2.37
"{'cat': 'II', 'resp': 'reach'}",44,264,Left,19.514823268369252,48.513601926390905,0.9757411634184626,0.7620498770556464,Right,Incorrect,0.0,0.0,-45,45,2008,2921,-0.87
"{'cat': 'II', 'resp': 'reach'}",44,265,Right,60.75072769178119,44.077017816917476,3.037536384589059,0.6923601768288717,Right,Correct,0.0,0.0,-45,45,2005,4483,-0.87
"{'cat': 'II', 'resp': 'reach'}",44,266,Right,61.05105289312947,50.952485187194775,3.052552644656474,0.8003597657311693,Right,Correct,0.0,0.0,-45,45,2008,2167,-0.83
"{'cat': 'II', 'resp': 'reach'}",44,267,Right,72.59733348260508,55.65470734348612,3.629866674130254,0.8742220986399297,Left,Incorrect,0.0,0.0,-45,45,2004,3233,-2.4
"{'cat': 'II', 'resp': 'reach'}",44,268,Left,30.321522610121367,42.42508205536875,1.5160761305060684,0.6664116305654532,Right,Incorrect,0.0,0.0,-45,45,2017,2850,-0.79
"{'cat': 'II', 'resp': 'reach'}",44,269,Left,47.49751454458881,72.20884955193266,2.3748757272294405,1.1342539563826113,Left,Correct,0.0,0.0,-45,45,2012,2571,-2.38
"{'cat': 'II', 'resp': 'reach'}",44,270,Right,45.04480419600202,27.150739050861468,2.252240209800101,0.42648281170859953,Right,Correct,0.0,0.0,-45,45,2005,2437,-0.85
"{'cat': 'II', 'resp': 'reach'}",44,271,Left,21.75780115877166,50.45727267372213,1.0878900579385828,0.7925809857597123,Left,Correct,0.0,0.0,-45,45,2008,4059,-2.31
"{'cat': 'II', 'resp': 'reach'}",44,272,Left,42.427324192596956,51.09197240291767,2.121366209629848,0.8025508257920931,Left,Correct,0.0,0.0,-45,45,2005,3291,-2.38
"{'cat': 'II', 'resp': 'reach'}",44,273,Right,49.082286801118634,30.8646125855268,2.454114340055932,0.48482020077293037,Right,Correct,0.0,0.0,-45,45,2013,2079,-0.83
"{'cat': 'II', 'resp': 'reach'}",44,274,Left,19.753485666421327,50.31581849795197,0.9876742833210663,0.7903590287626167,Right,Incorrect,0.0,0.0,-45,45,2012,7254,-0.78
"{'cat': 'II', 'resp': 'reach'}",44,275,Right,51.35153266086078,38.2513794708861,2.5675766330430387,0.600851263677056,Right,Correct,0.0,0.0,-45,45,2004,1612,-0.82
"{'cat': 'II', 'resp': 'reach'}",44,276,Right,56.51372239159896,45.16106375624338,2.825686119579948,0.7093883306245724,Left,Incorrect,0.0,0.0,-45,45,2004,4987,-2.35
"{'cat': 'II', 'resp': 'reach'}",44,277,Left,21.733947635837136,34.016925752055926,1.0866973817918568,0.5343366202018417,Right,Incorrect,0.0,0.0,-45,45,2004,1963,-0.87
"{'cat': 'II', 'resp': 'reach'}",44,278,Left,31.993478227485383,56.209530410432215,1.599673911374269,0.8829372389957296,Left,Correct,0.0,0.0,-45,45,2012,2146,-2.45
"{'cat': 'II', 'resp': 'reach'}",44,279,Left,34.78696001728681,57.065183546045205,1.7393480008643405,0.8963778070200438,Left,Correct,0.0,0.0,-45,45,2005,2245,-2.32
"{'cat': 'II', 'resp': 'reach'}",44,280,Left,14.65796057832804,38.88011512338733,0.7328980289164021,0.6107274202117953,Right,Incorrect,0.0,0.0,-45,45,2004,5025,-0.83
"{'cat': 'II', 'resp': 'reach'}",44,281,Left,43.65934858229078,64.13258657666707,2.182967429114539,1.0073923142248433,Left,Correct,0.0,0.0,-45,45,2016,2075,-2.36
"{'cat': 'II', 'resp': 'reach'}",44,282,Right,58.29791547674485,41.542711076156074,2.9148957738372423,0.6525513796352762,Right,Correct,0.0,0.0,-45,45,2004,1713,-0.84
"{'cat': 'II', 'resp': 'reach'}",44,283,Left,44.75059151190052,62.66996952772644,2.2375295755950257,0.9844175793450078,Left,Correct,0.0,0.0,-45,45,2004,1925,-2.45
"{'cat': 'II', 'resp': 'reach'}",44,284,Left,66.55107250630485,89.68827197871241,3.3275536253152427,1.408820081807431,Left,Correct,0.0,0.0,-45,45,2008,1954,-2.42
"{'cat': 'II', 'resp': 'reach'}",44,285,Left,50.098502073542896,60.438936075247945,2.5049251036771447,0.9493725878239104,Right,Incorrect,0.0,0.0,-45,45,2009,1329,-0.82
"{'cat': 'II', 'resp': 'reach'}",44,286,Right,69.42210246905213,39.610274595880156,3.4711051234526065,0.6221967383854575,Right,Correct,0.0,0.0,-45,45,2005,1674,-0.82
"{'cat': 'II', 'resp': 'reach'}",44,287,Right,48.076429185769854,36.60918412230235,2.403821459288493,0.5750557194627058,Left,Incorrect,0.0,0.0,-45,45,2004,2063,-2.51
"{'cat': 'II', 'resp': 'reach'}",44,288,Left,38.65655419230047,52.71431073505697,1.9328277096150233,0.8280344567215226,Right,Incorrect,0.0,0.0,-45,45,2009,2075,-0.95
"{'cat': 'II', 'resp': 'reach'}",44,289,Left,42.90400641206784,53.19694310082019,2.145200320603392,0.8356156281948548,Left,Correct,0.0,0.0,-45,45,2004,2525,-2.47
"{'cat': 'II', 'resp': 'reach'}",44,290,Left,26.514131836936933,37.18991974698763,1.3257065918468467,0.5841778933236516,Right,Incorrect,0.0,0.0,-45,45,2004,5487,-0.8
"{'cat': 'II', 'resp': 'reach'}",44,291,Right,47.39093499193886,39.75164434465021,2.3695467495969433,0.6244173692063367,Right,Correct,0.0,0.0,-45,45,2004,1876,-0.83
"{'cat': 'II', 'resp': 'reach'}",44,292,Right,68.66296566210983,37.20036869683423,3.4331482831054916,0.5843420250440305,Left,Incorrect,0.0,0.0,-45,45,2005,2366,-2.3
"{'cat': 'II', 'resp': 'reach'}",44,293,Left,19.46676592546872,46.21797256394967,0.973338296273436,0.7259902153535945,Right,Incorrect,0.0,0.0,-45,45,2009,4116,-0.78
"{'cat': 'II', 'resp': 'reach'}",44,294,Left,41.01459959247872,66.75216924387645,2.0507299796239358,1.048540622538724,Left,Correct,0.0,0.0,-45,45,2004,2992,-2.45
"{'cat': 'II', 'resp': 'reach'}",44,295,Right,80.24137665860401,64.23939055636338,4.012068832930201,1.0090699872147837,Left,Incorrect,0.0,0.0,-45,45,2013,8149,-2.35
"{'cat': 'II', 'resp': 'reach'}",44,296,Left,30.101272189541604,58.00974792288316,1.50506360947708,0.9112149895556274,Left,Correct,0.0,0.0,-45,45,2013,7750,-2.4
"{'cat': 'II', 'resp': 'reach'}",44,297,Right,50.104833555634286,37.48723885745368,2.505241677781714,0.5888481709897115,Right,Correct,0.0,0.0,-45,45,2004,1921,-0.84
"{'cat': 'II', 'resp': 'reach'}",44,298,Left,37.98830184517391,48.80246273129019,1.8994150922586954,0.7665872919685547,Right,Incorrect,0.0,0.0,-45,45,2004,3013,-0.86
"{'cat': 'II', 'resp': 'reach'}",44,299,Right,64.30365316415894,41.422192990457205,3.2151826582079472,0.6506582859719949,Left,Incorrect,0.0,0.0,-45,45,2004,3062,-2.32
"{'cat': 'II', 'resp': 'reach'}",44,300,Right,38.88014318833023,20.097540586591712,1.9440071594165116,0.3156914293102962,Left,Incorrect,0.0,0.0,-45,45,2004,3041,-2.38
"{'cat': 'II', 'resp': 'reach'}",44,301,Left,45.60626665399355,55.25211103931921,2.2803133326996776,0.8678981306822638,Right,Incorrect,0.0,0.0,-45,45,2004,3050,-0.83
"{'cat': 'II', 'resp': 'reach'}",44,302,Left,30.2585520895139,53.16958512838895,1.512927604475695,0.8351858901688194,Left,Correct,0.0,0.0,-45,45,2004,2438,-2.38
"{'cat': 'II', 'resp': 'reach'}",44,303,Left,34.26307710389884,49.2883111640344,1.713153855194942,0.7742189813038913,Right,Incorrect,0.0,0.0,-45,45,2005,4766,-0.83
"{'cat': 'II', 'resp': 'reach'}",44,304,Right,73.63424312735276,41.472477751280636,3.681712156367638,0.6514481571479469,Right,Correct,0.0,0.0,-45,45,2008,2658,-0.87
"{'cat': 'II', 'resp': 'reach'}",44,305,Left,50.86165124697133,67.8144729961212,2.5430825623485664,1.0652272508583889,Left,Correct,0.0,0.0,-45,45,2008,2288,-2.45
"{'cat': 'II', 'resp': 'reach'}",44,306,Left,49.29788118038256,79.71852166189228,2.464894059019128,1.252215610040198,Left,Correct,0.0,0.0,-45,45,2005,4037,-2.47
"{'cat': 'II', 'resp': 'reach'}",44,307,Left,62.78772332081632,76.602289161071,3.1393861660408158,1.2032659443829083,Left,Correct,0.0,0.0,-45,45,2013,3908,-2.36
"{'cat': 'II', 'resp': 'reach'}",44,308,Right,75.99483639025411,64.04753946786931,3.7997418195127057,1.0060563973638028,Right,Correct,0.0,0.0,-45,45,2012,2834,-0.81
"{'cat': 'II', 'resp': 'reach'}",44,309,Right,44.89163892928419,29.486258459214973,2.24458194646421,0.46316906478659825,Right,Correct,0.0,0.0,-45,45,2008,5671,-0.78
"{'cat': 'II', 'resp': 'reach'}",44,310,Left,49.38906811631719,57.62116335310443,2.4694534058158597,0.9051111174070513,Right,Incorrect,0.0,0.0,-45,45,2004,4512,-0.87
"{'cat': 'II', 'resp': 'reach'}",44,311,Left,44.87287892190835,60.240148782079146,2.2436439460954176,0.9462500443246797,Right,Incorrect,0.0,0.0,-45,45,2004,1825,-0.81
"{'cat': 'II', 'resp': 'reach'}",44,312,Left,57.1754262697095,74.67028166118581,2.858771313485475,1.17291804154131,Left,Correct,0.0,0.0,-45,45,2005,1816,-2.33
"{'cat': 'II', 'resp': 'reach'}",44,313,Left,50.95617266147936,58.78882987073053,2.5478086330739678,0.9234527801751361,Right,Incorrect,0.0,0.0,-45,45,2012,1796,-1.02
"{'cat': 'II', 'resp': 'reach'}",44,314,Right,54.26929183594527,42.05141481559419,2.7134645917972637,0.6605420792886385,Left,Incorrect,0.0,0.0,-45,45,2004,2112,-2.38
"{'cat': 'II', 'resp': 'reach'}",44,315,Left,21.691603918407754,33.33342982406329,1.0845801959203876,0.5236002912711407,Right,Incorrect,0.0,0.0,-45,45,2009,5295,-0.87
"{'cat': 'II', 'resp': 'reach'}",44,316,Right,60.016178140273844,45.42375763544683,3.0008089070136923,0.7135147164298152,Right,Correct,0.0,0.0,-45,45,2005,2299,-0.86
"{'cat': 'II', 'resp': 'reach'}",44,317,Left,31.240388604596557,49.57559679623127,1.5620194302298278,0.7787316534618491,Left,Correct,0.0,0.0,-45,45,2008,5983,-2.28
"{'cat': 'II', 'resp': 'reach'}",44,318,Right,38.64654747988786,19.89796063041823,1.932327373994393,0.3125564346897042,Left,Incorrect,0.0,0.0,-45,45,2004,4754,-2.39
"{'cat': 'II', 'resp': 'reach'}",44,319,Left,32.41385572878187,51.729059129872525,1.6206927864390934,0.8125581606975977,Right,Incorrect,0.0,0.0,-45,45,2004,1975,-0.83
"{'cat': 'II', 'resp': 'reach'}",44,320,Left,35.67580344816133,64.91940318694218,1.7837901724080667,1.0197516006376566,Left,Correct,0.0,0.0,-45,45,2008,3875,-2.37
"{'cat': 'II', 'resp': 'reach'}",44,321,Left,31.981886914711403,59.85894745211354,1.59909434573557,0.9402621478358869,Left,Correct,0.0,0.0,-45,45,2004,4729,-2.35
"{'cat': 'II', 'resp': 'reach'}",44,322,Right,62.59591130221451,45.05060058756118,3.1297955651107254,0.707653179228451,Right,Correct,0.0,0.0,-45,45,2004,1592,-0.9
"{'cat': 'II', 'resp': 'reach'}",44,323,Left,28.629153990370156,41.154911482934,1.4314576995185078,0.6464598378696184,Left,Correct,0.0,0.0,-45,45,2004,4967,-2.43
"{'cat': 'II', 'resp': 'reach'}",44,324,Left,62.97251573533528,79.02905161656358,3.1486257867667637,1.2413854398938233,Right,Incorrect,0.0,0.0,-45,45,2008,1921,-0.88
"{'cat': 'II', 'resp': 'reach'}",44,325,Left,36.28282672612258,59.49513253316223,1.814141336306129,0.9345473564526678,Left,Correct,0.0,0.0,-45,45,2008,2438,-2.44
"{'cat': 'II', 'resp': 'reach'}",44,326,Left,50.68826872826948,72.28226610038634,2.5344134364134736,1.1354071808289814,Left,Correct,0.0,0.0,-45,45,2005,3970,-2.54
"{'cat': 'II', 'resp': 'reach'}",44,327,Right,41.950086181613365,30.57925660622188,2.097504309080668,0.48033783953171905,Left,Incorrect,0.0,0.0,-45,45,2004,3462,-2.42
"{'cat': 'II', 'resp': 'reach'}",44,328,Left,48.21822199966269,60.396900121833504,2.4109110999831342,0.948712288611743,Right,Incorrect,0.0,0.0,-45,45,2008,1805,-0.91
"{'cat': 'II', 'resp': 'reach'}",44,329,Right,74.38090115408858,59.45221412434855,3.7190450577044287,0.9338731956635038,Left,Incorrect,0.0,0.0,-45,45,2009,5154,-2.4
"{'cat': 'II', 'resp': 'reach'}",44,330,Right,36.52059103748165,21.45263393247627,1.8260295518740828,0.3369771858120928,Left,Incorrect,0.0,0.0,-45,45,2004,3096,-2.42
"{'cat': 'II', 'resp': 'reach'}",44,331,Right,69.07306215469603,37.47906654398365,3.453653107734801,0.5887198005899101,Right,Correct,0.0,0.0,-45,45,2009,2216,-0.86
"{'cat': 'II', 'resp': 'reach'}",44,332,Right,78.46628385621078,59.14068780072236,3.923314192810539,0.9289797516149844,Left,Incorrect,0.0,0.0,-45,45,2008,4825,-2.37
"{'cat': 'II', 'resp': 'reach'}",44,333,Left,24.692675419964395,35.79479184615947,1.2346337709982196,0.5622632755033521,Right,Incorrect,0.0,0.0,-45,45,2013,2358,-0.89
"{'cat': 'II', 'resp': 'reach'}",44,334,Left,45.753895881389965,64.59926391214537,2.2876947940694983,1.0147228646685207,Left,Correct,0.0,0.0,-45,45,2004,4542,-2.3
"{'cat': 'II', 'resp': 'reach'}",44,335,Right,49.67083455102725,37.62979513120763,2.4835417275513625,0.5910874397014543,Right,Correct,0.0,0.0,-45,45,2004,3875,-0.88
"{'cat': 'II', 'resp': 'reach'}",44,336,Left,47.57242233779304,70.55752715868277,2.3786211168896525,1.1083150448859005,Left,Correct,0.0,0.0,-45,45,2004,7083,-2.45
"{'cat': 'II', 'resp': 'reach'}",44,337,Left,61.36165629772243,71.4455217758403,3.0680828148861217,1.1222636317143475,Left,Correct,0.0,0.0,-45,45,2004,1925,-2.35
"{'cat': 'II', 'resp': 'reach'}",44,338,Right,72.44632853661639,45.72863165960385,3.6223164268308197,0.7183036664026254,Left,Incorrect,0.0,0.0,-45,45,2004,2721,-2.44
"{'cat': 'II', 'resp': 'reach'}",44,339,Left,24.205009186770937,51.30927429810312,1.2102504593385468,0.8059641959797219,Right,Incorrect,0.0,0.0,-45,45,2004,1662,-0.77
"{'cat': 'II', 'resp': 'reach'}",44,340,Right,57.53390963096715,30.20046727291882,2.8766954815483574,0.47438783059790374,Left,Incorrect,0.0,0.0,-45,45,2008,3563,-2.3
"{'cat': 'II', 'resp': 'reach'}",44,341,Right,51.120380337169365,32.496392491134486,2.5560190168584684,0.5104521395915931,Right,Correct,0.0,0.0,-45,45,2013,2349,-0.87
"{'cat': 'II', 'resp': 'reach'}",44,342,Left,39.056644901377716,55.98992941890734,1.952832245068886,0.8794877546872516,Left,Correct,0.0,0.0,-45,45,2004,5146,-2.41
"{'cat': 'II', 'resp': 'reach'}",44,343,Left,69.15581761252939,84.77343451152412,3.4577908806264697,1.331617995404898,Left,Correct,0.0,0.0,-45,45,2008,2162,-2.34
"{'cat': 'II', 'resp': 'reach'}",44,344,Left,49.9203402537858,58.28151302794094,2.49601701268929,0.9154838658433853,Left,Correct,0.0,0.0,-45,45,2008,3254,-2.36
"{'cat': 'II', 'resp': 'reach'}",44,345,Right,79.21206154238988,65.48211443184313,3.9606030771194933,1.0285906482030227,Right,Correct,0.0,0.0,-45,45,2017,2033,-0.97
"{'cat': 'II', 'resp': 'reach'}",44,346,Right,45.61512403015438,20.058858878684717,2.280756201507719,0.3150838184633515,Right,Correct,0.0,0.0,-45,45,2004,1783,-0.95
"{'cat': 'II', 'resp': 'reach'}",44,347,Right,59.60870646124451,48.897264313461974,2.980435323062226,0.7680764317390525,Right,Correct,0.0,0.0,-45,45,2004,5229,-0.86
"{'cat': 'II', 'resp': 'reach'}",44,348,Right,45.338759404114114,23.79580368540984,2.2669379702057055,0.37378361022174234,Left,Incorrect,0.0,0.0,-45,45,2004,3583,-2.27
"{'cat': 'II', 'resp': 'reach'}",44,349,Left,61.440820108049905,78.41038850133762,3.0720410054024954,1.231667502404619,Left,Correct,0.0,0.0,-45,45,2012,4033,-2.34
"{'cat': 'II', 'resp': 'reach'}",44,350,Right,64.18552326159785,37.64064208164559,3.2092761630798923,0.5912578232005029,Right,Correct,0.0,0.0,-45,45,2017,1579,-0.89
"{'cat': 'II', 'resp': 'reach'}",44,351,Left,18.348274672586058,47.577476713944634,0.9174137336293029,0.7473452566043396,Left,Correct,0.0,0.0,-45,45,2004,3100,-2.34
"{'cat': 'II', 'resp': 'reach'}",44,352,Right,51.686916903638014,44.22253996239407,2.584345845181901,0.6946460333446913,Right,Correct,0.0,0.0,-45,45,2008,1663,-0.92
"{'cat': 'II', 'resp': 'reach'}",44,353,Left,35.95390125353872,54.41653316683521,1.797695062676936,0.8547729041537738,Right,Incorrect,0.0,0.0,-45,45,2008,1862,-0.89
"{'cat': 'II', 'resp': 'reach'}",44,354,Right,80.91441047831842,57.39489990265888,4.045720523915921,0.9015569794385733,Right,Correct,0.0,0.0,-45,45,2004,1833,-0.82
"{'cat': 'II', 'resp': 'reach'}",44,355,Left,22.166970341285833,33.68143032562332,1.1083485170642917,0.5290666703668734,Right,Incorrect,0.0,0.0,-45,45,2004,2445,-0.82
"{'cat': 'II', 'resp': 'reach'}",44,356,Right,83.74814940632497,54.92414537655274,4.1874074703162485,0.8627464580983795,Left,Incorrect,0.0,0.0,-45,45,2004,2858,-2.31
"{'cat': 'II', 'resp': 'reach'}",44,357,Right,40.93318381404965,14.344751630211533,2.0466591907024823,0.22532683169521378,Left,Incorrect,0.0,0.0,-45,45,2013,2158,-2.5
"{'cat': 'II', 'resp': 'reach'}",44,358,Right,81.85268433174082,59.887380038284846,4.092634216587041,0.9407087658550783,Left,Incorrect,0.0,0.0,-45,45,2008,3825,-2.49
"{'cat': 'II', 'resp': 'reach'}",44,359,Right,65.82329953435178,34.59927962366364,3.2911649767175892,0.5434842134260036,Right,Correct,0.0,0.0,-45,45,2009,3221,-0.89
"{'cat': 'II', 'resp': 'reach'}",44,360,Left,17.21868663105409,43.8737461068604,0.8609343315527045,0.6891671922738822,Left,Correct,0.0,0.0,-45,45,2004,2233,-2.32
"{'cat': 'II', 'resp': 'reach'}",44,361,Left,30.530310642220865,47.531240595777334,1.5265155321110433,0.746618981358515,Right,Incorrect,0.0,0.0,-45,45,2004,2991,-0.95
"{'cat': 'II', 'resp': 'reach'}",44,362,Right,51.5382175907704,38.39190927218849,2.57691087953852,0.6030587006339662,Left,Incorrect,0.0,0.0,-45,45,2012,3438,-2.3
"{'cat': 'II', 'resp': 'reach'}",44,363,Right,59.381331740711275,50.93652667899385,2.969066587035564,0.800109090070538,Right,Correct,0.0,0.0,-45,45,2008,2596,-0.96
"{'cat': 'II', 'resp': 'reach'}",44,364,Right,58.690802627982215,33.42380032367812,2.934540131399111,0.5250198277595967,Right,Correct,0.0,0.0,-45,45,2008,3029,-0.88
"{'cat': 'II', 'resp': 'reach'}",44,365,Left,44.20999786181784,75.96405310452587,2.210499893090892,1.193240555850417,Left,Correct,0.0,0.0,-45,45,2012,3787,-2.36
"{'cat': 'II', 'resp': 'reach'}",44,366,Left,39.19670035228203,66.63613108764784,1.9598350176141013,1.0467178994430044,Left,Correct,0.0,0.0,-45,45,2004,4816,-2.37
"{'cat': 'II', 'resp': 'reach'}",44,367,Left,41.786845938786605,52.65575774328948,2.0893422969393303,0.8271147084776105,Right,Incorrect,0.0,0.0,-45,45,2013,3375,-0.87
"{'cat': 'II', 'resp': 'reach'}",44,368,Right,39.209266353623214,23.2288000180927,1.9604633176811606,0.3648771374427324,Right,Correct,0.0,0.0,-45,45,2016,1400,-0.89
"{'cat': 'II', 'resp': 'reach'}",44,369,Right,80.36004834856105,64.42621224508329,4.018002417428053,1.0120045754388522,Right,Correct,0.0,0.0,-45,45,2012,2487,-0.85
"{'cat': 'II', 'resp': 'reach'}",44,370,Left,23.536359801859025,44.96285067619745,1.1768179900929512,0.7062748068439838,Right,Incorrect,0.0,0.0,-45,45,2004,3033,-0.88
"{'cat': 'II', 'resp': 'reach'}",44,371,Left,27.53031330628339,43.09453480997108,1.3765156653141697,0.6769273698443737,Left,Correct,0.0,0.0,-45,45,2004,4009,-2.3
"{'cat': 'II', 'resp': 'reach'}",44,372,Left,16.949710923984593,33.0239376675851,0.8474855461992297,0.518738799845463,Left,Correct,0.0,0.0,-45,45,2013,7145,-2.34
"{'cat': 'II', 'resp': 'reach'}",44,373,Left,25.200782289513775,42.92930479084734,1.2600391144756886,0.6743319427732156,Right,Incorrect,0.0,0.0,-45,45,2009,2658,-0.87
"{'cat': 'II', 'resp': 'reach'}",44,374,Right,67.50943795218299,56.23240386518535,3.37547189760915,0.883296534382803,Left,Incorrect,0.0,0.0,-45,45,2004,4200,-2.33
"{'cat': 'II', 'resp': 'reach'}",44,375,Left,66.32511498070399,89.14473458267925,3.316255749035199,1.4002822163557855,Right,Incorrect,0.0,0.0,-45,45,2004,8188,-0.92
"{'cat': 'II', 'resp': 'reach'}",44,376,Right,55.99253730371103,41.88777090469436,2.799626865185552,0.6579715667472004,Right,Correct,0.0,0.0,-45,45,2012,4100,-0.97
"{'cat': 'II', 'resp': 'reach'}",44,377,Right,68.38054415360672,37.95526282229379,3.419027207680336,0.5961998742379397,Left,Incorrect,0.0,0.0,-45,45,2013,3912,-2.39
"{'cat': 'II', 'resp': 'reach'}",44,378,Right,61.12531136236359,38.399706058221824,3.05626556811818,0.6031811722625858,Right,Correct,0.0,0.0,-45,45,2008,5950,-0.74
"{'cat': 'II', 'resp': 'reach'}",44,379,Left,41.23887462540028,51.712156973382434,2.061943731270014,0.8122926622443022,Right,Incorrect,0.0,0.0,-45,45,2005,4037,-0.82
"{'cat': 'II', 'resp': 'reach'}",44,380,Right,58.06574595618687,28.314094099045263,2.903287297809344,0.44475675007305354,Left,Incorrect,0.0,0.0,-45,45,2004,2104,-2.23
"{'cat': 'II', 'resp': 'reach'}",44,381,Right,33.83156890975475,14.560372977192763,1.6915784454877376,0.22871380389338064,Left,Incorrect,0.0,0.0,-45,45,2004,6004,-2.31
"{'cat': 'II', 'resp': 'reach'}",44,382,Left,43.97402855385661,68.8383026760607,2.1987014276928307,1.0813095298635145,Right,Incorrect,0.0,0.0,-45,45,2008,3375,-0.85
"{'cat': 'II', 'resp': 'reach'}",44,383,Right,53.42277040955143,34.7047142222003,2.6711385204775717,0.5451403762269884,Left,Incorrect,0.0,0.0,-45,45,2008,3150,-2.34
"{'cat': 'II', 'resp': 'reach'}",44,384,Left,16.238737138686464,36.7553497103451,0.8119368569343232,0.5773516831507195,Left,Correct,0.0,0.0,-45,45,2004,6892,-2.35
"{'cat': 'II', 'resp': 'reach'}",44,385,Left,43.18766821228805,50.16679766983957,2.1593834106144025,0.7880182150684677,Right,Incorrect,0.0,0.0,-45,45,2012,6017,-0.84
"{'cat': 'II', 'resp': 'reach'}",44,386,Left,25.04554653215478,44.13482959717081,1.2522773266077392,0.693268282149546,Left,Correct,0.0,0.0,-45,45,2013,5029,-2.38
"{'cat': 'II', 'resp': 'reach'}",44,387,Right,43.254723203558484,19.14574053388612,2.162736160177924,0.3007405890439647,Right,Correct,0.0,0.0,-45,45,2009,1891,-0.92
"{'cat': 'II', 'resp': 'reach'}",44,388,Right,38.42742603159603,14.264642429153685,1.9213713015798015,0.2240684793075724,Right,Correct,0.0,0.0,-45,45,2008,2263,-0.78
"{'cat': 'II', 'resp': 'reach'}",44,389,Right,82.95192389192374,63.278834741684136,4.147596194596187,0.9939816117609872,Left,Incorrect,0.0,0.0,-45,45,2004,4879,-2.39
"{'cat': 'II', 'resp': 'reach'}",44,390,Right,50.10207255312137,26.80452860445599,2.505103627656068,0.421044550733482,Right,Correct,0.0,0.0,-45,45,2008,1913,-0.85
"{'cat': 'II', 'resp': 'reach'}",44,391,Right,62.340089723814025,35.35959728991377,3.117004486190701,0.5554272553994333,Right,Correct,0.0,0.0,-45,45,2013,2733,-0.86
"{'cat': 'II', 'resp': 'reach'}",44,392,Left,22.346747289827437,37.86832628987756,1.1173373644913718,0.5948342783801027,Left,Correct,0.0,0.0,-45,45,2004,3221,-2.45
"{'cat': 'II', 'resp': 'reach'}",44,393,Right,59.48873438363719,43.64847872919459,2.9744367191818593,0.6856287005800406,Right,Correct,0.0,0.0,-45,45,2004,5362,-0.79
"{'cat': 'II', 'resp': 'reach'}",44,394,Right,81.49396461709324,65.11016261870776,4.074698230854662,1.0227480427848452,Left,Incorrect,0.0,0.0,-45,45,2004,2930,-2.37
"{'cat': 'II', 'resp': 'reach'}",44,395,Left,21.831130322151658,50.57372092913624,1.091556516107583,0.794410150678374,Left,Correct,0.0,0.0,-45,45,2005,4595,-2.37
"{'cat': 'II', 'resp': 'reach'}",44,396,Right,74.24471459706191,47.92812602595363,3.712235729853096,0.7528532431173086,Right,Correct,0.0,0.0,-45,45,2008,2054,-0.86
"{'cat': 'II', 'resp': 'reach'}",44,397,Right,81.24673275784595,61.459531309900086,4.062336637892297,0.9654040602812699,Right,Correct,0.0,0.0,-45,45,2012,3508,-0.9
"{'cat': 'II', 'resp': 'reach'}",44,398,Left,51.44458375119543,62.66168681789717,2.572229187559772,0.9842874748432507,Left,Correct,0.0,0.0,-45,45,2004,3033,-2.39
"{'cat': 'II', 'resp': 'reach'}",44,399,Right,53.121443586923284,33.81316563953075,2.656072179346164,0.5311359638388231,Right,Correct,0.0,0.0,-45,45,2004,2200,-0.85
