condition,subject,trial,cat,x,y,xt,yt,resp,fb,rotation,su,target_angle_left,target_angle_right,rt,mt,ep
"{'cat': 'II', 'resp': 'reach'}",24,0,Left,54.084620351073426,82.94580209281914,2.7042310175536715,1.3029096125045674,Right,Incorrect,0.0,0.0,-45,45,2008,7450,-0.7
"{'cat': 'II', 'resp': 'reach'}",24,1,Left,44.205280710295064,76.22112229502109,2.210264035514753,1.1972785892520372,Left,Correct,0.0,0.0,-45,45,2012,4963,-2.52
"{'cat': 'II', 'resp': 'reach'}",24,2,Right,74.38030118868153,44.244362841404154,3.7190150594340765,0.6949888263265827,Left,Incorrect,0.0,0.0,-45,45,2006,4528,-2.28
"{'cat': 'II', 'resp': 'reach'}",24,3,Right,59.22126640275076,28.190804830950803,2.961063320137538,0.44282012677849353,Right,Correct,0.0,0.0,-45,45,2006,3320,-0.85
"{'cat': 'II', 'resp': 'reach'}",24,4,Right,64.1132719608326,47.88171353671186,3.2056635980416304,0.7521241974411248,Right,Correct,0.0,0.0,-45,45,2004,1549,-0.83
"{'cat': 'II', 'resp': 'reach'}",24,5,Left,38.29220094188381,59.105265678187024,1.9146100470941905,0.9284233422153264,Right,Incorrect,0.0,0.0,-45,45,2005,1273,-0.84
"{'cat': 'II', 'resp': 'reach'}",24,6,Left,65.45811231499044,77.51798104102907,3.272905615749522,1.2176495987980491,Left,Correct,0.0,0.0,-45,45,2006,2525,-2.42
"{'cat': 'II', 'resp': 'reach'}",24,7,Right,57.01708881697201,32.63047764498172,2.8508544408486007,0.5125583442630027,Right,Correct,0.0,0.0,-45,45,2012,2707,-0.83
"{'cat': 'II', 'resp': 'reach'}",24,8,Left,18.157859704573376,48.134798126952255,0.9078929852286689,0.7560996408883047,Right,Incorrect,0.0,0.0,-45,45,2001,2448,-0.91
"{'cat': 'II', 'resp': 'reach'}",24,9,Left,57.96441715823231,76.32151435067863,2.8982208579116158,1.1988555439746997,Left,Correct,0.0,0.0,-45,45,2007,1637,-2.29
"{'cat': 'II', 'resp': 'reach'}",24,10,Left,37.130713545254885,60.87255592700641,1.8565356772627442,0.9561838725275857,Left,Correct,0.0,0.0,-45,45,2004,1638,-2.5
"{'cat': 'II', 'resp': 'reach'}",24,11,Right,61.0545165200742,53.95513632309288,3.0527258260037105,0.847525299480322,Right,Correct,0.0,0.0,-45,45,2004,2229,-0.84
"{'cat': 'II', 'resp': 'reach'}",24,12,Left,48.5983039134902,69.17416836875213,2.42991519567451,1.0865852958272757,Left,Correct,0.0,0.0,-45,45,2009,1499,-2.39
"{'cat': 'II', 'resp': 'reach'}",24,13,Right,42.72050909672059,32.82731451985219,2.13602545483603,0.5156502506632459,Left,Incorrect,0.0,0.0,-45,45,2002,1788,-2.34
"{'cat': 'II', 'resp': 'reach'}",24,14,Left,13.706902060199074,37.63105929980766,0.6853451030099537,0.591107297215388,Left,Correct,0.0,0.0,-45,45,2007,1346,-2.46
"{'cat': 'II', 'resp': 'reach'}",24,15,Right,69.89565027214353,46.30988041134909,3.4947825136071766,0.7274339004445808,Right,Correct,0.0,0.0,-45,45,2013,1502,-0.9
"{'cat': 'II', 'resp': 'reach'}",24,16,Left,61.800517873062915,82.77857605808828,3.090025893653146,1.3002828320935704,Left,Correct,0.0,0.0,-45,45,2007,1816,-2.45
"{'cat': 'II', 'resp': 'reach'}",24,17,Left,49.1515731777774,69.2382936135015,2.45757865888887,1.087592572816347,Right,Incorrect,0.0,0.0,-45,45,2012,1040,-0.82
"{'cat': 'II', 'resp': 'reach'}",24,18,Left,41.401796265223204,66.59294438100824,2.07008981326116,1.046039524241446,Left,Correct,0.0,0.0,-45,45,2006,1337,-2.47
"{'cat': 'II', 'resp': 'reach'}",24,19,Left,19.786136194651025,35.1238134281667,0.9893068097325513,0.5517235711599351,Left,Correct,0.0,0.0,-45,45,2001,1000,-2.39
"{'cat': 'II', 'resp': 'reach'}",24,20,Right,60.47295403346348,47.097395071288126,3.0236477016731738,0.7398041517958746,Right,Correct,0.0,0.0,-45,45,2003,1042,-0.77
"{'cat': 'II', 'resp': 'reach'}",24,21,Left,41.967373816868594,70.33188551130318,2.09836869084343,1.1047706741771424,Left,Correct,0.0,0.0,-45,45,2004,1139,-2.45
"{'cat': 'II', 'resp': 'reach'}",24,22,Left,44.3745041433129,64.30910872217099,2.2187252071656447,1.0101651176023985,Left,Correct,0.0,0.0,-45,45,2006,931,-2.51
"{'cat': 'II', 'resp': 'reach'}",24,23,Left,52.29999642468228,79.5051908995197,2.6149998212341137,1.248864618260926,Right,Incorrect,0.0,0.0,-45,45,2008,1488,-0.78
"{'cat': 'II', 'resp': 'reach'}",24,24,Left,49.46299344992695,68.34625193387731,2.4731496724963473,1.0735804148793309,Left,Correct,0.0,0.0,-45,45,2008,1052,-2.42
"{'cat': 'II', 'resp': 'reach'}",24,25,Right,41.358940493254885,13.469309998162743,2.0679470246627445,0.21157542669575813,Left,Incorrect,0.0,0.0,-45,45,2005,940,-2.49
"{'cat': 'II', 'resp': 'reach'}",24,26,Left,44.5013019716659,55.67799905392599,2.225065098583295,0.8745879639719667,Left,Correct,0.0,0.0,-45,45,2008,1241,-2.36
"{'cat': 'II', 'resp': 'reach'}",24,27,Left,52.038151534894,64.32956043025222,2.6019075767446997,1.010486372281705,Left,Correct,0.0,0.0,-45,45,2003,2120,-2.4
"{'cat': 'II', 'resp': 'reach'}",24,28,Left,39.063697759178815,68.74886942395146,1.9531848879589406,1.0799047156244492,Left,Correct,0.0,0.0,-45,45,2005,1167,-2.32
"{'cat': 'II', 'resp': 'reach'}",24,29,Left,47.30629953124681,62.145546471848455,2.36531497656234,0.9761799612464108,Right,Incorrect,0.0,0.0,-45,45,2002,1293,-0.81
"{'cat': 'II', 'resp': 'reach'}",24,30,Right,55.447844627940654,44.197564145431066,2.7723922313970326,0.6942537141292493,Right,Correct,0.0,0.0,-45,45,2012,898,-0.77
"{'cat': 'II', 'resp': 'reach'}",24,31,Right,42.307822095687,27.389408663348924,2.1153911047843503,0.430231825214728,Left,Incorrect,0.0,0.0,-45,45,2012,1041,-2.34
"{'cat': 'II', 'resp': 'reach'}",24,32,Right,64.16244770987598,38.6149285742137,3.208122385493799,0.6065618796382216,Right,Correct,0.0,0.0,-45,45,2008,1373,-0.81
"{'cat': 'II', 'resp': 'reach'}",24,33,Right,39.81669981424887,19.3256803896572,1.9908349907124434,0.303567077688857,Left,Incorrect,0.0,0.0,-45,45,2009,1482,-2.47
"{'cat': 'II', 'resp': 'reach'}",24,34,Right,81.6774039835413,59.13893150577226,4.083870199177065,0.9289521637984205,Right,Correct,0.0,0.0,-45,45,2007,1013,-0.88
"{'cat': 'II', 'resp': 'reach'}",24,35,Left,19.74830344197149,48.56765487544953,0.9874151720985744,0.7628989387939836,Left,Correct,0.0,0.0,-45,45,2004,1144,-2.48
"{'cat': 'II', 'resp': 'reach'}",24,36,Left,25.79683634253607,40.8205264465188,1.2898418171268036,0.6412073300002565,Left,Correct,0.0,0.0,-45,45,2014,1149,-2.45
"{'cat': 'II', 'resp': 'reach'}",24,37,Right,38.23480265323643,17.526654946115084,1.9117401326618215,0.27530805210359177,Left,Incorrect,0.0,0.0,-45,45,2006,1277,-2.34
"{'cat': 'II', 'resp': 'reach'}",24,38,Right,71.20176744541439,43.78040233286638,3.560088372270719,0.6877009517006923,Right,Correct,0.0,0.0,-45,45,2014,743,-0.76
"{'cat': 'II', 'resp': 'reach'}",24,39,Right,89.81265912044833,66.85630620605166,4.4906329560224165,1.0501764021154079,Right,Correct,0.0,0.0,-45,45,2003,1007,-0.72
"{'cat': 'II', 'resp': 'reach'}",24,40,Left,58.68617071345406,73.69732198373906,2.934308535672703,1.1576348266667809,Right,Incorrect,0.0,0.0,-45,45,2004,1116,-0.86
"{'cat': 'II', 'resp': 'reach'}",24,41,Right,46.213582433004404,33.85127719361181,2.31067912165022,0.5317346187304128,Left,Incorrect,0.0,0.0,-45,45,2004,1413,-2.43
"{'cat': 'II', 'resp': 'reach'}",24,42,Right,60.846155476976534,42.50994154159503,3.042307773848827,0.6677446002580325,Right,Correct,0.0,0.0,-45,45,2007,2459,-0.77
"{'cat': 'II', 'resp': 'reach'}",24,43,Right,85.30333623923616,63.08194217723656,4.265166811961808,0.9908888305909124,Right,Correct,0.0,0.0,-45,45,2007,2078,-0.81
"{'cat': 'II', 'resp': 'reach'}",24,44,Right,63.96860570261549,46.937227256687024,3.1984302851307747,0.7372882416474128,Right,Correct,0.0,0.0,-45,45,2004,1242,-0.68
"{'cat': 'II', 'resp': 'reach'}",24,45,Left,24.246233213845777,45.86769066705493,1.212311660692289,0.7204880001837444,Left,Correct,0.0,0.0,-45,45,2009,1514,-2.4
"{'cat': 'II', 'resp': 'reach'}",24,46,Right,62.440934591604744,45.43171716138026,3.122046729580237,0.7136397443708079,Left,Incorrect,0.0,0.0,-45,45,2008,1488,-2.46
"{'cat': 'II', 'resp': 'reach'}",24,47,Left,27.068332855445924,39.32639230616218,1.3534166427722962,0.6177375258061463,Left,Correct,0.0,0.0,-45,45,2008,905,-2.37
"{'cat': 'II', 'resp': 'reach'}",24,48,Right,52.79422510295625,44.90455221306184,2.6397112551478124,0.7053590567264718,Left,Incorrect,0.0,0.0,-45,45,2010,1433,-2.4
"{'cat': 'II', 'resp': 'reach'}",24,49,Right,71.74523289277477,38.94553085883941,3.587261644638738,0.6117549681814224,Right,Correct,0.0,0.0,-45,45,2009,796,-0.81
"{'cat': 'II', 'resp': 'reach'}",24,50,Right,38.68192267792733,18.912398783436895,1.9340961338963667,0.29707526539902945,Left,Incorrect,0.0,0.0,-45,45,2008,802,-2.39
"{'cat': 'II', 'resp': 'reach'}",24,51,Right,63.87227249809252,54.758685652412126,3.1936136249046263,0.8601474228292537,Right,Correct,0.0,0.0,-45,45,2003,770,-0.81
"{'cat': 'II', 'resp': 'reach'}",24,52,Right,65.4446462586218,49.21918631073724,3.2722323129310897,0.7731331706473973,Right,Correct,0.0,0.0,-45,45,2004,706,-0.81
"{'cat': 'II', 'resp': 'reach'}",24,53,Left,35.24888057015036,68.42671651029198,1.762444028507518,1.0748443494900235,Left,Correct,0.0,0.0,-45,45,2008,1191,-2.47
"{'cat': 'II', 'resp': 'reach'}",24,54,Left,31.529243556222866,54.213384447444355,1.5764621778111434,0.8515818515316517,Left,Correct,0.0,0.0,-45,45,2008,900,-2.33
"{'cat': 'II', 'resp': 'reach'}",24,55,Left,13.087629388859508,35.99242047718327,0.6543814694429755,0.5653676187801691,Left,Correct,0.0,0.0,-45,45,2004,931,-2.39
"{'cat': 'II', 'resp': 'reach'}",24,56,Left,60.258381051372325,79.23896913572189,3.0129190525686163,1.244682816574061,Right,Incorrect,0.0,0.0,-45,45,2004,822,-0.77
"{'cat': 'II', 'resp': 'reach'}",24,57,Left,27.813186979276736,43.964271214377575,1.3906593489638368,0.690589157337589,Left,Correct,0.0,0.0,-45,45,2004,884,-2.37
"{'cat': 'II', 'resp': 'reach'}",24,58,Right,34.63614125246686,24.042301850376923,1.731807062623343,0.37765559434266216,Left,Incorrect,0.0,0.0,-45,45,2012,1326,-2.5
"{'cat': 'II', 'resp': 'reach'}",24,59,Left,49.68224098928298,72.37609722691613,2.484112049464149,1.1368810767179016,Right,Incorrect,0.0,0.0,-45,45,2006,1355,-0.85
"{'cat': 'II', 'resp': 'reach'}",24,60,Left,52.2097670992294,81.57378317942812,2.61048835496147,1.28135798981009,Left,Correct,0.0,0.0,-45,45,2008,1299,-2.45
"{'cat': 'II', 'resp': 'reach'}",24,61,Left,69.1840612206341,84.16851119183076,3.4592030610317055,1.322115882119229,Left,Correct,0.0,0.0,-45,45,2005,2316,-2.47
"{'cat': 'II', 'resp': 'reach'}",24,62,Left,57.63103773511736,84.31175267001485,2.8815518867558683,1.3243659139969912,Left,Correct,0.0,0.0,-45,45,2009,2031,-2.38
"{'cat': 'II', 'resp': 'reach'}",24,63,Left,32.210673218746805,63.123237012751346,1.6105336609373404,0.9915374883503347,Left,Correct,0.0,0.0,-45,45,2005,1480,-2.57
"{'cat': 'II', 'resp': 'reach'}",24,64,Left,48.59803052128073,76.16263708979481,2.4299015260640364,1.1963599057966243,Left,Correct,0.0,0.0,-45,45,2005,1486,-2.43
"{'cat': 'II', 'resp': 'reach'}",24,65,Right,42.95575083042961,28.96965566502538,2.1477875415214807,0.4550542870713483,Left,Incorrect,0.0,0.0,-45,45,2002,3068,-2.38
"{'cat': 'II', 'resp': 'reach'}",24,66,Right,30.929810855757797,16.176044452061664,1.5464905427878899,0.25409271207369427,Left,Incorrect,0.0,0.0,-45,45,2004,1429,-2.45
"{'cat': 'II', 'resp': 'reach'}",24,67,Right,71.57777890536362,44.10297060130558,3.578888945268181,0.6927678422127412,Right,Correct,0.0,0.0,-45,45,2013,2060,-0.72
"{'cat': 'II', 'resp': 'reach'}",24,68,Right,52.346954729056854,28.41224245996709,2.617347736452843,0.446298460921223,Left,Incorrect,0.0,0.0,-45,45,2006,2256,-2.36
"{'cat': 'II', 'resp': 'reach'}",24,69,Left,37.004140725283825,69.29811573595342,1.8502070362641914,1.0885322565184326,Left,Correct,0.0,0.0,-45,45,2007,1691,-2.39
"{'cat': 'II', 'resp': 'reach'}",24,70,Left,21.16904986217608,38.449711616840275,1.058452493108804,0.6039666577405576,Left,Correct,0.0,0.0,-45,45,2009,1207,-2.38
"{'cat': 'II', 'resp': 'reach'}",24,71,Right,72.92383013834517,62.54873732876066,3.6461915069172584,0.9825132684167607,Right,Correct,0.0,0.0,-45,45,2001,1369,-0.77
"{'cat': 'II', 'resp': 'reach'}",24,72,Left,14.059176180349127,36.14816402971439,0.7029588090174563,0.5678140327825476,Left,Correct,0.0,0.0,-45,45,2001,1006,-2.4
"{'cat': 'II', 'resp': 'reach'}",24,73,Right,64.2053906990308,55.544307996090346,3.2102695349515398,0.8724879497462311,Right,Correct,0.0,0.0,-45,45,2003,1490,-0.78
"{'cat': 'II', 'resp': 'reach'}",24,74,Right,68.19477720495311,41.47175665600009,3.4097388602476553,0.6514368302097674,Right,Correct,0.0,0.0,-45,45,2003,902,-0.79
"{'cat': 'II', 'resp': 'reach'}",24,75,Left,27.36481582230167,57.282285989349184,1.3682407911150836,0.8997880442248446,Left,Correct,0.0,0.0,-45,45,2009,1092,-2.38
"{'cat': 'II', 'resp': 'reach'}",24,76,Left,39.1425121398597,52.51549532431661,1.9571256069929848,0.824911471552511,Left,Correct,0.0,0.0,-45,45,2007,1037,-2.4
"{'cat': 'II', 'resp': 'reach'}",24,77,Left,61.24756052533861,85.69664248111484,3.0623780262669307,1.346119712279907,Left,Correct,0.0,0.0,-45,45,2009,2817,-2.47
"{'cat': 'II', 'resp': 'reach'}",24,78,Right,63.78892440097124,31.503117686492377,3.1894462200485623,0.4948498154452956,Right,Correct,0.0,0.0,-45,45,2005,785,-0.84
"{'cat': 'II', 'resp': 'reach'}",24,79,Right,66.65043940188944,37.078353342589004,3.332521970094472,0.5824254123414209,Right,Correct,0.0,0.0,-45,45,2009,771,-0.8
"{'cat': 'II', 'resp': 'reach'}",24,80,Right,58.216590115916745,46.84334236148069,2.9108295057958373,0.7358135011620964,Right,Correct,0.0,0.0,-45,45,2001,702,-0.78
"{'cat': 'II', 'resp': 'reach'}",24,81,Right,48.49087500394343,40.206906909360534,2.4245437501971714,0.6315686168500787,Right,Correct,0.0,0.0,-45,45,2005,1793,-0.78
"{'cat': 'II', 'resp': 'reach'}",24,82,Right,39.29445328262635,21.821665464139738,1.9647226641313176,0.3427739195561775,Left,Incorrect,0.0,0.0,-45,45,2002,2384,-2.54
"{'cat': 'II', 'resp': 'reach'}",24,83,Left,25.75972837614283,56.062069357187056,1.2879864188071417,0.8806209261879016,Left,Correct,0.0,0.0,-45,45,2006,996,-2.38
"{'cat': 'II', 'resp': 'reach'}",24,84,Left,42.75652832068733,56.69991000177581,2.1378264160343665,0.8906401036039067,Left,Correct,0.0,0.0,-45,45,2009,1623,-2.38
"{'cat': 'II', 'resp': 'reach'}",24,85,Left,30.06416435163396,56.884989041567415,1.5032082175816979,0.8935473183626205,Left,Correct,0.0,0.0,-45,45,2006,1072,-2.32
"{'cat': 'II', 'resp': 'reach'}",24,86,Right,65.24405437873695,40.293703861128606,3.2622027189368477,0.6329320201802215,Right,Correct,0.0,0.0,-45,45,2008,918,-0.82
"{'cat': 'II', 'resp': 'reach'}",24,87,Left,29.96533989506812,43.84389128039322,1.498266994753406,0.6886982337563646,Left,Correct,0.0,0.0,-45,45,2006,1044,-2.39
"{'cat': 'II', 'resp': 'reach'}",24,88,Right,82.461885870984,58.09397207884367,4.1230942935492,0.9125379795037292,Right,Correct,0.0,0.0,-45,45,2002,772,-0.78
"{'cat': 'II', 'resp': 'reach'}",24,89,Left,57.66939391055284,77.09468849496392,2.8834696955276424,1.211000535032861,Right,Incorrect,0.0,0.0,-45,45,2002,982,-0.77
"{'cat': 'II', 'resp': 'reach'}",24,90,Right,77.95674301753658,47.910573759804336,3.8978371508768292,0.752577532765366,Right,Correct,0.0,0.0,-45,45,2003,789,-0.82
"{'cat': 'II', 'resp': 'reach'}",24,91,Left,35.9133697352997,60.94224699843385,1.7956684867649852,0.9572785773176721,Left,Correct,0.0,0.0,-45,45,2013,987,-2.41
"{'cat': 'II', 'resp': 'reach'}",24,92,Right,63.25686391523552,34.935705825412136,3.162843195761776,0.5487687838454445,Right,Correct,0.0,0.0,-45,45,2002,789,-0.82
"{'cat': 'II', 'resp': 'reach'}",24,93,Right,34.74193692406915,20.55202385934461,1.7370968462034575,0.3228304358645959,Left,Incorrect,0.0,0.0,-45,45,2012,1103,-2.39
"{'cat': 'II', 'resp': 'reach'}",24,94,Right,42.769043185510355,28.804589100166552,2.1384521592755177,0.4524614275337794,Right,Correct,0.0,0.0,-45,45,2008,1594,-0.84
"{'cat': 'II', 'resp': 'reach'}",24,95,Left,26.471296075648656,56.4677693558873,1.3235648037824328,0.886993646865292,Left,Correct,0.0,0.0,-45,45,2002,884,-2.4
"{'cat': 'II', 'resp': 'reach'}",24,96,Left,30.578483591682176,51.9784648290181,1.5289241795841086,0.8164758162585936,Left,Correct,0.0,0.0,-45,45,2007,1038,-2.38
"{'cat': 'II', 'resp': 'reach'}",24,97,Left,65.90595317600346,77.52138401270986,3.295297658800173,1.2177030525522128,Right,Incorrect,0.0,0.0,-45,45,2006,810,-0.79
"{'cat': 'II', 'resp': 'reach'}",24,98,Left,56.561966415755634,85.09501787281454,2.828098320787782,1.3366694150316316,Left,Correct,0.0,0.0,-45,45,2005,1826,-2.43
"{'cat': 'II', 'resp': 'reach'}",24,99,Right,44.22661243793114,24.38303390883005,2.2113306218965567,0.3830078010010565,Left,Incorrect,0.0,0.0,-45,45,2002,1829,-2.37
"{'cat': 'II', 'resp': 'reach'}",24,100,Left,39.256911154477855,71.56096111747294,1.9628455577238926,1.1240769486523894,Left,Correct,0.0,0.0,-45,45,2006,1827,-2.39
"{'cat': 'II', 'resp': 'reach'}",24,101,Left,32.44276562530181,43.5623287298949,1.6221382812650904,0.6842754595555071,Left,Correct,0.0,0.0,-45,45,2009,1273,-2.4
"{'cat': 'II', 'resp': 'reach'}",24,102,Right,42.80137038989898,16.027424783797812,2.1400685194949487,0.25175819978371095,Left,Incorrect,0.0,0.0,-45,45,2002,1905,-2.38
"{'cat': 'II', 'resp': 'reach'}",24,103,Right,59.82857136342108,46.283933854792025,2.9914285681710537,0.7270263328872526,Right,Correct,0.0,0.0,-45,45,2002,913,-0.84
"{'cat': 'II', 'resp': 'reach'}",24,104,Right,76.42604230302601,58.11757517544749,3.8213021151513002,0.9129087360781919,Right,Correct,0.0,0.0,-45,45,2002,910,-0.84
"{'cat': 'II', 'resp': 'reach'}",24,105,Right,77.37822051749393,54.59613443197833,3.8689110258746964,0.8575940742295193,Right,Correct,0.0,0.0,-45,45,2008,830,-0.77
"{'cat': 'II', 'resp': 'reach'}",24,106,Right,66.37669685128782,55.869067554893896,3.318834842564391,0.8775892609668327,Right,Correct,0.0,0.0,-45,45,2008,744,-0.83
"{'cat': 'II', 'resp': 'reach'}",24,107,Right,51.623227935603346,34.64469417618313,2.581161396780167,0.5441975835488101,Left,Incorrect,0.0,0.0,-45,45,2008,2334,-2.38
"{'cat': 'II', 'resp': 'reach'}",24,108,Left,18.769261962598964,34.263863187733065,0.9384630981299482,0.5382155043709397,Left,Correct,0.0,0.0,-45,45,2010,1170,-2.37
"{'cat': 'II', 'resp': 'reach'}",24,109,Right,51.400957128043956,40.390433188810015,2.570047856402198,0.6344514409063745,Right,Correct,0.0,0.0,-45,45,2003,1770,-0.8
"{'cat': 'II', 'resp': 'reach'}",24,110,Right,73.14804145338627,62.73127206325982,3.6574020726693135,0.9853805173213985,Right,Correct,0.0,0.0,-45,45,2007,829,-0.72
"{'cat': 'II', 'resp': 'reach'}",24,111,Left,45.714642961373045,65.94575948821773,2.2857321480686523,1.0358735677179212,Left,Correct,0.0,0.0,-45,45,2014,1485,-2.38
"{'cat': 'II', 'resp': 'reach'}",24,112,Right,40.56222041895432,16.902461479504595,2.028111020947716,0.2655032440579805,Right,Correct,0.0,0.0,-45,45,2002,2456,-0.79
"{'cat': 'II', 'resp': 'reach'}",24,113,Left,47.72250399627474,55.30637370943095,2.386125199813737,0.8687504867111998,Right,Incorrect,0.0,0.0,-45,45,2009,1000,-0.79
"{'cat': 'II', 'resp': 'reach'}",24,114,Right,81.10405889377945,51.36390735056942,4.055202944688973,0.8068223699610784,Right,Correct,0.0,0.0,-45,45,2006,698,-0.77
"{'cat': 'II', 'resp': 'reach'}",24,115,Right,54.342835300485675,22.680160090303406,2.7171417650242837,0.356259121609688,Right,Correct,0.0,0.0,-45,45,2003,975,-0.74
"{'cat': 'II', 'resp': 'reach'}",24,116,Left,30.46114541427651,39.088342322201115,1.5230572707138252,0.6139982454021501,Left,Correct,0.0,0.0,-45,45,2009,1193,-2.43
"{'cat': 'II', 'resp': 'reach'}",24,117,Right,81.60101617141386,67.25273378501389,4.080050808570693,1.0564034719641486,Right,Correct,0.0,0.0,-45,45,2002,866,-0.86
"{'cat': 'II', 'resp': 'reach'}",24,118,Right,79.53135773072093,61.89826111859071,3.976567886536046,0.9722956120007366,Right,Correct,0.0,0.0,-45,45,2008,807,-0.83
"{'cat': 'II', 'resp': 'reach'}",24,119,Left,19.309088358109214,33.93983332348487,0.9654544179054608,0.5331256551656106,Left,Correct,0.0,0.0,-45,45,2006,894,-2.38
"{'cat': 'II', 'resp': 'reach'}",24,120,Left,49.13101043205738,64.15369466303572,2.4565505216028694,1.0077238792701786,Left,Correct,0.0,0.0,-45,45,2004,2311,-2.31
"{'cat': 'II', 'resp': 'reach'}",24,121,Left,39.58550566430053,56.33809275330048,1.9792752832150262,0.8849566915551457,Left,Correct,0.0,0.0,-45,45,2011,1104,-2.4
"{'cat': 'II', 'resp': 'reach'}",24,122,Right,34.31210269760555,20.35901188363156,1.7156051348802777,0.31979861083982103,Left,Incorrect,0.0,0.0,-45,45,2005,1242,-2.32
"{'cat': 'II', 'resp': 'reach'}",24,123,Right,52.075883302117305,44.96102660586516,2.603794165105865,0.706246154414206,Right,Correct,0.0,0.0,-45,45,2001,937,-0.81
"{'cat': 'II', 'resp': 'reach'}",24,124,Right,68.81957598698392,53.746729654207755,3.440978799349196,0.8442516551806788,Right,Correct,0.0,0.0,-45,45,2001,936,-0.77
"{'cat': 'II', 'resp': 'reach'}",24,125,Right,47.61891547005427,25.48099835362231,2.3809457735027135,0.4002545861693674,Right,Correct,0.0,0.0,-45,45,2006,803,-0.8
"{'cat': 'II', 'resp': 'reach'}",24,126,Right,59.49143958136729,32.80828610094008,2.9745719790683642,0.5153513529579273,Right,Correct,0.0,0.0,-45,45,2004,688,-0.83
"{'cat': 'II', 'resp': 'reach'}",24,127,Left,24.293554839274297,46.272750068981935,1.2146777419637147,0.7268506583905512,Left,Correct,0.0,0.0,-45,45,2012,996,-2.32
"{'cat': 'II', 'resp': 'reach'}",24,128,Right,82.04126415578537,59.51122138912196,4.102063207789269,0.9348000796111064,Right,Correct,0.0,0.0,-45,45,2001,792,-0.73
"{'cat': 'II', 'resp': 'reach'}",24,129,Right,37.07200934957028,22.41694522483999,1.853600467478514,0.35212455217141053,Left,Incorrect,0.0,0.0,-45,45,2005,1041,-2.35
"{'cat': 'II', 'resp': 'reach'}",24,130,Right,55.29013142581872,45.00137617808116,2.764506571290936,0.7068799640124523,Right,Correct,0.0,0.0,-45,45,2006,662,-0.78
"{'cat': 'II', 'resp': 'reach'}",24,131,Left,65.02974979488978,89.46489531083897,3.251487489744489,1.4053112893135582,Right,Incorrect,0.0,0.0,-45,45,2001,756,-0.83
"{'cat': 'II', 'resp': 'reach'}",24,132,Left,49.02256792076433,78.22778747222284,2.4511283960382166,1.2287992121465945,Left,Correct,0.0,0.0,-45,45,2007,1679,-2.47
"{'cat': 'II', 'resp': 'reach'}",24,133,Left,42.40231141834885,54.35812290611478,2.120115570917443,0.8538553979239063,Left,Correct,0.0,0.0,-45,45,2007,1043,-2.24
"{'cat': 'II', 'resp': 'reach'}",24,134,Right,49.359949265728936,36.68240879607936,2.467997463286447,0.5762059299487026,Right,Correct,0.0,0.0,-45,45,2005,1219,-0.86
"{'cat': 'II', 'resp': 'reach'}",24,135,Left,48.485069160602066,79.78785646853346,2.424253458030103,1.2533047186361077,Left,Correct,0.0,0.0,-45,45,2013,1216,-2.34
"{'cat': 'II', 'resp': 'reach'}",24,136,Left,38.835172697861665,68.23640854873628,1.941758634893083,1.0718549990203083,Left,Correct,0.0,0.0,-45,45,2010,1009,-2.41
"{'cat': 'II', 'resp': 'reach'}",24,137,Right,80.78774883458553,67.5075390135915,4.039387441729276,1.060405943135127,Right,Correct,0.0,0.0,-45,45,2009,824,-0.81
"{'cat': 'II', 'resp': 'reach'}",24,138,Right,57.94263660867658,35.95515025033389,2.897131830433829,0.5647821794258309,Right,Correct,0.0,0.0,-45,45,2006,857,-0.79
"{'cat': 'II', 'resp': 'reach'}",24,139,Right,58.64725532039523,42.04937393967238,2.9323627660197618,0.6605100212846241,Right,Correct,0.0,0.0,-45,45,2012,845,-0.84
"{'cat': 'II', 'resp': 'reach'}",24,140,Right,62.25435024938368,49.57211280743536,3.1127175124691835,0.7786769270938172,Right,Correct,0.0,0.0,-45,45,2008,997,-0.75
"{'cat': 'II', 'resp': 'reach'}",24,141,Right,40.421982818343686,22.577124019428005,2.021099140917184,0.3546406347931034,Left,Incorrect,0.0,0.0,-45,45,2002,1052,-2.38
"{'cat': 'II', 'resp': 'reach'}",24,142,Right,56.54688173367514,29.82998147495573,2.827344086683757,0.46856825329220275,Right,Correct,0.0,0.0,-45,45,2005,691,-0.76
"{'cat': 'II', 'resp': 'reach'}",24,143,Right,32.43649573357149,11.344094757855157,1.6218247866785744,0.17819262376452122,Left,Incorrect,0.0,0.0,-45,45,2006,1429,-2.38
"{'cat': 'II', 'resp': 'reach'}",24,144,Right,80.95480030650327,63.233326749104506,4.0477400153251635,0.9932667738851483,Right,Correct,0.0,0.0,-45,45,2001,833,-0.8
"{'cat': 'II', 'resp': 'reach'}",24,145,Left,25.690085765965108,42.32484448037508,1.2845042882982554,0.6648371024193842,Left,Correct,0.0,0.0,-45,45,2012,987,-2.39
"{'cat': 'II', 'resp': 'reach'}",24,146,Right,39.51757004799863,26.25432763075852,1.9758785023999315,0.4124020140486525,Right,Correct,0.0,0.0,-45,45,2012,1834,-0.79
"{'cat': 'II', 'resp': 'reach'}",24,147,Left,19.960132744129275,51.35278663745595,0.9980066372064639,0.8066476862079784,Left,Correct,0.0,0.0,-45,45,2002,922,-2.37
"{'cat': 'II', 'resp': 'reach'}",24,148,Right,73.07329043257712,61.62475003539431,3.653664521628856,0.9679993099525106,Right,Correct,0.0,0.0,-45,45,2004,758,-0.84
"{'cat': 'II', 'resp': 'reach'}",24,149,Left,19.123512372652332,49.99643976787346,0.9561756186326166,0.7853422394019792,Left,Correct,0.0,0.0,-45,45,2011,1115,-2.34
"{'cat': 'II', 'resp': 'reach'}",24,150,Left,45.461160873599425,60.413996362708794,2.2730580436799714,0.948980835735432,Right,Incorrect,0.0,0.0,-45,45,2003,963,-0.79
"{'cat': 'II', 'resp': 'reach'}",24,151,Right,74.5587372932492,62.0134720259878,3.7279368646624595,0.974105340702197,Right,Correct,0.0,0.0,-45,45,2002,581,-0.75
"{'cat': 'II', 'resp': 'reach'}",24,152,Left,19.62594574944278,50.08865856648229,0.9812972874721391,0.7867908089031409,Left,Correct,0.0,0.0,-45,45,2003,847,-2.44
"{'cat': 'II', 'resp': 'reach'}",24,153,Right,67.94378579439102,52.670337317183936,3.397189289719551,0.827343723888807,Right,Correct,0.0,0.0,-45,45,2003,675,-0.82
"{'cat': 'II', 'resp': 'reach'}",24,154,Left,22.997308938519307,47.20737791731027,1.1498654469259655,0.7415317583012948,Left,Correct,0.0,0.0,-45,45,2004,829,-2.37
"{'cat': 'II', 'resp': 'reach'}",24,155,Left,30.08761421415317,41.778539853711166,1.5043807107076586,0.6562557694106369,Left,Correct,0.0,0.0,-45,45,2008,1267,-2.34
"{'cat': 'II', 'resp': 'reach'}",24,156,Right,41.860294165164085,33.22323671855348,2.0930147082582042,0.5218693820174114,Left,Incorrect,0.0,0.0,-45,45,2006,1044,-2.38
"{'cat': 'II', 'resp': 'reach'}",24,157,Left,36.652367848963145,67.85765574833682,1.8326183924481572,1.0659055639440007,Left,Correct,0.0,0.0,-45,45,2009,2331,-2.47
"{'cat': 'II', 'resp': 'reach'}",24,158,Left,48.58855065030089,65.7045082540151,2.429427532515044,1.0320840021927187,Right,Incorrect,0.0,0.0,-45,45,2004,2033,-0.82
"{'cat': 'II', 'resp': 'reach'}",24,159,Right,78.51987405965139,64.3766492140815,3.925993702982569,1.0112260411684277,Right,Correct,0.0,0.0,-45,45,2007,633,-0.81
"{'cat': 'II', 'resp': 'reach'}",24,160,Left,59.44519229956563,85.90989387820633,2.972259614978282,1.3494694573922588,Right,Incorrect,0.0,0.0,-45,45,2007,746,-0.81
"{'cat': 'II', 'resp': 'reach'}",24,161,Right,82.63728950913196,66.3886228463349,4.131864475456598,1.042830049079946,Right,Correct,0.0,0.0,-45,45,2007,933,-0.84
"{'cat': 'II', 'resp': 'reach'}",24,162,Left,57.93336116092303,68.0223962081853,2.8966680580461515,1.0684933010360458,Right,Incorrect,0.0,0.0,-45,45,2010,1622,-0.82
"{'cat': 'II', 'resp': 'reach'}",24,163,Right,41.46912210491661,16.439933621226913,2.0734561052458305,0.2582378734497516,Right,Correct,0.0,0.0,-45,45,2009,2123,-0.79
"{'cat': 'II', 'resp': 'reach'}",24,164,Right,78.09814657170566,48.25086934483237,3.904907328585283,0.7579228833152315,Right,Correct,0.0,0.0,-45,45,2004,954,-0.78
"{'cat': 'II', 'resp': 'reach'}",24,165,Left,58.564260530774405,82.39662452596983,2.92821302653872,1.2942831514569166,Right,Incorrect,0.0,0.0,-45,45,2011,4120,-0.8
"{'cat': 'II', 'resp': 'reach'}",24,166,Left,50.42825701935076,78.61228930324546,2.521412850967538,1.234838952784757,Right,Incorrect,0.0,0.0,-45,45,2009,2496,-0.73
"{'cat': 'II', 'resp': 'reach'}",24,167,Right,80.14124363491092,50.19545043954993,4.007062181745546,0.7884682917226031,Right,Correct,0.0,0.0,-45,45,2012,944,-0.82
"{'cat': 'II', 'resp': 'reach'}",24,168,Left,25.205421060031924,48.41243418895636,1.2602710530015961,0.7604607379521231,Left,Correct,0.0,0.0,-45,45,2010,918,-2.32
"{'cat': 'II', 'resp': 'reach'}",24,169,Left,35.61655107561336,63.10394803598275,1.780827553780668,0.9912344978117773,Left,Correct,0.0,0.0,-45,45,2002,1177,-2.44
"{'cat': 'II', 'resp': 'reach'}",24,170,Left,44.624728571525644,66.73698349104205,2.2312364285762825,1.048302085291005,Left,Correct,0.0,0.0,-45,45,2004,1131,-2.43
"{'cat': 'II', 'resp': 'reach'}",24,171,Right,47.5335706515556,32.904647138568805,2.37667853257778,0.5168649885974609,Left,Incorrect,0.0,0.0,-45,45,2009,1841,-2.34
"{'cat': 'II', 'resp': 'reach'}",24,172,Left,17.12830454465184,36.284995602436666,0.856415227232592,0.5699633781007649,Left,Correct,0.0,0.0,-45,45,2010,943,-2.4
"{'cat': 'II', 'resp': 'reach'}",24,173,Right,51.6138680840856,21.877147899061725,2.5806934042042804,0.34364543560594846,Right,Correct,0.0,0.0,-45,45,2006,2062,-0.77
"{'cat': 'II', 'resp': 'reach'}",24,174,Right,46.79315810356653,29.241213412240697,2.3396579051783264,0.4593199061897335,Right,Correct,0.0,0.0,-45,45,2004,1568,-0.86
"{'cat': 'II', 'resp': 'reach'}",24,175,Left,28.429849134083494,48.345319057867634,1.4214924567041747,0.7594064959382579,Left,Correct,0.0,0.0,-45,45,2001,1200,-2.38
"{'cat': 'II', 'resp': 'reach'}",24,176,Right,64.63589830945688,42.25761391202424,3.231794915472844,0.663781047121246,Right,Correct,0.0,0.0,-45,45,2001,1302,-0.8
"{'cat': 'II', 'resp': 'reach'}",24,177,Left,48.361692178936124,68.00176473264581,2.418084608946806,1.0681692225761077,Left,Correct,0.0,0.0,-45,45,2003,1582,-2.28
"{'cat': 'II', 'resp': 'reach'}",24,178,Left,28.24362144543055,42.3937574377143,1.4121810722715276,0.6659195846219544,Left,Correct,0.0,0.0,-45,45,2003,1019,-2.39
"{'cat': 'II', 'resp': 'reach'}",24,179,Left,33.67739377997303,62.77429661904744,1.6838696889986517,0.98605634546333,Left,Correct,0.0,0.0,-45,45,2004,1078,-2.4
"{'cat': 'II', 'resp': 'reach'}",24,180,Right,47.67671845883019,21.328166894926888,2.3838359229415094,0.3350220621581967,Left,Incorrect,0.0,0.0,-45,45,2005,2209,-2.41
"{'cat': 'II', 'resp': 'reach'}",24,181,Left,39.76738396329757,51.64814794758463,1.9883691981648783,0.8112872108182532,Left,Correct,0.0,0.0,-45,45,2012,1244,-2.41
"{'cat': 'II', 'resp': 'reach'}",24,182,Left,40.27410883099273,68.38728503908864,2.0137054415496367,1.0742249613887602,Left,Correct,0.0,0.0,-45,45,2003,1570,-2.48
"{'cat': 'II', 'resp': 'reach'}",24,183,Right,52.62394681347174,30.486451632528848,2.631197340673587,0.47888006241386594,Right,Correct,0.0,0.0,-45,45,2004,1252,-0.85
"{'cat': 'II', 'resp': 'reach'}",24,184,Right,64.74814418622063,43.321231691820714,3.2374072093110318,0.6804883161374264,Right,Correct,0.0,0.0,-45,45,2013,972,-0.74
"{'cat': 'II', 'resp': 'reach'}",24,185,Right,45.1116209850271,31.50252052241105,2.2555810492513553,0.49484043521384125,Right,Correct,0.0,0.0,-45,45,2004,3251,-0.78
"{'cat': 'II', 'resp': 'reach'}",24,186,Right,46.50038319984381,20.620442521304636,2.3250191599921903,0.3239051536935062,Right,Correct,0.0,0.0,-45,45,2005,2931,-0.79
"{'cat': 'II', 'resp': 'reach'}",24,187,Left,46.671304197525956,72.8529532666656,2.333565209876298,1.1443715138743857,Left,Correct,0.0,0.0,-45,45,2001,1351,-2.41
"{'cat': 'II', 'resp': 'reach'}",24,188,Left,63.81112407998839,74.42361035210975,3.1905562039994195,1.1690433376790863,Right,Incorrect,0.0,0.0,-45,45,2002,1264,-0.81
"{'cat': 'II', 'resp': 'reach'}",24,189,Left,18.45350691092261,45.0907878349698,0.9226753455461305,0.7082844390345857,Left,Correct,0.0,0.0,-45,45,2001,1024,-2.36
"{'cat': 'II', 'resp': 'reach'}",24,190,Left,41.71912684569546,66.20968813348158,2.085956342284773,1.0400193491830851,Left,Correct,0.0,0.0,-45,45,2004,1179,-2.35
"{'cat': 'II', 'resp': 'reach'}",24,191,Right,84.73926378286332,66.89357675849666,4.236963189143165,1.0507618465841901,Right,Correct,0.0,0.0,-45,45,2005,995,-0.81
"{'cat': 'II', 'resp': 'reach'}",24,192,Right,57.453700365400785,29.58858326868374,2.8726850182700394,0.46477637913513353,Right,Correct,0.0,0.0,-45,45,2012,1987,-0.74
"{'cat': 'II', 'resp': 'reach'}",24,193,Left,58.15810341195713,74.22439672046474,2.9079051705978567,1.1659140972707316,Left,Correct,0.0,0.0,-45,45,2001,2627,-2.43
"{'cat': 'II', 'resp': 'reach'}",24,194,Left,50.75480178044352,62.26576713281396,2.537740089022176,0.9780683829729057,Left,Correct,0.0,0.0,-45,45,2008,1400,-2.42
"{'cat': 'II', 'resp': 'reach'}",24,195,Right,74.87835649822667,44.30677554175876,3.743917824911333,0.6959692027312062,Right,Correct,0.0,0.0,-45,45,2004,840,-0.82
"{'cat': 'II', 'resp': 'reach'}",24,196,Right,52.63390440596093,36.75324259352253,2.631695220298046,0.5773185846370693,Right,Correct,0.0,0.0,-45,45,2002,3626,-0.81
"{'cat': 'II', 'resp': 'reach'}",24,197,Right,41.70292480009958,21.070858040625797,2.0851462400049794,0.3309802641263172,Right,Correct,0.0,0.0,-45,45,2006,4069,-0.76
"{'cat': 'II', 'resp': 'reach'}",24,198,Left,33.83652373717174,42.14393215123627,1.691826186858587,0.6619953381985527,Left,Correct,0.0,0.0,-45,45,2001,1176,-2.4
"{'cat': 'II', 'resp': 'reach'}",24,199,Left,56.85273859245426,80.30415058916364,2.842636929622713,1.2614146477184247,Right,Incorrect,0.0,0.0,-45,45,2009,3703,-0.77
"{'cat': 'II', 'resp': 'reach'}",24,200,Left,54.981811524705066,68.40320057916608,2.749090576235253,1.0744749621076861,Left,Correct,0.0,0.0,-45,45,2003,1420,-2.39
"{'cat': 'II', 'resp': 'reach'}",24,201,Left,33.938241740352545,49.945209545064614,1.696912087017627,0.7845375169438891,Left,Correct,0.0,0.0,-45,45,2013,917,-2.36
"{'cat': 'II', 'resp': 'reach'}",24,202,Left,33.63468341863477,47.556749464621774,1.6817341709317386,0.7470196737333304,Left,Correct,0.0,0.0,-45,45,2005,1034,-2.36
"{'cat': 'II', 'resp': 'reach'}",24,203,Right,36.89478341262847,12.73842909674283,1.8447391706314236,0.2000947763430087,Right,Correct,0.0,0.0,-45,45,2003,3491,-0.82
"{'cat': 'II', 'resp': 'reach'}",24,204,Left,65.55590388234238,84.99464757842696,3.2777951941171186,1.3350928021341981,Right,Incorrect,0.0,0.0,-45,45,2005,1422,-0.83
"{'cat': 'II', 'resp': 'reach'}",24,205,Left,24.019423079549064,34.941074460290764,1.200971153977453,0.548853114164917,Left,Correct,0.0,0.0,-45,45,2004,892,-2.27
"{'cat': 'II', 'resp': 'reach'}",24,206,Right,63.32096075088096,43.311805917423264,3.166048037544048,0.6803402564194193,Right,Correct,0.0,0.0,-45,45,2002,907,-0.79
"{'cat': 'II', 'resp': 'reach'}",24,207,Right,43.66128633916735,20.129546627645773,2.1830643169583674,0.3161941790275258,Left,Incorrect,0.0,0.0,-45,45,2012,2241,-2.38
"{'cat': 'II', 'resp': 'reach'}",24,208,Right,55.517789697636694,24.573088607409414,2.7758894848818345,0.38599317322524224,Right,Correct,0.0,0.0,-45,45,2004,863,-0.88
"{'cat': 'II', 'resp': 'reach'}",24,209,Left,30.034088069576768,42.52700567798537,1.5017044034788385,0.6680126430856512,Left,Correct,0.0,0.0,-45,45,2003,1195,-2.37
"{'cat': 'II', 'resp': 'reach'}",24,210,Right,68.7546065659094,47.112782196429734,3.43773032829547,0.7400458521923983,Right,Correct,0.0,0.0,-45,45,2009,801,-0.84
"{'cat': 'II', 'resp': 'reach'}",24,211,Right,52.80162707746153,25.84047476224087,2.640081353873077,0.4059012283916419,Right,Correct,0.0,0.0,-45,45,2011,1998,-0.77
"{'cat': 'II', 'resp': 'reach'}",24,212,Right,54.194663799639365,25.658558244638357,2.7097331899819683,0.4030436904153083,Right,Correct,0.0,0.0,-45,45,2003,1767,-0.77
"{'cat': 'II', 'resp': 'reach'}",24,213,Right,61.815064366130485,47.89689856507569,3.0907532183065247,0.7523627233088864,Right,Correct,0.0,0.0,-45,45,2007,2511,-0.77
"{'cat': 'II', 'resp': 'reach'}",24,214,Right,84.89355867147404,60.357688796307656,4.244677933573701,0.9480963585506954,Right,Correct,0.0,0.0,-45,45,2006,1061,-0.87
"{'cat': 'II', 'resp': 'reach'}",24,215,Left,28.01072940657012,51.27172388311848,1.4005364703285061,0.8053743554404469,Left,Correct,0.0,0.0,-45,45,2012,814,-2.48
"{'cat': 'II', 'resp': 'reach'}",24,216,Left,39.98789692897228,62.70307036141963,1.999394846448614,0.984937526024799,Left,Correct,0.0,0.0,-45,45,2008,1177,-2.37
"{'cat': 'II', 'resp': 'reach'}",24,217,Right,44.552841414399836,28.166969544876792,2.227642070719992,0.4424457229803619,Right,Correct,0.0,0.0,-45,45,2006,1844,-0.79
"{'cat': 'II', 'resp': 'reach'}",24,218,Right,66.3687622554686,40.6933344989359,3.3184381127734297,0.6392094035596454,Right,Correct,0.0,0.0,-45,45,2004,895,-0.77
"{'cat': 'II', 'resp': 'reach'}",24,219,Left,20.840737615411374,40.31195763734273,1.0420368807705687,0.6332187498264943,Left,Correct,0.0,0.0,-45,45,2007,949,-2.37
"{'cat': 'II', 'resp': 'reach'}",24,220,Left,53.350140269476434,80.4410964730175,2.6675070134738217,1.263565788631698,Left,Correct,0.0,0.0,-45,45,2005,1779,-2.35
"{'cat': 'II', 'resp': 'reach'}",24,221,Right,65.40091978888007,35.968414495708366,3.2700459894440037,0.5649905337049501,Right,Correct,0.0,0.0,-45,45,2009,963,-0.86
"{'cat': 'II', 'resp': 'reach'}",24,222,Left,18.522202275127004,47.16938395005511,0.9261101137563501,0.7409349504592472,Left,Correct,0.0,0.0,-45,45,2005,977,-2.28
"{'cat': 'II', 'resp': 'reach'}",24,223,Left,29.548119719562507,56.621627876859286,1.4774059859781254,0.8894104508611809,Left,Correct,0.0,0.0,-45,45,2005,1138,-2.33
"{'cat': 'II', 'resp': 'reach'}",24,224,Left,17.260685586644133,31.64347822212086,0.8630342793322066,0.4970545935832175,Left,Correct,0.0,0.0,-45,45,2003,915,-2.41
"{'cat': 'II', 'resp': 'reach'}",24,225,Left,58.24564729001612,67.77397654120489,2.912282364500806,1.0645911340320813,Right,Incorrect,0.0,0.0,-45,45,2002,2576,-0.78
"{'cat': 'II', 'resp': 'reach'}",24,226,Left,29.98861001575969,48.41309961803307,1.4994305007879845,0.7604711904876177,Left,Correct,0.0,0.0,-45,45,2007,903,-2.31
"{'cat': 'II', 'resp': 'reach'}",24,227,Right,59.525940610978694,28.249821961871262,2.9762970305489347,0.4437471657031718,Right,Correct,0.0,0.0,-45,45,2002,886,-0.84
"{'cat': 'II', 'resp': 'reach'}",24,228,Left,37.47985845679475,59.99927234320965,1.8739929228397374,0.9424663660708035,Left,Correct,0.0,0.0,-45,45,2006,972,-2.44
"{'cat': 'II', 'resp': 'reach'}",24,229,Right,43.987510444518385,22.88165282124107,2.1993755222259193,0.35942416202601557,Right,Correct,0.0,0.0,-45,45,2003,3036,-0.81
"{'cat': 'II', 'resp': 'reach'}",24,230,Right,65.95859956390748,54.57880078416562,3.297929978195374,0.8573217979263776,Right,Correct,0.0,0.0,-45,45,2002,805,-0.79
"{'cat': 'II', 'resp': 'reach'}",24,231,Right,47.16095639130609,39.156994790733556,2.3580478195653045,0.6150766358561117,Right,Correct,0.0,0.0,-45,45,2008,1843,-0.79
"{'cat': 'II', 'resp': 'reach'}",24,232,Right,41.16096186918527,17.761858869967032,2.0580480934592633,0.2790026266999357,Left,Incorrect,0.0,0.0,-45,45,2008,1386,-2.39
"{'cat': 'II', 'resp': 'reach'}",24,233,Left,64.15259062679847,89.18539376810536,3.207629531339924,1.4009208893469633,Right,Incorrect,0.0,0.0,-45,45,2001,4128,-0.85
"{'cat': 'II', 'resp': 'reach'}",24,234,Left,17.28946841255256,37.6396605909676,0.864473420627628,0.5912424059809853,Left,Correct,0.0,0.0,-45,45,2009,893,-2.25
"{'cat': 'II', 'resp': 'reach'}",24,235,Left,26.12880818009144,53.539460920279204,1.3064404090045718,0.8409958855215347,Left,Correct,0.0,0.0,-45,45,2009,924,-2.41
"{'cat': 'II', 'resp': 'reach'}",24,236,Right,62.213641939335,45.10229667654571,3.11068209696675,0.7084652194953168,Right,Correct,0.0,0.0,-45,45,2009,1263,-0.81
"{'cat': 'II', 'resp': 'reach'}",24,237,Left,51.14040896879193,69.31572653133131,2.557020448439596,1.0888088862453478,Left,Correct,0.0,0.0,-45,45,2001,1303,-2.4
"{'cat': 'II', 'resp': 'reach'}",24,238,Left,27.922535860820823,47.219418909585855,1.3961267930410413,0.7417208977656694,Left,Correct,0.0,0.0,-45,45,2005,1146,-2.37
"{'cat': 'II', 'resp': 'reach'}",24,239,Right,65.35159516153176,39.66229045287293,3.2675797580765877,0.6230138015564509,Right,Correct,0.0,0.0,-45,45,2006,967,-0.79
"{'cat': 'II', 'resp': 'reach'}",24,240,Right,77.62871177061233,56.75091027268304,3.881435588530616,0.8914412139859729,Right,Correct,0.0,0.0,-45,45,2002,908,-0.85
"{'cat': 'II', 'resp': 'reach'}",24,241,Right,68.57570684097084,46.65982623933767,3.428785342048542,0.7329308366563976,Right,Correct,0.0,0.0,-45,45,2008,954,-0.82
"{'cat': 'II', 'resp': 'reach'}",24,242,Right,65.9897834611207,33.952161974404724,3.2994891730560347,0.533319313161403,Right,Correct,0.0,0.0,-45,45,2008,967,-0.79
"{'cat': 'II', 'resp': 'reach'}",24,243,Right,43.514724411019216,15.69538353408689,2.1757362205509607,0.24654250802980787,Right,Correct,0.0,0.0,-45,45,2009,1834,-0.77
"{'cat': 'II', 'resp': 'reach'}",24,244,Right,52.14706421215857,20.817879136668516,2.6073532106079282,0.3270064807953902,Right,Correct,0.0,0.0,-45,45,2013,2286,-0.78
"{'cat': 'II', 'resp': 'reach'}",24,245,Right,40.03152896697486,26.33865908626765,2.001576448348743,0.41372668945412255,Right,Correct,0.0,0.0,-45,45,2005,3765,-0.77
"{'cat': 'II', 'resp': 'reach'}",24,246,Left,54.45641322160471,68.4314574000372,2.722820661080236,1.074918819211999,Right,Incorrect,0.0,0.0,-45,45,2003,2901,-0.82
"{'cat': 'II', 'resp': 'reach'}",24,247,Right,44.54565225951522,30.800579365313883,2.2272826129757615,0.4838143693018973,Left,Incorrect,0.0,0.0,-45,45,2006,1909,-2.37
"{'cat': 'II', 'resp': 'reach'}",24,248,Left,37.64359213646677,69.37731608597558,1.8821796068233385,1.0897763327073893,Left,Correct,0.0,0.0,-45,45,2006,1232,-2.32
"{'cat': 'II', 'resp': 'reach'}",24,249,Left,35.02018196309412,53.44205912332656,1.7510090981547057,0.8394659016727704,Left,Correct,0.0,0.0,-45,45,2001,1041,-2.47
"{'cat': 'II', 'resp': 'reach'}",24,250,Left,63.098572561211846,79.08081728457107,3.1549286280605924,1.2421985731054261,Right,Incorrect,0.0,0.0,-45,45,2001,2816,-0.81
"{'cat': 'II', 'resp': 'reach'}",24,251,Left,62.30786889759594,72.46163155681323,3.115393444879797,1.138224646830074,Left,Correct,0.0,0.0,-45,45,2006,2866,-2.45
"{'cat': 'II', 'resp': 'reach'}",24,252,Right,62.632069661015855,47.43658560988525,3.1316034830507924,0.745132144316994,Right,Correct,0.0,0.0,-45,45,2003,1783,-0.73
"{'cat': 'II', 'resp': 'reach'}",24,253,Right,75.89842810777714,51.007578471430534,3.7949214053888567,0.8012251690162553,Right,Correct,0.0,0.0,-45,45,2004,954,-0.79
"{'cat': 'II', 'resp': 'reach'}",24,254,Right,67.02622998048025,45.26932762682961,3.3513114990240127,0.7110889355269868,Right,Correct,0.0,0.0,-45,45,2004,833,-0.83
"{'cat': 'II', 'resp': 'reach'}",24,255,Right,76.04379739227767,54.920543633203124,3.8021898696138834,0.8626898820461432,Right,Correct,0.0,0.0,-45,45,2001,801,-0.81
"{'cat': 'II', 'resp': 'reach'}",24,256,Right,57.20193968126896,28.893612027646036,2.860096984063448,0.45385979640863233,Right,Correct,0.0,0.0,-45,45,2004,1472,-0.83
"{'cat': 'II', 'resp': 'reach'}",24,257,Right,46.11285790955221,23.30575735098032,2.3056428954776105,0.3660859804009305,Right,Correct,0.0,0.0,-45,45,2010,2014,-0.82
"{'cat': 'II', 'resp': 'reach'}",24,258,Right,41.55603736868305,14.174608610971827,2.0778018684341526,0.22265423139869855,Right,Correct,0.0,0.0,-45,45,2003,1671,-0.83
"{'cat': 'II', 'resp': 'reach'}",24,259,Right,60.24330866503807,37.95382728231829,3.0121654332519032,0.596177324828735,Right,Correct,0.0,0.0,-45,45,2010,1306,-0.79
"{'cat': 'II', 'resp': 'reach'}",24,260,Left,61.996233342955925,74.50580092979547,3.0998116671477964,1.170334384254345,Left,Correct,0.0,0.0,-45,45,2003,2043,-2.3
"{'cat': 'II', 'resp': 'reach'}",24,261,Right,73.11089267075688,41.77061566997997,3.655544633537844,0.6561312966236588,Right,Correct,0.0,0.0,-45,45,2009,857,-0.8
"{'cat': 'II', 'resp': 'reach'}",24,262,Left,24.921601329885952,35.30748585050611,1.2460800664942977,0.5546086908233778,Left,Correct,0.0,0.0,-45,45,2009,949,-2.35
"{'cat': 'II', 'resp': 'reach'}",24,263,Right,87.16282295516119,64.58722779752492,4.358141147758059,1.0145338018221737,Right,Correct,0.0,0.0,-45,45,2008,910,-0.81
"{'cat': 'II', 'resp': 'reach'}",24,264,Left,40.3048321971501,49.21436969135111,2.015241609857505,0.7730575113670041,Left,Correct,0.0,0.0,-45,45,2011,1179,-2.43
"{'cat': 'II', 'resp': 'reach'}",24,265,Left,67.23785386873105,85.32386487543617,3.3618926934365527,1.3402641353427922,Left,Correct,0.0,0.0,-45,45,2003,1352,-2.36
"{'cat': 'II', 'resp': 'reach'}",24,266,Left,29.69944691630386,46.009964339360806,1.484972345815193,0.7227228298023213,Left,Correct,0.0,0.0,-45,45,2006,1103,-2.32
"{'cat': 'II', 'resp': 'reach'}",24,267,Left,43.62126978294788,71.81289220361607,2.1810634891473937,1.1280342728995798,Left,Correct,0.0,0.0,-45,45,2003,1013,-2.42
"{'cat': 'II', 'resp': 'reach'}",24,268,Right,74.38431471804307,42.35536373912042,3.7192157359021536,0.6653164978147211,Right,Correct,0.0,0.0,-45,45,2004,873,-0.75
"{'cat': 'II', 'resp': 'reach'}",24,269,Left,36.78981550025945,51.97919702240416,1.8394907750129728,0.8164873175254068,Left,Correct,0.0,0.0,-45,45,2009,1053,-2.38
"{'cat': 'II', 'resp': 'reach'}",24,270,Left,22.960511734675265,48.89137668191339,1.1480255867337632,0.7679839490389521,Left,Correct,0.0,0.0,-45,45,2002,985,-2.36
"{'cat': 'II', 'resp': 'reach'}",24,271,Right,77.59274367947779,50.226931121960575,3.8796371839738897,0.7889627891255595,Right,Correct,0.0,0.0,-45,45,2007,901,-0.81
"{'cat': 'II', 'resp': 'reach'}",24,272,Left,43.88927124499295,56.00689748687561,2.1944635622496476,0.8797542884756254,Left,Correct,0.0,0.0,-45,45,2006,962,-2.32
"{'cat': 'II', 'resp': 'reach'}",24,273,Left,46.62080994048842,53.8171669802999,2.331040497024421,0.8453580821116268,Left,Correct,0.0,0.0,-45,45,2002,976,-2.41
"{'cat': 'II', 'resp': 'reach'}",24,274,Left,45.268390404146814,55.4902870265295,2.263419520207341,0.8716393903406705,Left,Correct,0.0,0.0,-45,45,2009,1126,-2.37
"{'cat': 'II', 'resp': 'reach'}",24,275,Left,14.965397225524349,31.856498746545974,0.7482698612762175,0.5004007121562064,Left,Correct,0.0,0.0,-45,45,2004,2562,-2.37
"{'cat': 'II', 'resp': 'reach'}",24,276,Right,61.480546060996225,42.94540847596246,3.074027303049811,0.6745848988674825,Right,Correct,0.0,0.0,-45,45,2004,965,-0.84
"{'cat': 'II', 'resp': 'reach'}",24,277,Right,56.48852168488005,30.671212956682943,2.8244260842440023,0.4817822865070161,Right,Correct,0.0,0.0,-45,45,2009,1655,-0.73
"{'cat': 'II', 'resp': 'reach'}",24,278,Left,21.87415749626484,44.57844968291127,1.093707874813242,0.7002366501612814,Left,Correct,0.0,0.0,-45,45,2004,845,-2.25
"{'cat': 'II', 'resp': 'reach'}",24,279,Right,44.56113670063244,24.55188294190133,2.2280568350316217,0.3856600754103689,Right,Correct,0.0,0.0,-45,45,2004,2143,-0.77
"{'cat': 'II', 'resp': 'reach'}",24,280,Left,58.67816742198158,67.21838293035738,2.9339083710990788,1.0558638900009814,Left,Correct,0.0,0.0,-45,45,2001,1665,-2.4
"{'cat': 'II', 'resp': 'reach'}",24,281,Left,29.034460510091492,52.49644009427969,1.4517230255045745,0.8246121526990288,Left,Correct,0.0,0.0,-45,45,2001,822,-2.36
"{'cat': 'II', 'resp': 'reach'}",24,282,Left,11.548650339522727,34.748129081130415,0.5774325169761363,0.5458223352363458,Left,Correct,0.0,0.0,-45,45,2003,890,-2.38
"{'cat': 'II', 'resp': 'reach'}",24,283,Left,39.898602964716105,58.608133241560715,1.9949301482358053,0.9206144041614945,Left,Correct,0.0,0.0,-45,45,2006,1806,-2.42
"{'cat': 'II', 'resp': 'reach'}",24,284,Left,39.43267158391189,50.430302550881045,1.9716335791955943,0.7921573400607924,Left,Correct,0.0,0.0,-45,45,2006,957,-2.42
"{'cat': 'II', 'resp': 'reach'}",24,285,Left,15.530979776260125,34.07563159491632,0.7765489888130063,0.5352587694251066,Left,Correct,0.0,0.0,-45,45,2005,943,-2.37
"{'cat': 'II', 'resp': 'reach'}",24,286,Right,73.87565783078365,47.980174891349165,3.6937828915391826,0.75367082478308,Right,Correct,0.0,0.0,-45,45,2011,817,-0.8
"{'cat': 'II', 'resp': 'reach'}",24,287,Right,40.38189141020956,14.215175859556929,2.019094570510478,0.22329146024935512,Right,Correct,0.0,0.0,-45,45,2009,2323,-0.81
"{'cat': 'II', 'resp': 'reach'}",24,288,Right,77.6479232624801,57.94731722904104,3.8823961631240054,0.9102343305099629,Right,Correct,0.0,0.0,-45,45,2004,1025,-0.85
"{'cat': 'II', 'resp': 'reach'}",24,289,Right,39.077240327183475,18.59083728332082,1.9538620163591736,0.2920241891668196,Right,Correct,0.0,0.0,-45,45,2006,1738,-0.76
"{'cat': 'II', 'resp': 'reach'}",24,290,Left,64.36902224102599,78.89200666435622,3.2184511120512993,1.2392327428184924,Left,Correct,0.0,0.0,-45,45,2002,1483,-2.29
"{'cat': 'II', 'resp': 'reach'}",24,291,Right,82.6870480799674,53.047430901492916,4.13435240399837,0.8332670960597116,Right,Correct,0.0,0.0,-45,45,2006,1331,-0.85
"{'cat': 'II', 'resp': 'reach'}",24,292,Left,13.302837402578138,32.59819488745906,0.6651418701289069,0.5120512478936486,Left,Correct,0.0,0.0,-45,45,2003,1074,-2.4
"{'cat': 'II', 'resp': 'reach'}",24,293,Right,63.5533431510489,34.663557585833736,3.177667157552445,0.5444938892947101,Right,Correct,0.0,0.0,-45,45,2007,1091,-0.84
"{'cat': 'II', 'resp': 'reach'}",24,294,Left,45.61156170335596,61.74938288936753,2.280578085167798,0.9699570382447017,Left,Correct,0.0,0.0,-45,45,2003,3102,-2.38
"{'cat': 'II', 'resp': 'reach'}",24,295,Left,26.167479528545016,52.03996077080421,1.3083739764272508,0.8174417922532977,Left,Correct,0.0,0.0,-45,45,2008,1187,-2.39
"{'cat': 'II', 'resp': 'reach'}",24,296,Right,43.752362574076365,19.20746807146434,2.1876181287038183,0.30171020293686446,Right,Correct,0.0,0.0,-45,45,2008,1551,-0.8
"{'cat': 'II', 'resp': 'reach'}",24,297,Left,26.20668185140041,42.53410786555644,1.3103340925700206,0.6681242039871397,Left,Correct,0.0,0.0,-45,45,2006,1027,-2.28
"{'cat': 'II', 'resp': 'reach'}",24,298,Right,40.680983671740975,24.803149270916734,2.034049183587049,0.38960695767701525,Right,Correct,0.0,0.0,-45,45,2008,1325,-0.84
"{'cat': 'II', 'resp': 'reach'}",24,299,Right,71.19182910763203,57.59446636916491,3.5595914553816015,0.9046917621639644,Right,Correct,0.0,0.0,-45,45,2006,1080,-0.72
"{'cat': 'II', 'resp': 'reach'}",24,300,Left,18.998428074311093,46.29329888015262,0.9499214037155547,0.7271734383616204,Left,Correct,0.0,0.0,-45,45,2006,945,-2.37
"{'cat': 'II', 'resp': 'reach'}",24,301,Right,46.28394401013034,33.221004492641526,2.3141972005065172,0.5218343182947807,Right,Correct,0.0,0.0,-45,45,2001,1267,-0.84
"{'cat': 'II', 'resp': 'reach'}",24,302,Left,38.36391937018743,61.08958897830515,1.9181959685093717,0.9595930197253174,Left,Correct,0.0,0.0,-45,45,2009,872,-2.43
"{'cat': 'II', 'resp': 'reach'}",24,303,Left,47.386580304886806,59.600619808021676,2.3693290152443405,0.936204346691396,Right,Incorrect,0.0,0.0,-45,45,2008,3567,-0.74
"{'cat': 'II', 'resp': 'reach'}",24,304,Left,69.07045452405868,89.14177259107649,3.4535227262029338,1.4002356895004895,Left,Correct,0.0,0.0,-45,45,2003,1305,-2.36
"{'cat': 'II', 'resp': 'reach'}",24,305,Right,34.16828341947556,21.66840861854394,1.708414170973778,0.340366566654997,Left,Incorrect,0.0,0.0,-45,45,2003,1113,-2.39
"{'cat': 'II', 'resp': 'reach'}",24,306,Right,48.97029058078889,24.73130569113112,2.4485145290394446,0.3884784413647048,Right,Correct,0.0,0.0,-45,45,2009,1170,-0.79
"{'cat': 'II', 'resp': 'reach'}",24,307,Left,35.962648330567696,44.896151798306626,1.798132416528385,0.7052271033200613,Right,Incorrect,0.0,0.0,-45,45,2008,1473,-0.82
"{'cat': 'II', 'resp': 'reach'}",24,308,Left,31.15497437342526,57.499319216689194,1.557748718671263,0.9031971941878261,Left,Correct,0.0,0.0,-45,45,2008,1478,-2.33
"{'cat': 'II', 'resp': 'reach'}",24,309,Left,18.305149794427535,39.13341997438653,0.9152574897213768,0.6147063235068839,Left,Correct,0.0,0.0,-45,45,2008,1057,-2.46
"{'cat': 'II', 'resp': 'reach'}",24,310,Left,30.22548132603757,60.95422541763682,1.5112740663018787,0.9574667338865201,Left,Correct,0.0,0.0,-45,45,2006,1465,-2.29
"{'cat': 'II', 'resp': 'reach'}",24,311,Left,58.47648287430408,85.67800838924732,2.9238241437152044,1.3458270086493205,Left,Correct,0.0,0.0,-45,45,2009,1245,-2.31
"{'cat': 'II', 'resp': 'reach'}",24,312,Right,86.63637739895789,68.8804080963926,4.331818869947894,1.0819709202594696,Right,Correct,0.0,0.0,-45,45,2009,2589,-0.83
"{'cat': 'II', 'resp': 'reach'}",24,313,Left,27.439085508019346,48.2799442746689,1.3719542754009673,0.7583795912451221,Left,Correct,0.0,0.0,-45,45,2002,931,-2.36
"{'cat': 'II', 'resp': 'reach'}",24,314,Right,81.2249244044086,61.284692753667784,4.06124622022043,0.9626577026621517,Right,Correct,0.0,0.0,-45,45,2004,1092,-0.81
"{'cat': 'II', 'resp': 'reach'}",24,315,Left,38.88082536109546,47.63804426701278,1.944041268054773,0.7482966495031635,Right,Incorrect,0.0,0.0,-45,45,2012,1482,-0.73
"{'cat': 'II', 'resp': 'reach'}",24,316,Right,51.40318284219192,25.848394261044113,2.570159142109596,0.40602562758794375,Right,Correct,0.0,0.0,-45,45,2012,984,-0.81
"{'cat': 'II', 'resp': 'reach'}",24,317,Right,62.14032394210619,37.29475940461198,3.1070161971053096,0.5858247108146392,Right,Correct,0.0,0.0,-45,45,2005,1035,-0.82
"{'cat': 'II', 'resp': 'reach'}",24,318,Left,55.75434749571966,85.0772922373672,2.787717374785983,1.3363909814011237,Left,Correct,0.0,0.0,-45,45,2005,1401,-2.42
"{'cat': 'II', 'resp': 'reach'}",24,319,Right,60.592237748506854,46.6406429973585,3.0296118874253426,0.7326295069960282,Right,Correct,0.0,0.0,-45,45,2006,860,-0.79
"{'cat': 'II', 'resp': 'reach'}",24,320,Right,40.97756749909192,27.180653667551873,2.048878374954596,0.4269527094087472,Right,Correct,0.0,0.0,-45,45,2005,1101,-0.79
"{'cat': 'II', 'resp': 'reach'}",24,321,Right,72.07127478446533,46.04044060619372,3.603563739223267,0.7232015498822769,Right,Correct,0.0,0.0,-45,45,2005,711,-0.75
"{'cat': 'II', 'resp': 'reach'}",24,322,Right,63.386500711940975,37.886238959489766,3.1693250355970486,0.5951156499364022,Right,Correct,0.0,0.0,-45,45,2009,770,-0.81
"{'cat': 'II', 'resp': 'reach'}",24,323,Left,27.99234697401842,58.440580754628144,1.399617348700921,0.9179824958513041,Left,Correct,0.0,0.0,-45,45,2012,1585,-2.43
"{'cat': 'II', 'resp': 'reach'}",24,324,Left,18.498903867842067,33.70361788684456,0.9249451933921035,0.5294151917635421,Left,Correct,0.0,0.0,-45,45,2014,764,-2.28
"{'cat': 'II', 'resp': 'reach'}",24,325,Left,52.98739469740657,82.4510297029772,2.6493697348703282,1.2951377459789348,Left,Correct,0.0,0.0,-45,45,2010,1272,-2.31
"{'cat': 'II', 'resp': 'reach'}",24,326,Right,69.08176391367086,57.624131262471025,3.4540881956835428,0.9051577372183646,Right,Correct,0.0,0.0,-45,45,2007,946,-0.84
"{'cat': 'II', 'resp': 'reach'}",24,327,Right,45.52738578594631,22.04554414737609,2.2763692892973153,0.34629059768893095,Right,Correct,0.0,0.0,-45,45,2008,910,-0.81
"{'cat': 'II', 'resp': 'reach'}",24,328,Right,68.66175283012505,49.8195798486491,3.433087641506253,0.7825641302872305,Right,Correct,0.0,0.0,-45,45,2009,901,-0.79
"{'cat': 'II', 'resp': 'reach'}",24,329,Left,33.90039418001918,46.21481514554996,1.6950197090009589,0.7259406187413504,Left,Correct,0.0,0.0,-45,45,2007,3880,-2.43
"{'cat': 'II', 'resp': 'reach'}",24,330,Left,58.220369531279964,84.66641553378102,2.911018476563998,1.329936945233536,Left,Correct,0.0,0.0,-45,45,2001,1173,-2.32
"{'cat': 'II', 'resp': 'reach'}",24,331,Right,59.56349688564745,38.39261223733841,2.9781748442823726,0.6030697427847197,Right,Correct,0.0,0.0,-45,45,2004,1158,-0.79
"{'cat': 'II', 'resp': 'reach'}",24,332,Right,67.68049286541753,39.80633771395079,3.3840246432708767,0.6252764906423106,Right,Correct,0.0,0.0,-45,45,2006,884,-0.77
"{'cat': 'II', 'resp': 'reach'}",24,333,Left,28.783074781693255,60.05056438085948,1.4391537390846627,0.9432720595141452,Left,Correct,0.0,0.0,-45,45,2011,1079,-2.42
"{'cat': 'II', 'resp': 'reach'}",24,334,Right,60.57912946800718,30.809147981265294,3.028956473400359,0.4839489648065193,Right,Correct,0.0,0.0,-45,45,2005,757,-0.83
"{'cat': 'II', 'resp': 'reach'}",24,335,Left,44.00949613638491,65.1569368169057,2.2004748068192455,1.0234827701720264,Left,Correct,0.0,0.0,-45,45,2005,3224,-2.33
"{'cat': 'II', 'resp': 'reach'}",24,336,Right,41.50590312417971,26.406810727969876,2.075295156208986,0.41479721293863153,Right,Correct,0.0,0.0,-45,45,2012,1208,-0.8
"{'cat': 'II', 'resp': 'reach'}",24,337,Left,54.7192689071331,72.99775048888165,2.7359634453566546,1.1466459833222566,Left,Correct,0.0,0.0,-45,45,2013,1200,-2.42
"{'cat': 'II', 'resp': 'reach'}",24,338,Left,52.79253460862632,63.22374479323788,2.6396267304313157,0.9931162608743602,Right,Incorrect,0.0,0.0,-45,45,2002,1712,-0.84
"{'cat': 'II', 'resp': 'reach'}",24,339,Right,51.22051825075539,36.869320987246894,2.5610259125377697,0.5791419397818941,Right,Correct,0.0,0.0,-45,45,2010,674,-0.72
"{'cat': 'II', 'resp': 'reach'}",24,340,Right,43.49810076737413,25.299399817563916,2.1749050383687067,0.39740204303544874,Right,Correct,0.0,0.0,-45,45,2006,871,-0.84
"{'cat': 'II', 'resp': 'reach'}",24,341,Right,56.099459168495564,41.63905019286044,2.804972958424778,0.6540646709417349,Right,Correct,0.0,0.0,-45,45,2002,749,-0.81
"{'cat': 'II', 'resp': 'reach'}",24,342,Left,56.795188289887015,82.83221587276259,2.8397594144943508,1.301125404332174,Left,Correct,0.0,0.0,-45,45,2005,1304,-2.41
"{'cat': 'II', 'resp': 'reach'}",24,343,Right,47.16248166256197,29.3726248940592,2.3581240831280983,0.4613841129191253,Right,Correct,0.0,0.0,-45,45,2004,755,-0.83
"{'cat': 'II', 'resp': 'reach'}",24,344,Right,59.49211048247288,29.302303001779677,2.974605524123644,0.4602794992182659,Right,Correct,0.0,0.0,-45,45,2008,928,-0.76
"{'cat': 'II', 'resp': 'reach'}",24,345,Left,53.33218595123493,63.10863442193534,2.6666092975617466,0.9913081113901799,Left,Correct,0.0,0.0,-45,45,2009,1076,-2.4
"{'cat': 'II', 'resp': 'reach'}",24,346,Left,28.62714927069456,49.036624118237775,1.431357463534728,0.7702654904334993,Left,Correct,0.0,0.0,-45,45,2009,989,-2.46
"{'cat': 'II', 'resp': 'reach'}",24,347,Left,36.03187420284468,52.96033776750964,1.8015937101422341,0.8318990403102119,Left,Correct,0.0,0.0,-45,45,2005,1354,-2.37
"{'cat': 'II', 'resp': 'reach'}",24,348,Right,56.35857453105897,25.585067278060237,2.8179287265529482,0.4018892970117732,Right,Correct,0.0,0.0,-45,45,2003,844,-0.82
"{'cat': 'II', 'resp': 'reach'}",24,349,Left,50.73505325867082,63.31183241846072,2.536752662933541,0.9944999380557215,Left,Correct,0.0,0.0,-45,45,2013,1416,-2.39
"{'cat': 'II', 'resp': 'reach'}",24,350,Left,44.604265056119885,53.972485571821025,2.2302132528059944,0.8477978208420702,Left,Correct,0.0,0.0,-45,45,2003,1014,-2.36
"{'cat': 'II', 'resp': 'reach'}",24,351,Right,39.14877622929994,20.100337605187462,1.957438811464997,0.3157353647756579,Right,Correct,0.0,0.0,-45,45,2007,769,-0.77
"{'cat': 'II', 'resp': 'reach'}",24,352,Left,31.477501294677467,43.25805591518445,1.5738750647338733,0.6794959533585998,Left,Correct,0.0,0.0,-45,45,2007,1138,-2.35
"{'cat': 'II', 'resp': 'reach'}",24,353,Right,34.75360480119616,19.057320292873495,1.7376802400598081,0.29935168714599525,Right,Correct,0.0,0.0,-45,45,2004,2048,-0.79
"{'cat': 'II', 'resp': 'reach'}",24,354,Right,64.99490041664743,52.054477063826184,3.249745020832371,0.8176698136508737,Right,Correct,0.0,0.0,-45,45,2003,1540,-0.8
"{'cat': 'II', 'resp': 'reach'}",24,355,Right,47.5737188895662,32.38737384754882,2.37868594447831,0.5087396787426278,Right,Correct,0.0,0.0,-45,45,2009,945,-0.83
"{'cat': 'II', 'resp': 'reach'}",24,356,Left,43.82711871917842,52.9643695917631,2.191355935958921,0.831962372057488,Right,Incorrect,0.0,0.0,-45,45,2003,4163,-0.8
"{'cat': 'II', 'resp': 'reach'}",24,357,Right,74.09487830766375,44.924076058186245,3.7047439153831876,0.7056657365685352,Right,Correct,0.0,0.0,-45,45,2008,683,-0.73
"{'cat': 'II', 'resp': 'reach'}",24,358,Right,42.98665935328934,29.697518666395517,2.149332967664467,0.4664875323609695,Right,Correct,0.0,0.0,-45,45,2002,848,-0.81
"{'cat': 'II', 'resp': 'reach'}",24,359,Right,55.75180905614547,46.48931578360167,2.7875904528072732,0.7302524646808951,Right,Correct,0.0,0.0,-45,45,2009,891,-0.81
"{'cat': 'II', 'resp': 'reach'}",24,360,Left,48.11183802422686,79.06206211356164,2.405591901211343,1.2419039675681256,Left,Correct,0.0,0.0,-45,45,2006,1279,-2.41
"{'cat': 'II', 'resp': 'reach'}",24,361,Left,43.39647681406697,52.330392989457394,2.1698238407033488,0.8220038908757308,Right,Incorrect,0.0,0.0,-45,45,2009,841,-0.83
"{'cat': 'II', 'resp': 'reach'}",24,362,Left,28.41263320572068,37.919877468458594,1.420631660286034,0.5956440423996733,Left,Correct,0.0,0.0,-45,45,2004,994,-2.35
"{'cat': 'II', 'resp': 'reach'}",24,363,Right,75.64522454745699,49.76672076452889,3.78226122737285,0.781733821735493,Right,Correct,0.0,0.0,-45,45,2005,850,-0.86
"{'cat': 'II', 'resp': 'reach'}",24,364,Left,49.359125728780846,68.07002142716262,2.4679562864390423,1.0692413962263696,Left,Correct,0.0,0.0,-45,45,2008,1352,-2.43
"{'cat': 'II', 'resp': 'reach'}",24,365,Left,58.24801167399036,84.73995972596568,2.9124005836995184,1.3310921747029434,Left,Correct,0.0,0.0,-45,45,2001,1364,-2.35
"{'cat': 'II', 'resp': 'reach'}",24,366,Right,53.91031493962037,44.69955676860823,2.6955157469810183,0.7021389958148977,Right,Correct,0.0,0.0,-45,45,2001,1100,-0.79
"{'cat': 'II', 'resp': 'reach'}",24,367,Left,50.090379635717575,81.24429675996045,2.504518981785879,1.2761824292358037,Left,Correct,0.0,0.0,-45,45,2008,1043,-2.41
"{'cat': 'II', 'resp': 'reach'}",24,368,Left,41.53247037964467,70.5195610344278,2.0766235189822337,1.107718674400677,Left,Correct,0.0,0.0,-45,45,2002,920,-2.31
"{'cat': 'II', 'resp': 'reach'}",24,369,Left,38.04624734514682,63.0746907657475,1.9023123672573408,0.9907749256856015,Left,Correct,0.0,0.0,-45,45,2007,1068,-2.39
"{'cat': 'II', 'resp': 'reach'}",24,370,Right,41.83573618034522,14.106636771289132,2.091786809017261,0.2215865322377079,Right,Correct,0.0,0.0,-45,45,2002,908,-0.8
"{'cat': 'II', 'resp': 'reach'}",24,371,Right,61.513255867399934,30.7873966144931,3.0756627933699967,0.48360729513623396,Right,Correct,0.0,0.0,-45,45,2002,856,-0.84
"{'cat': 'II', 'resp': 'reach'}",24,372,Right,79.87345289011564,55.12540285697953,3.993672644505782,0.8659078032083234,Right,Correct,0.0,0.0,-45,45,2006,843,-0.79
"{'cat': 'II', 'resp': 'reach'}",24,373,Left,58.997259825398665,84.23457924215063,2.9498629912699332,1.3231536766268386,Left,Correct,0.0,0.0,-45,45,2002,1014,-2.42
"{'cat': 'II', 'resp': 'reach'}",24,374,Right,89.12707885960909,65.13474275950739,4.456353942980454,1.0231341467336468,Right,Correct,0.0,0.0,-45,45,2001,1080,-0.82
"{'cat': 'II', 'resp': 'reach'}",24,375,Right,52.637270798430706,27.26555263623635,2.631863539921535,0.4282862992903297,Right,Correct,0.0,0.0,-45,45,2006,883,-0.8
"{'cat': 'II', 'resp': 'reach'}",24,376,Left,38.9126507572462,47.7943464595982,1.9456325378623098,0.7507518386029953,Left,Correct,0.0,0.0,-45,45,2009,4735,-2.15
"{'cat': 'II', 'resp': 'reach'}",24,377,Left,43.555814708159446,74.56751220678134,2.1777907354079726,1.1713037427264577,Left,Correct,0.0,0.0,-45,45,2004,1051,-2.45
"{'cat': 'II', 'resp': 'reach'}",24,378,Right,59.710765651098995,31.4332964815088,2.9855382825549497,0.4937530665220898,Right,Correct,0.0,0.0,-45,45,2007,850,-0.77
"{'cat': 'II', 'resp': 'reach'}",24,379,Right,72.60760189114153,43.26555830883237,3.6303800945570766,0.6796138006824429,Right,Correct,0.0,0.0,-45,45,2004,810,-0.85
"{'cat': 'II', 'resp': 'reach'}",24,380,Left,32.03238771738338,40.297240941187425,1.601619385869169,0.6329875805038613,Left,Correct,0.0,0.0,-45,45,2008,1285,-2.43
"{'cat': 'II', 'resp': 'reach'}",24,381,Left,47.924796956494134,55.51821116642283,2.396239847824707,0.8720780217044038,Left,Correct,0.0,0.0,-45,45,2001,1812,-2.41
"{'cat': 'II', 'resp': 'reach'}",24,382,Left,68.55447645474285,85.03449994119431,3.4277238227371423,1.3357188015846888,Left,Correct,0.0,0.0,-45,45,2005,1313,-2.34
"{'cat': 'II', 'resp': 'reach'}",24,383,Left,59.37009850732122,71.18821506202542,2.968504925366061,1.1182218673051467,Left,Correct,0.0,0.0,-45,45,2007,1221,-2.39
"{'cat': 'II', 'resp': 'reach'}",24,384,Right,68.16425783002818,39.373010896328324,3.408212891501409,0.6184698089080797,Right,Correct,0.0,0.0,-45,45,2012,1387,-0.85
"{'cat': 'II', 'resp': 'reach'}",24,385,Left,39.30318594131189,64.41876558536006,1.9651592970655942,1.0118876035814508,Left,Correct,0.0,0.0,-45,45,2002,1083,-2.31
"{'cat': 'II', 'resp': 'reach'}",24,386,Right,49.706636194526666,42.38741617255775,2.485331809726333,0.665819976261803,Right,Correct,0.0,0.0,-45,45,2003,977,-0.84
"{'cat': 'II', 'resp': 'reach'}",24,387,Right,54.982332398355666,46.08988768936141,2.749116619917783,0.7239782628483823,Right,Correct,0.0,0.0,-45,45,2006,860,-0.81
"{'cat': 'II', 'resp': 'reach'}",24,388,Left,51.620630303254174,81.29208166771542,2.581031515162709,1.276933032811581,Left,Correct,0.0,0.0,-45,45,2005,1160,-2.38
"{'cat': 'II', 'resp': 'reach'}",24,389,Left,43.335579346972196,69.44867683229006,2.16677896734861,1.0908972646892707,Left,Correct,0.0,0.0,-45,45,2001,1033,-2.38
"{'cat': 'II', 'resp': 'reach'}",24,390,Right,52.71926824622476,35.71884207816599,2.635963412311238,0.5610702593375012,Right,Correct,0.0,0.0,-45,45,2006,924,-0.82
"{'cat': 'II', 'resp': 'reach'}",24,391,Left,53.6015685920844,66.87295392058542,2.68007842960422,1.0504379038037994,Left,Correct,0.0,0.0,-45,45,2002,2840,-2.46
"{'cat': 'II', 'resp': 'reach'}",24,392,Left,34.64155048871218,67.41224546410558,1.7320775244356088,1.0589090755601296,Left,Correct,0.0,0.0,-45,45,2004,1018,-2.31
"{'cat': 'II', 'resp': 'reach'}",24,393,Right,47.015355934863926,39.06794021974613,2.350767796743196,0.6136777699261983,Right,Correct,0.0,0.0,-45,45,2001,812,-0.77
"{'cat': 'II', 'resp': 'reach'}",24,394,Right,47.901415348091106,18.95160123807849,2.3950707674045555,0.29769105611655305,Right,Correct,0.0,0.0,-45,45,2008,871,-0.87
"{'cat': 'II', 'resp': 'reach'}",24,395,Left,32.062407919375325,62.431704898877555,1.603120395968766,0.9806749273069981,Left,Correct,0.0,0.0,-45,45,2008,1095,-2.34
"{'cat': 'II', 'resp': 'reach'}",24,396,Right,78.16288218347228,61.64817269882147,3.9081441091736138,0.9683672322892619,Left,Incorrect,0.0,0.0,-45,45,2009,1919,-2.34
"{'cat': 'II', 'resp': 'reach'}",24,397,Right,84.20489710944852,59.34499769814633,4.2102448554724266,0.9321890439789984,Right,Correct,0.0,0.0,-45,45,2009,1542,-0.86
"{'cat': 'II', 'resp': 'reach'}",24,398,Right,66.59860549689336,50.84910262921275,3.329930274844668,0.7987358363078411,Right,Correct,0.0,0.0,-45,45,2001,849,-0.78
"{'cat': 'II', 'resp': 'reach'}",24,399,Left,53.35529231295308,77.81464201840969,2.667764615647654,1.2223095385337774,Left,Correct,0.0,0.0,-45,45,2006,1181,-2.27
