condition,subject,trial,cat,x,y,xt,yt,resp,fb,rotation,su,target_angle_left,target_angle_right,rt,mt,ep
"{'cat': 'II', 'resp': 'button'}",43,0,Left,28.901146842333944,39.411250182240366,1.4450573421166972,0.6190704702065787,Right,Incorrect,0.0,0.0,-45,45,3128,-1,-1
"{'cat': 'II', 'resp': 'button'}",43,1,Right,51.70487113474153,33.399256303776696,2.5852435567370766,0.5246342911965374,Right,Correct,0.0,0.0,-45,45,1234,-1,-1
"{'cat': 'II', 'resp': 'button'}",43,2,Left,29.169459314784525,45.351447893375514,1.4584729657392261,0.7123788776574441,Right,Incorrect,0.0,0.0,-45,45,831,-1,-1
"{'cat': 'II', 'resp': 'button'}",43,3,Left,34.08302232368376,44.887347971933345,1.704151116184188,0.7050888131387726,Right,Incorrect,0.0,0.0,-45,45,1283,-1,-1
"{'cat': 'II', 'resp': 'button'}",43,4,Left,50.27880828118143,80.5346701869074,2.5139404140590718,1.2650356410923262,Right,Incorrect,0.0,0.0,-45,45,1358,-1,-1
"{'cat': 'II', 'resp': 'button'}",43,5,Right,81.50960817656753,63.82010324001915,4.075480408828376,1.0024838374509317,Left,Incorrect,0.0,0.0,-45,45,943,-1,-1
"{'cat': 'II', 'resp': 'button'}",43,6,Right,48.72869794451578,34.539398076392814,2.436434897225789,0.5425435962810454,Right,Correct,0.0,0.0,-45,45,796,-1,-1
"{'cat': 'II', 'resp': 'button'}",43,7,Left,44.146668196473264,57.58721703349772,2.207333409823663,0.9045778898655873,Right,Incorrect,0.0,0.0,-45,45,1395,-1,-1
"{'cat': 'II', 'resp': 'button'}",43,8,Left,67.88215527313116,87.97531783426994,3.394107763656558,1.381913061026848,Left,Correct,0.0,0.0,-45,45,1380,-1,-1
"{'cat': 'II', 'resp': 'button'}",43,9,Right,76.0721393482059,46.584231072360524,3.803606967410295,0.7317433905502859,Left,Incorrect,0.0,0.0,-45,45,1312,-1,-1
"{'cat': 'II', 'resp': 'button'}",43,10,Right,61.651462938512076,29.906145373508338,3.0825731469256037,0.46976463301301086,Left,Incorrect,0.0,0.0,-45,45,1547,-1,-1
"{'cat': 'II', 'resp': 'button'}",43,11,Left,29.21179169239319,43.10101650300231,1.4605895846196597,0.6770291840404224,Right,Incorrect,0.0,0.0,-45,45,1219,-1,-1
"{'cat': 'II', 'resp': 'button'}",43,12,Right,55.70374517843871,30.66132553638815,2.785187258921935,0.4816269752722107,Right,Correct,0.0,0.0,-45,45,1748,-1,-1
"{'cat': 'II', 'resp': 'button'}",43,13,Right,84.57348300168582,61.82214444402503,4.228674150084291,0.9710999740725803,Right,Correct,0.0,0.0,-45,45,1793,-1,-1
"{'cat': 'II', 'resp': 'button'}",43,14,Left,12.018191058798102,33.084645281522754,0.6009095529399051,0.5196923928152805,Left,Correct,0.0,0.0,-45,45,2141,-1,-1
"{'cat': 'II', 'resp': 'button'}",43,15,Left,42.08498517322251,73.60105870819994,2.1042492586611257,1.15612272667056,Right,Incorrect,0.0,0.0,-45,45,2016,-1,-1
"{'cat': 'II', 'resp': 'button'}",43,16,Left,27.59149362037396,42.4669380511006,1.3795746810186982,0.6670691030089524,Right,Incorrect,0.0,0.0,-45,45,2807,-1,-1
"{'cat': 'II', 'resp': 'button'}",43,17,Right,37.825224986882716,22.798454008369884,1.8912612493441359,0.35811727812949806,Left,Incorrect,0.0,0.0,-45,45,2459,-1,-1
"{'cat': 'II', 'resp': 'button'}",43,18,Left,61.801073136983774,74.6275471437577,3.0900536568491885,1.1722467693112755,Left,Correct,0.0,0.0,-45,45,4137,-1,-1
"{'cat': 'II', 'resp': 'button'}",43,19,Right,58.63924020646309,44.78796854163625,2.9319620103231547,0.703527764698076,Left,Incorrect,0.0,0.0,-45,45,939,-1,-1
"{'cat': 'II', 'resp': 'button'}",43,20,Right,87.84869318320365,69.54981374514867,4.392434659160182,1.0924859196014873,Right,Correct,0.0,0.0,-45,45,4735,-1,-1
"{'cat': 'II', 'resp': 'button'}",43,21,Right,63.228799677246954,37.96458503075185,3.1614399838623477,0.5963463071459751,Right,Correct,0.0,0.0,-45,45,1044,-1,-1
"{'cat': 'II', 'resp': 'button'}",43,22,Right,48.923506262814634,25.307715940823208,2.4461753131407318,0.3975326723941375,Left,Incorrect,0.0,0.0,-45,45,1143,-1,-1
"{'cat': 'II', 'resp': 'button'}",43,23,Right,62.504133887813424,44.847597581371794,3.125206694390671,0.704464415463945,Right,Correct,0.0,0.0,-45,45,799,-1,-1
"{'cat': 'II', 'resp': 'button'}",43,24,Left,65.0960480391235,80.711411442001,3.254802401956175,1.2678118862352674,Right,Incorrect,0.0,0.0,-45,45,1074,-1,-1
"{'cat': 'II', 'resp': 'button'}",43,25,Right,74.91321715636164,48.39136109450767,3.745660857818082,0.7601297225585811,Right,Correct,0.0,0.0,-45,45,1215,-1,-1
"{'cat': 'II', 'resp': 'button'}",43,26,Right,50.903789866241624,35.575799829494585,2.545189493312081,0.5588233569496059,Left,Incorrect,0.0,0.0,-45,45,1089,-1,-1
"{'cat': 'II', 'resp': 'button'}",43,27,Left,17.649220558292985,38.537202327791434,0.8824610279146492,0.6053409586144654,Left,Correct,0.0,0.0,-45,45,4636,-1,-1
"{'cat': 'II', 'resp': 'button'}",43,28,Right,73.7677097585903,58.199317312979616,3.688385487929515,0.91419273857199,Right,Correct,0.0,0.0,-45,45,2190,-1,-1
"{'cat': 'II', 'resp': 'button'}",43,29,Left,67.17402701500173,80.83717581565197,3.3587013507500867,1.2697873883969937,Left,Correct,0.0,0.0,-45,45,2250,-1,-1
"{'cat': 'II', 'resp': 'button'}",43,30,Right,54.625316545828866,34.934121566331356,2.7312658272914434,0.5487438983619967,Right,Correct,0.0,0.0,-45,45,1551,-1,-1
"{'cat': 'II', 'resp': 'button'}",43,31,Left,30.072333223207796,42.885176852894446,1.5036166611603898,0.6736387827447613,Left,Correct,0.0,0.0,-45,45,1389,-1,-1
"{'cat': 'II', 'resp': 'button'}",43,32,Left,52.99062850432424,69.37980143804857,2.649531425216212,1.0898153725264599,Right,Incorrect,0.0,0.0,-45,45,1248,-1,-1
"{'cat': 'II', 'resp': 'button'}",43,33,Left,25.22193458165968,47.68594193180799,1.261096729082984,0.7490490242623872,Left,Correct,0.0,0.0,-45,45,1093,-1,-1
"{'cat': 'II', 'resp': 'button'}",43,34,Left,44.51238997053727,64.24596727701513,2.2256194985268634,1.0091732941012048,Right,Incorrect,0.0,0.0,-45,45,1812,-1,-1
"{'cat': 'II', 'resp': 'button'}",43,35,Right,44.26089344019593,16.34236648036208,2.2130446720097963,0.256705292384888,Right,Correct,0.0,0.0,-45,45,2414,-1,-1
"{'cat': 'II', 'resp': 'button'}",43,36,Right,41.27150614022715,26.068527845884496,2.063575307011358,0.4094834778526584,Left,Incorrect,0.0,0.0,-45,45,2292,-1,-1
"{'cat': 'II', 'resp': 'button'}",43,37,Left,53.32429912361436,68.92262951388761,2.666214956180718,1.0826341327346019,Right,Incorrect,0.0,0.0,-45,45,683,-1,-1
"{'cat': 'II', 'resp': 'button'}",43,38,Right,64.02563840969341,32.07033065400184,3.201281920484671,0.5037595759040386,Left,Incorrect,0.0,0.0,-45,45,3450,-1,-1
"{'cat': 'II', 'resp': 'button'}",43,39,Left,14.98973082561399,38.84274069701807,0.7494865412806995,0.6101403440952262,Left,Correct,0.0,0.0,-45,45,1072,-1,-1
"{'cat': 'II', 'resp': 'button'}",43,40,Right,71.64031805092242,39.53739090912799,3.5820159025461207,0.6210518841111219,Right,Correct,0.0,0.0,-45,45,3029,-1,-1
"{'cat': 'II', 'resp': 'button'}",43,41,Right,54.62097168730165,44.22786799296942,2.7310485843650825,0.6947297258532594,Left,Incorrect,0.0,0.0,-45,45,2895,-1,-1
"{'cat': 'II', 'resp': 'button'}",43,42,Right,40.483247842562356,26.30226365027697,2.0241623921281175,0.4131549912824599,Left,Incorrect,0.0,0.0,-45,45,831,-1,-1
"{'cat': 'II', 'resp': 'button'}",43,43,Right,50.18994512558278,26.055812199965793,2.509497256279139,0.4092837409536393,Left,Incorrect,0.0,0.0,-45,45,1878,-1,-1
"{'cat': 'II', 'resp': 'button'}",43,44,Right,64.80158171260463,37.68379375168246,3.2400790856302315,0.5919356480483928,Left,Incorrect,0.0,0.0,-45,45,1273,-1,-1
"{'cat': 'II', 'resp': 'button'}",43,45,Left,18.589641163504847,39.10968769563466,0.9294820581752424,0.6143335377439848,Left,Correct,0.0,0.0,-45,45,810,-1,-1
"{'cat': 'II', 'resp': 'button'}",43,46,Right,62.41085172477297,31.042710376690934,3.120542586238648,0.48761775433463944,Right,Correct,0.0,0.0,-45,45,1730,-1,-1
"{'cat': 'II', 'resp': 'button'}",43,47,Right,80.68058931133899,58.0185008683637,4.034029465566949,0.9113524805017222,Right,Correct,0.0,0.0,-45,45,899,-1,-1
"{'cat': 'II', 'resp': 'button'}",43,48,Right,80.66598138201707,54.80745309460807,4.0332990691008535,0.8609134600199394,Right,Correct,0.0,0.0,-45,45,645,-1,-1
"{'cat': 'II', 'resp': 'button'}",43,49,Right,70.6667338185507,51.277405723672544,3.533336690927535,0.8054636055831644,Right,Correct,0.0,0.0,-45,45,526,-1,-1
"{'cat': 'II', 'resp': 'button'}",43,50,Left,48.105224838831354,72.02781102489182,2.405261241941568,1.1314102098497703,Right,Incorrect,0.0,0.0,-45,45,815,-1,-1
"{'cat': 'II', 'resp': 'button'}",43,51,Right,82.39255450621681,53.0228157866881,4.11962772531084,0.8328804427405212,Right,Correct,0.0,0.0,-45,45,1754,-1,-1
"{'cat': 'II', 'resp': 'button'}",43,52,Left,56.012503172995494,70.6538935213356,2.8006251586497743,1.109828764170717,Left,Correct,0.0,0.0,-45,45,1339,-1,-1
"{'cat': 'II', 'resp': 'button'}",43,53,Left,13.187876208497617,37.07233493476585,0.6593938104248808,0.5823308754124031,Left,Correct,0.0,0.0,-45,45,1194,-1,-1
"{'cat': 'II', 'resp': 'button'}",43,54,Left,21.868024230444423,51.40076701224189,1.0934012115222211,0.8074013601726986,Left,Correct,0.0,0.0,-45,45,606,-1,-1
"{'cat': 'II', 'resp': 'button'}",43,55,Right,51.68516948448057,45.04476039792182,2.5842584742240287,0.7075614417441182,Left,Incorrect,0.0,0.0,-45,45,2508,-1,-1
"{'cat': 'II', 'resp': 'button'}",43,56,Right,73.2123828275564,56.92139208768073,3.6606191413778197,0.8941191360738099,Right,Correct,0.0,0.0,-45,45,2511,-1,-1
"{'cat': 'II', 'resp': 'button'}",43,57,Left,29.746970457063263,48.233352392198796,1.4873485228531633,0.757647727666697,Left,Correct,0.0,0.0,-45,45,848,-1,-1
"{'cat': 'II', 'resp': 'button'}",43,58,Left,28.800769694789615,50.2709079814377,1.4400384847394807,0.789653576018866,Left,Correct,0.0,0.0,-45,45,637,-1,-1
"{'cat': 'II', 'resp': 'button'}",43,59,Left,20.35114593415023,35.61753725187561,1.0175572967075115,0.5594789668472662,Left,Correct,0.0,0.0,-45,45,748,-1,-1
"{'cat': 'II', 'resp': 'button'}",43,60,Left,24.013448473096055,39.366402514351904,1.2006724236548028,0.6183660046867335,Left,Correct,0.0,0.0,-45,45,484,-1,-1
"{'cat': 'II', 'resp': 'button'}",43,61,Right,81.58041523506313,63.02498769195024,4.079020761753156,0.98999419162809,Right,Correct,0.0,0.0,-45,45,558,-1,-1
"{'cat': 'II', 'resp': 'button'}",43,62,Right,38.414988532534956,26.206943409334663,1.9207494266267477,0.41165770443904615,Left,Incorrect,0.0,0.0,-45,45,1380,-1,-1
"{'cat': 'II', 'resp': 'button'}",43,63,Right,46.12928694868349,32.2522277028927,2.306464347434175,0.5066168080665645,100,Correct,0.0,0.0,-45,45,4988,-1,-1
"{'cat': 'II', 'resp': 'button'}",43,64,Left,18.970479008640368,32.40881905100609,0.9485239504320184,0.5090765392108083,Left,Correct,0.0,0.0,-45,45,1773,-1,-1
"{'cat': 'II', 'resp': 'button'}",43,65,Left,40.57527772999099,61.925356809396135,2.0287638864995494,0.972721230116628,Left,Correct,0.0,0.0,-45,45,3066,-1,-1
"{'cat': 'II', 'resp': 'button'}",43,66,Left,30.47298087538536,61.53728061782105,1.523649043769268,0.9666253435542008,Left,Correct,0.0,0.0,-45,45,1146,-1,-1
"{'cat': 'II', 'resp': 'button'}",43,67,Right,78.8769738252016,50.67280683740178,3.9438486912600803,0.7959665884857804,Right,Correct,0.0,0.0,-45,45,659,-1,-1
"{'cat': 'II', 'resp': 'button'}",43,68,Right,68.87375960301281,46.68818300807965,3.4436879801506404,0.7333762637381941,Right,Correct,0.0,0.0,-45,45,592,-1,-1
"{'cat': 'II', 'resp': 'button'}",43,69,Left,36.342875317013046,49.55286110437696,1.8171437658506522,0.7783745220493303,Left,Correct,0.0,0.0,-45,45,1172,-1,-1
"{'cat': 'II', 'resp': 'button'}",43,70,Right,31.326945606046152,12.688285720780193,1.5663472803023075,0.19930712603525663,Left,Incorrect,0.0,0.0,-45,45,824,-1,-1
"{'cat': 'II', 'resp': 'button'}",43,71,Right,60.65944630351108,47.73352057220728,3.032972315175554,0.7497963877981183,Right,Correct,0.0,0.0,-45,45,776,-1,-1
"{'cat': 'II', 'resp': 'button'}",43,72,Left,38.2694734299796,63.880113952529044,1.91347367149898,1.0034264835187205,Left,Correct,0.0,0.0,-45,45,934,-1,-1
"{'cat': 'II', 'resp': 'button'}",43,73,Left,55.07225274247017,72.18402385694998,2.753612637123508,1.133863995277722,Right,Incorrect,0.0,0.0,-45,45,803,-1,-1
"{'cat': 'II', 'resp': 'button'}",43,74,Left,36.04186212395493,47.24277466266183,1.8020931061977463,0.7420877690770821,Left,Correct,0.0,0.0,-45,45,2051,-1,-1
"{'cat': 'II', 'resp': 'button'}",43,75,Left,50.43981654780407,72.33583789827267,2.5219908273902036,1.1362486846623778,Right,Incorrect,0.0,0.0,-45,45,1020,-1,-1
"{'cat': 'II', 'resp': 'button'}",43,76,Right,73.96045836567774,62.593884846178,3.6980229182838866,0.9832224439619913,Right,Correct,0.0,0.0,-45,45,3370,-1,-1
"{'cat': 'II', 'resp': 'button'}",43,77,Left,22.305537983322253,37.90423251431016,1.1152768991661126,0.5953982920345808,Left,Correct,0.0,0.0,-45,45,839,-1,-1
"{'cat': 'II', 'resp': 'button'}",43,78,Left,67.27362988064581,89.54734622109322,3.3636814940322903,1.4066064251832409,Right,Incorrect,0.0,0.0,-45,45,572,-1,-1
"{'cat': 'II', 'resp': 'button'}",43,79,Left,53.22315651924113,65.3399973717039,2.6611578259620563,1.0263582786426069,Left,Correct,0.0,0.0,-45,45,3007,-1,-1
"{'cat': 'II', 'resp': 'button'}",43,80,Right,52.70493234444217,32.341248913264465,2.6352466172221085,0.5080151499691526,Left,Incorrect,0.0,0.0,-45,45,754,-1,-1
"{'cat': 'II', 'resp': 'button'}",43,81,Left,56.12898370503351,67.71545761302366,2.8064491852516755,1.063671920857731,Right,Incorrect,0.0,0.0,-45,45,1754,-1,-1
"{'cat': 'II', 'resp': 'button'}",43,82,Left,52.13989674183891,59.96196760801304,2.606994837091946,0.9418803846606145,Right,Incorrect,0.0,0.0,-45,45,541,-1,-1
"{'cat': 'II', 'resp': 'button'}",43,83,Left,57.75975196372691,81.65224872806854,2.8879875981863457,1.2825905237659332,Left,Correct,0.0,0.0,-45,45,477,-1,-1
"{'cat': 'II', 'resp': 'button'}",43,84,Right,54.456147317569034,41.5428754056888,2.722807365878452,0.65255396091754,Left,Incorrect,0.0,0.0,-45,45,496,-1,-1
"{'cat': 'II', 'resp': 'button'}",43,85,Left,56.64548843574367,66.02481255518731,2.832274421787184,1.037115330390098,Right,Incorrect,0.0,0.0,-45,45,1437,-1,-1
"{'cat': 'II', 'resp': 'button'}",43,86,Left,16.976603450301013,45.61548653632621,0.8488301725150507,0.7165263869622327,Left,Correct,0.0,0.0,-45,45,861,-1,-1
"{'cat': 'II', 'resp': 'button'}",43,87,Right,60.92940243710734,39.71641732227633,3.046470121855367,0.6238640244328486,Right,Correct,0.0,0.0,-45,45,1010,-1,-1
"{'cat': 'II', 'resp': 'button'}",43,88,Left,47.041685005083266,64.87177924983499,2.3520842502541632,1.019003525582902,Left,Correct,0.0,0.0,-45,45,1371,-1,-1
"{'cat': 'II', 'resp': 'button'}",43,89,Left,59.68609896494342,80.21688804835102,2.984304948247171,1.260043930932672,Right,Incorrect,0.0,0.0,-45,45,1143,-1,-1
"{'cat': 'II', 'resp': 'button'}",43,90,Left,54.569029302493135,67.2035834443129,2.728451465124657,1.0556314202178103,Left,Correct,0.0,0.0,-45,45,2038,-1,-1
"{'cat': 'II', 'resp': 'button'}",43,91,Right,46.10245959070531,34.098256907088434,2.3051229795352652,0.5356141669976323,107,Incorrect,0.0,0.0,-45,45,1289,-1,-1
"{'cat': 'II', 'resp': 'button'}",43,92,Right,38.35149768308736,26.194980184736202,1.917574884154368,0.41146978654648725,Right,Correct,0.0,0.0,-45,45,1136,-1,-1
"{'cat': 'II', 'resp': 'button'}",43,93,Left,54.037012556653806,72.57892889659534,2.70185062783269,1.1400671491347993,Left,Correct,0.0,0.0,-45,45,1109,-1,-1
"{'cat': 'II', 'resp': 'button'}",43,94,Left,50.189368475364034,74.24491824674044,2.509468423768202,1.1662364486516728,Right,Incorrect,0.0,0.0,-45,45,1584,-1,-1
"{'cat': 'II', 'resp': 'button'}",43,95,Right,89.06875687027714,65.75034212901772,4.453437843513857,1.0328039590176878,Left,Incorrect,0.0,0.0,-45,45,1434,-1,-1
"{'cat': 'II', 'resp': 'button'}",43,96,Right,41.346308539929666,25.548996833277474,2.0673154269964833,0.40132270379006696,Right,Correct,0.0,0.0,-45,45,2027,-1,-1
"{'cat': 'II', 'resp': 'button'}",43,97,Left,26.750718461832506,51.37134822672191,1.337535923091625,0.8069392509703631,Left,Correct,0.0,0.0,-45,45,730,-1,-1
"{'cat': 'II', 'resp': 'button'}",43,98,Left,42.37500053216889,65.5890040921102,2.1187500266084442,1.0302696670602214,Right,Incorrect,0.0,0.0,-45,45,873,-1,-1
"{'cat': 'II', 'resp': 'button'}",43,99,Right,58.66301469557503,37.497913887511196,2.9331507347787515,0.5890158539697392,Right,Correct,0.0,0.0,-45,45,3472,-1,-1
"{'cat': 'II', 'resp': 'button'}",43,100,Left,49.383409459785014,80.6978756677585,2.4691704729892505,1.2675992667906633,Right,Incorrect,0.0,0.0,-45,45,1369,-1,-1
"{'cat': 'II', 'resp': 'button'}",43,101,Right,73.08933760329498,43.59677932135458,3.6544668801647493,0.6848166081807149,Right,Correct,0.0,0.0,-45,45,1089,-1,-1
"{'cat': 'II', 'resp': 'button'}",43,102,Right,74.27115006045109,45.03639975885067,3.7135575030225545,0.707430113132692,Right,Correct,0.0,0.0,-45,45,625,-1,-1
"{'cat': 'II', 'resp': 'button'}",43,103,Left,68.47331632430088,87.37586699261635,3.4236658162150437,1.3724969092252122,Right,Incorrect,0.0,0.0,-45,45,447,-1,-1
"{'cat': 'II', 'resp': 'button'}",43,104,Right,53.00243523378514,22.75785081632719,2.650121761689257,0.35747948468032986,Left,Incorrect,0.0,0.0,-45,45,3015,-1,-1
"{'cat': 'II', 'resp': 'button'}",43,105,Right,88.10049026499067,62.353912558434416,4.405024513249533,0.9794529680807895,Right,Correct,0.0,0.0,-45,45,835,-1,-1
"{'cat': 'II', 'resp': 'button'}",43,106,Left,67.7208079861619,87.90417374057705,3.386040399308095,1.3807955322163883,Right,Incorrect,0.0,0.0,-45,45,1145,-1,-1
"{'cat': 'II', 'resp': 'button'}",43,107,Right,57.43664109514332,49.767946127518904,2.871832054757166,0.7817530696923299,Right,Correct,0.0,0.0,-45,45,1557,-1,-1
"{'cat': 'II', 'resp': 'button'}",43,108,Left,51.330661780268066,59.127167940794465,2.566533089013403,0.9287673821518491,Left,Correct,0.0,0.0,-45,45,805,-1,-1
"{'cat': 'II', 'resp': 'button'}",43,109,Right,41.2665254979961,18.918448039681724,2.063326274899805,0.29717028689392166,Left,Incorrect,0.0,0.0,-45,45,910,-1,-1
"{'cat': 'II', 'resp': 'button'}",43,110,Right,76.92110427485461,59.67105723295297,3.8460552137427304,0.9373107751749057,Right,Correct,0.0,0.0,-45,45,635,-1,-1
"{'cat': 'II', 'resp': 'button'}",43,111,Right,51.04214868251093,35.219131508471364,2.552107434125546,0.5532208240641323,107,Incorrect,0.0,0.0,-45,45,689,-1,-1
"{'cat': 'II', 'resp': 'button'}",43,112,Right,45.29788098808207,28.006716000160043,2.2648940494041034,0.4399284661863925,Left,Incorrect,0.0,0.0,-45,45,1474,-1,-1
"{'cat': 'II', 'resp': 'button'}",43,113,Right,38.62550751989199,14.736867446433102,1.9312753759945993,0.23148617253320405,Right,Correct,0.0,0.0,-45,45,930,-1,-1
"{'cat': 'II', 'resp': 'button'}",43,114,Right,58.39719116786739,40.77838545943739,2.9198595583933695,0.6405453809231066,107,Incorrect,0.0,0.0,-45,45,1555,-1,-1
"{'cat': 'II', 'resp': 'button'}",43,115,Right,79.61980727462259,58.149817114054535,3.9809903637311295,0.9134151912655186,Right,Correct,0.0,0.0,-45,45,723,-1,-1
"{'cat': 'II', 'resp': 'button'}",43,116,Left,29.96561216153483,52.62643421538002,1.4982806080767415,0.8266540955783219,Left,Correct,0.0,0.0,-45,45,839,-1,-1
"{'cat': 'II', 'resp': 'button'}",43,117,Left,25.949567796224343,54.02582302459755,1.2974783898112172,0.8486356435910898,Left,Correct,0.0,0.0,-45,45,2046,-1,-1
"{'cat': 'II', 'resp': 'button'}",43,118,Right,81.28495989324684,52.0132208885622,4.064247994662342,0.8170217631652509,Right,Correct,0.0,0.0,-45,45,1517,-1,-1
"{'cat': 'II', 'resp': 'button'}",43,119,Left,26.09826713126448,54.203551814942095,1.304913356563224,0.8514274009014788,Left,Correct,0.0,0.0,-45,45,912,-1,-1
"{'cat': 'II', 'resp': 'button'}",43,120,Left,21.263291329283156,48.64671046979494,1.0631645664641578,0.7641407411660872,Left,Correct,0.0,0.0,-45,45,1292,-1,-1
"{'cat': 'II', 'resp': 'button'}",43,121,Right,44.809048880539336,19.792455048691373,2.2404524440269666,0.3108991568873751,Right,Correct,0.0,0.0,-45,45,536,-1,-1
"{'cat': 'II', 'resp': 'button'}",43,122,Left,66.39293277192766,82.81139140209686,3.3196466385963834,1.300798294311882,Left,Correct,0.0,0.0,-45,45,1357,-1,-1
"{'cat': 'II', 'resp': 'button'}",43,123,Left,51.093344157400054,70.25470917750923,2.554667207870003,1.103558391160752,Left,Correct,0.0,0.0,-45,45,1194,-1,-1
"{'cat': 'II', 'resp': 'button'}",43,124,Right,50.666738261482934,31.374899925060955,2.5333369130741463,0.4928357755584322,Right,Correct,0.0,0.0,-45,45,3293,-1,-1
"{'cat': 'II', 'resp': 'button'}",43,125,Left,39.173697634897174,63.20282054311197,1.9586848817448586,0.9927875835219733,Left,Correct,0.0,0.0,-45,45,2054,-1,-1
"{'cat': 'II', 'resp': 'button'}",43,126,Right,61.590096705122214,47.842449451977245,3.0795048352561105,0.7515074386403637,Right,Correct,0.0,0.0,-45,45,642,-1,-1
"{'cat': 'II', 'resp': 'button'}",43,127,Left,32.182981044129804,65.57065936628841,1.6091490522064902,1.0299815087808522,Left,Correct,0.0,0.0,-45,45,796,-1,-1
"{'cat': 'II', 'resp': 'button'}",43,128,Left,29.174461737332667,49.10973509523728,1.4587230868666332,0.7714139149746915,Left,Correct,0.0,0.0,-45,45,1288,-1,-1
"{'cat': 'II', 'resp': 'button'}",43,129,Right,89.07380010177778,65.38569473206584,4.453690005088889,1.0270760911006145,Right,Correct,0.0,0.0,-45,45,3657,-1,-1
"{'cat': 'II', 'resp': 'button'}",43,130,Right,85.88237292663254,58.272347892133894,4.294118646331627,0.9153399002267825,Right,Correct,0.0,0.0,-45,45,1163,-1,-1
"{'cat': 'II', 'resp': 'button'}",43,131,Left,19.2481948421936,32.428641957449415,0.96240974210968,0.509387916697084,Left,Correct,0.0,0.0,-45,45,1264,-1,-1
"{'cat': 'II', 'resp': 'button'}",43,132,Left,56.28848154861329,71.21339829820243,2.8144240774306644,1.1186174446539832,Right,Incorrect,0.0,0.0,-45,45,1029,-1,-1
"{'cat': 'II', 'resp': 'button'}",43,133,Left,28.03501067175207,52.03827265489088,1.4017505335876035,0.817415275390539,Left,Correct,0.0,0.0,-45,45,1075,-1,-1
"{'cat': 'II', 'resp': 'button'}",43,134,Right,76.51615464000153,48.65586903811184,3.8258077320000767,0.7642846036207961,Right,Correct,0.0,0.0,-45,45,1412,-1,-1
"{'cat': 'II', 'resp': 'button'}",43,135,Left,27.542164472844625,41.92634428764044,1.3771082236422314,0.658577476029638,Left,Correct,0.0,0.0,-45,45,697,-1,-1
"{'cat': 'II', 'resp': 'button'}",43,136,Right,34.63073744470852,15.021406083768326,1.7315368722354263,0.235955694996778,Left,Incorrect,0.0,0.0,-45,45,857,-1,-1
"{'cat': 'II', 'resp': 'button'}",43,137,Right,82.60915359528664,60.283333381210426,4.130457679764333,0.9469283864215751,Right,Correct,0.0,0.0,-45,45,777,-1,-1
"{'cat': 'II', 'resp': 'button'}",43,138,Right,74.60193708441491,53.3854869031519,3.7300968542207453,0.8385772673162807,Right,Correct,0.0,0.0,-45,45,1128,-1,-1
"{'cat': 'II', 'resp': 'button'}",43,139,Right,49.66989465369255,23.493734697105864,2.4834947326846275,0.36903872164907703,Left,Incorrect,0.0,0.0,-45,45,6169,-1,-1
"{'cat': 'II', 'resp': 'button'}",43,140,Left,39.41942931713165,71.91817785650058,1.9709714658565827,1.1296880960677316,Left,Correct,0.0,0.0,-45,45,1035,-1,-1
"{'cat': 'II', 'resp': 'button'}",43,141,Right,39.571975074389286,22.70498909438464,1.9785987537194643,0.35664913469377574,Left,Incorrect,0.0,0.0,-45,45,964,-1,-1
"{'cat': 'II', 'resp': 'button'}",43,142,Right,65.20659817647591,45.12098082052925,3.2603299088237954,0.7087587093427032,Right,Correct,0.0,0.0,-45,45,672,-1,-1
"{'cat': 'II', 'resp': 'button'}",43,143,Right,53.55362819939546,33.15486289352392,2.677681409969773,0.5207953684853579,Right,Correct,0.0,0.0,-45,45,951,-1,-1
"{'cat': 'II', 'resp': 'button'}",43,144,Right,77.1219786384077,60.32907351492112,3.856098931920385,0.9476468707617738,Right,Correct,0.0,0.0,-45,45,1950,-1,-1
"{'cat': 'II', 'resp': 'button'}",43,145,Right,61.154901360329504,41.7038548506477,3.0577450680164753,0.6550826201258494,Right,Correct,0.0,0.0,-45,45,1536,-1,-1
"{'cat': 'II', 'resp': 'button'}",43,146,Right,70.30935427428192,48.48628044130111,3.515467713714096,0.7616207121714302,Right,Correct,0.0,0.0,-45,45,765,-1,-1
"{'cat': 'II', 'resp': 'button'}",43,147,Right,35.04388111236721,20.040437750697976,1.7521940556183606,0.31479446006158157,Left,Incorrect,0.0,0.0,-45,45,814,-1,-1
"{'cat': 'II', 'resp': 'button'}",43,148,Right,51.9880021874209,25.11547192098459,2.599400109371045,0.39451291039202957,Right,Correct,0.0,0.0,-45,45,1673,-1,-1
"{'cat': 'II', 'resp': 'button'}",43,149,Left,37.627219022058156,49.584318510221706,1.881360951102908,0.7788686538248445,Left,Correct,0.0,0.0,-45,45,1520,-1,-1
"{'cat': 'II', 'resp': 'button'}",43,150,Right,70.59552234817151,50.964380649593586,3.5297761174085758,0.8005466192175852,Right,Correct,0.0,0.0,-45,45,1414,-1,-1
"{'cat': 'II', 'resp': 'button'}",43,151,Right,59.3451592794636,35.42371199051298,2.96725796397318,0.5564343667613812,Right,Correct,0.0,0.0,-45,45,1326,-1,-1
"{'cat': 'II', 'resp': 'button'}",43,152,Left,24.00991216276815,42.489024298737604,1.2004956081384075,0.6674160329755614,Left,Correct,0.0,0.0,-45,45,809,-1,-1
"{'cat': 'II', 'resp': 'button'}",43,153,Left,37.343835834514735,64.12303727059006,1.8671917917257366,1.0072423140757512,Left,Correct,0.0,0.0,-45,45,2757,-1,-1
"{'cat': 'II', 'resp': 'button'}",43,154,Left,39.769873070045456,61.11422995536336,1.9884936535022728,0.9599800792878342,Right,Incorrect,0.0,0.0,-45,45,2288,-1,-1
"{'cat': 'II', 'resp': 'button'}",43,155,Right,35.58460390879093,24.42906242071328,1.7792301954395466,0.3837308151749966,107,Incorrect,0.0,0.0,-45,45,1262,-1,-1
"{'cat': 'II', 'resp': 'button'}",43,156,Left,30.060265688614972,43.66569743198123,1.5030132844307484,0.6858991713309345,Left,Correct,0.0,0.0,-45,45,852,-1,-1
"{'cat': 'II', 'resp': 'button'}",43,157,Right,74.79349481081461,54.96904714859463,3.73967474054073,0.8634517734842793,Right,Correct,0.0,0.0,-45,45,687,-1,-1
"{'cat': 'II', 'resp': 'button'}",43,158,Left,49.19907715768683,68.15513980532558,2.4599538578843414,1.0705784325839807,Left,Correct,0.0,0.0,-45,45,1673,-1,-1
"{'cat': 'II', 'resp': 'button'}",43,159,Right,82.21385525005078,51.87966550207731,4.110692762502539,0.8149238800601094,Right,Correct,0.0,0.0,-45,45,4429,-1,-1
"{'cat': 'II', 'resp': 'button'}",43,160,Left,29.59755672329712,55.52442209125967,1.4798778361648561,0.8721755826836012,Left,Correct,0.0,0.0,-45,45,808,-1,-1
"{'cat': 'II', 'resp': 'button'}",43,161,Left,54.58114606877652,65.14623163128664,2.729057303438826,1.0233146135095454,Right,Incorrect,0.0,0.0,-45,45,1242,-1,-1
"{'cat': 'II', 'resp': 'button'}",43,162,Left,39.864183011901666,56.737266298652145,1.9932091505950833,0.8912268949430668,Left,Correct,0.0,0.0,-45,45,4189,-1,-1
"{'cat': 'II', 'resp': 'button'}",43,163,Right,79.13345144079177,59.97329730927643,3.9566725720395883,0.9420583511918967,Right,Correct,0.0,0.0,-45,45,1222,-1,-1
"{'cat': 'II', 'resp': 'button'}",43,164,Right,70.16069979422147,53.564901881027914,3.508034989711074,0.8413955111984769,Right,Correct,0.0,0.0,-45,45,2103,-1,-1
"{'cat': 'II', 'resp': 'button'}",43,165,Right,81.92840788998743,60.54221511577132,4.096420394499371,0.9509948911988004,Right,Correct,0.0,0.0,-45,45,1289,-1,-1
"{'cat': 'II', 'resp': 'button'}",43,166,Left,33.011581857389395,51.71589422528238,1.6505790928694697,0.8123513668598696,Left,Correct,0.0,0.0,-45,45,973,-1,-1
"{'cat': 'II', 'resp': 'button'}",43,167,Left,36.356396639285414,61.750484244842454,1.8178198319642707,0.9699743382960466,Left,Correct,0.0,0.0,-45,45,969,-1,-1
"{'cat': 'II', 'resp': 'button'}",43,168,Left,33.502964600329435,61.59041136329448,1.675148230016472,0.9674599193524963,Right,Incorrect,0.0,0.0,-45,45,2625,-1,-1
"{'cat': 'II', 'resp': 'button'}",43,169,Left,32.6323951210432,44.03756850485969,1.6316197560521601,0.6917405084841223,Right,Incorrect,0.0,0.0,-45,45,2016,-1,-1
"{'cat': 'II', 'resp': 'button'}",43,170,Left,65.67242620728584,88.90411806641116,3.283621310364292,1.3965026209565845,Right,Incorrect,0.0,0.0,-45,45,867,-1,-1
"{'cat': 'II', 'resp': 'button'}",43,171,Left,29.147388994449237,47.356401900871255,1.4573694497224619,0.7438726215611142,Left,Correct,0.0,0.0,-45,45,2444,-1,-1
"{'cat': 'II', 'resp': 'button'}",43,172,Right,38.44094340310279,24.978560063276245,1.9220471701551396,0.3923623039602002,Left,Incorrect,0.0,0.0,-45,45,1767,-1,-1
"{'cat': 'II', 'resp': 'button'}",43,173,Right,35.218428450224,13.259067641648073,1.7609214225112,0.20827294748225864,Right,Correct,0.0,0.0,-45,45,1046,-1,-1
"{'cat': 'II', 'resp': 'button'}",43,174,Left,64.92162860420162,75.56979943878778,3.2460814302100807,1.187047633750749,Right,Incorrect,0.0,0.0,-45,45,2380,-1,-1
"{'cat': 'II', 'resp': 'button'}",43,175,Left,22.68880092780347,53.74981591063003,1.1344400463901736,0.8443001339831955,Left,Correct,0.0,0.0,-45,45,695,-1,-1
"{'cat': 'II', 'resp': 'button'}",43,176,Right,80.45716754748705,63.54246171351721,4.0228583773743525,0.9981226545509817,Right,Correct,0.0,0.0,-45,45,936,-1,-1
"{'cat': 'II', 'resp': 'button'}",43,177,Right,78.89281678706546,63.30867601287619,3.944640839353273,0.994450357352741,107,Incorrect,0.0,0.0,-45,45,1049,-1,-1
"{'cat': 'II', 'resp': 'button'}",43,178,Left,53.530353022225555,61.257307425513034,2.6765176511112774,0.9622275349334162,Left,Correct,0.0,0.0,-45,45,1328,-1,-1
"{'cat': 'II', 'resp': 'button'}",43,179,Left,37.469879882423264,68.31420264839227,1.8734939941211632,1.0730769858801676,Left,Correct,0.0,0.0,-45,45,2339,-1,-1
"{'cat': 'II', 'resp': 'button'}",43,180,Left,35.16169181980422,51.80564192087066,1.758084590990211,0.8137611203655535,Left,Correct,0.0,0.0,-45,45,9049,-1,-1
"{'cat': 'II', 'resp': 'button'}",43,181,Right,66.69617722287532,49.160173440468746,3.3348088611437663,0.7722061986488834,Right,Correct,0.0,0.0,-45,45,1254,-1,-1
"{'cat': 'II', 'resp': 'button'}",43,182,Right,69.28291104613304,52.69025359147427,3.464145552306652,0.8276565679937937,Right,Correct,0.0,0.0,-45,45,988,-1,-1
"{'cat': 'II', 'resp': 'button'}",43,183,Left,25.93094508862025,42.014474527418905,1.2965472544310126,0.6599618225988736,Left,Correct,0.0,0.0,-45,45,753,-1,-1
"{'cat': 'II', 'resp': 'button'}",43,184,Left,54.64091204811836,65.82989250258868,2.732045602405918,1.034053533363692,Left,Correct,0.0,0.0,-45,45,872,-1,-1
"{'cat': 'II', 'resp': 'button'}",43,185,Left,39.67517257072404,55.64831216589874,1.9837586285362019,0.8741216434252947,Right,Incorrect,0.0,0.0,-45,45,2190,-1,-1
"{'cat': 'II', 'resp': 'button'}",43,186,Left,29.954341494955663,46.81904014578109,1.497717074747783,0.7354317628505572,Left,Correct,0.0,0.0,-45,45,661,-1,-1
"{'cat': 'II', 'resp': 'button'}",43,187,Left,41.478186299649714,68.64667271524269,2.0739093149824854,1.0782994134779467,Right,Incorrect,0.0,0.0,-45,45,1590,-1,-1
"{'cat': 'II', 'resp': 'button'}",43,188,Left,41.943333561370515,70.86291871987795,2.097166678068526,1.1131121243114959,Left,Correct,0.0,0.0,-45,45,3349,-1,-1
"{'cat': 'II', 'resp': 'button'}",43,189,Left,43.480373135711375,67.54683840818939,2.174018656785569,1.0610232565819233,Left,Correct,0.0,0.0,-45,45,698,-1,-1
"{'cat': 'II', 'resp': 'button'}",43,190,Right,61.825302212309815,52.7283392402949,3.091265110615491,0.8282548159665044,Right,Correct,0.0,0.0,-45,45,1959,-1,-1
"{'cat': 'II', 'resp': 'button'}",43,191,Right,66.66110037045758,57.86254797695612,3.3330550185228787,0.9089027782119615,Right,Correct,0.0,0.0,-45,45,475,-1,-1
"{'cat': 'II', 'resp': 'button'}",43,192,Left,62.654172155805945,85.2788298638554,3.1327086077902973,1.33955672703511,Right,Incorrect,0.0,0.0,-45,45,539,-1,-1
"{'cat': 'II', 'resp': 'button'}",43,193,Left,23.772891600692486,50.4380582596363,1.1886445800346244,0.7922791664490371,Left,Correct,0.0,0.0,-45,45,800,-1,-1
"{'cat': 'II', 'resp': 'button'}",43,194,Left,20.368422156156903,35.01874881170677,1.0184211078078451,0.5500732200238214,Left,Correct,0.0,0.0,-45,45,652,-1,-1
"{'cat': 'II', 'resp': 'button'}",43,195,Left,61.594688050775694,83.896914619977,3.0797344025387847,1.3178496531448494,Right,Incorrect,0.0,0.0,-45,45,759,-1,-1
"{'cat': 'II', 'resp': 'button'}",43,196,Right,75.15443683565807,55.53106380806918,3.757721841782904,0.8722799105272808,Left,Incorrect,0.0,0.0,-45,45,1477,-1,-1
"{'cat': 'II', 'resp': 'button'}",43,197,Right,50.423926807064845,35.11880829185945,2.5211963403532422,0.5516449506626698,Right,Correct,0.0,0.0,-45,45,2333,-1,-1
"{'cat': 'II', 'resp': 'button'}",43,198,Right,44.6045417020748,33.350329875229654,2.2302270851037402,0.5238657566540884,Right,Correct,0.0,0.0,-45,45,931,-1,-1
"{'cat': 'II', 'resp': 'button'}",43,199,Right,52.17591943906164,26.935463134227202,2.6087959719530818,0.4231012655176344,Left,Incorrect,0.0,0.0,-45,45,2463,-1,-1
"{'cat': 'II', 'resp': 'button'}",43,200,Right,38.784935469291995,28.618028971260717,1.9392467734646,0.44953094788166276,Right,Correct,0.0,0.0,-45,45,2189,-1,-1
"{'cat': 'II', 'resp': 'button'}",43,201,Left,14.405351752891942,32.05954322544173,0.7202675876445972,0.5035901273724608,Left,Correct,0.0,0.0,-45,45,768,-1,-1
"{'cat': 'II', 'resp': 'button'}",43,202,Right,71.76741717802396,55.87517439800499,3.588370858901198,0.8776851870341048,Right,Correct,0.0,0.0,-45,45,1009,-1,-1
"{'cat': 'II', 'resp': 'button'}",43,203,Right,42.16891584256156,17.421917082748955,2.108445792128078,0.2736628335930732,Right,Correct,0.0,0.0,-45,45,1382,-1,-1
"{'cat': 'II', 'resp': 'button'}",43,204,Left,27.710255128609738,47.954408912561945,1.3855127564304868,0.7532660937347275,Right,Incorrect,0.0,0.0,-45,45,698,-1,-1
"{'cat': 'II', 'resp': 'button'}",43,205,Right,66.34954111144297,44.62741922942729,3.317477055572149,0.7010058619992031,Right,Correct,0.0,0.0,-45,45,1539,-1,-1
"{'cat': 'II', 'resp': 'button'}",43,206,Left,37.66505358582172,52.65610684693229,1.8832526792910858,0.8271201921848085,Left,Correct,0.0,0.0,-45,45,3166,-1,-1
"{'cat': 'II', 'resp': 'button'}",43,207,Left,58.90735017145053,75.22678388438885,2.9453675085725264,1.1816595580219154,Right,Incorrect,0.0,0.0,-45,45,1543,-1,-1
"{'cat': 'II', 'resp': 'button'}",43,208,Right,37.67287596419407,17.431936666875032,1.8836437982097036,0.2738202208524857,107,Incorrect,0.0,0.0,-45,45,525,-1,-1
"{'cat': 'II', 'resp': 'button'}",43,209,Left,64.29188512306122,77.21056159075792,3.214594256153061,1.2128206653653368,Right,Incorrect,0.0,0.0,-45,45,413,-1,-1
"{'cat': 'II', 'resp': 'button'}",43,210,Right,48.313833479165055,31.101898765043032,2.4156916739582526,0.4885474833647632,Left,Incorrect,0.0,0.0,-45,45,780,-1,-1
"{'cat': 'II', 'resp': 'button'}",43,211,Left,20.037733845160226,40.37299342844926,1.0018866922580114,0.634177497791226,Left,Correct,0.0,0.0,-45,45,889,-1,-1
"{'cat': 'II', 'resp': 'button'}",43,212,Right,58.28697490312306,38.14658135125264,2.914348745156153,0.5992050986633035,Right,Correct,0.0,0.0,-45,45,589,-1,-1
"{'cat': 'II', 'resp': 'button'}",43,213,Left,37.17688370309324,55.28678194611227,1.858844185154662,0.8684427400126354,Right,Incorrect,0.0,0.0,-45,45,1544,-1,-1
"{'cat': 'II', 'resp': 'button'}",43,214,Right,47.71879641675507,28.499903666293513,2.385939820837754,0.44767543993022263,107,Incorrect,0.0,0.0,-45,45,732,-1,-1
"{'cat': 'II', 'resp': 'button'}",43,215,Right,47.99938829837705,34.862290983808855,2.3999694149188526,0.547615586210218,Right,Correct,0.0,0.0,-45,45,628,-1,-1
"{'cat': 'II', 'resp': 'button'}",43,216,Right,53.56818486532586,36.36589111776314,2.678409243266293,0.571234081884055,107,Incorrect,0.0,0.0,-45,45,634,-1,-1
"{'cat': 'II', 'resp': 'button'}",43,217,Right,57.065633677816635,37.47894763941742,2.853281683890832,0.5887179328413515,Right,Correct,0.0,0.0,-45,45,592,-1,-1
"{'cat': 'II', 'resp': 'button'}",43,218,Left,37.59286158686568,52.72369769297033,1.8796430793432841,0.8281819067116236,107,Correct,0.0,0.0,-45,45,1699,-1,-1
"{'cat': 'II', 'resp': 'button'}",43,219,Right,62.49129363078446,34.91758036491846,3.1245646815392227,0.5484840697777952,Right,Correct,0.0,0.0,-45,45,613,-1,-1
"{'cat': 'II', 'resp': 'button'}",43,220,Right,51.42834458028176,37.91201435760732,2.571417229014088,0.5955205289432496,Left,Incorrect,0.0,0.0,-45,45,893,-1,-1
"{'cat': 'II', 'resp': 'button'}",43,221,Right,62.524355283619535,44.234931194018216,3.1262177641809767,0.6948406743558881,Right,Correct,0.0,0.0,-45,45,809,-1,-1
"{'cat': 'II', 'resp': 'button'}",43,222,Left,49.812229563061805,69.29813763834883,2.4906114781530904,1.0885326005604552,100,Incorrect,0.0,0.0,-45,45,504,-1,-1
"{'cat': 'II', 'resp': 'button'}",43,223,Left,36.478433534279404,55.10390562909368,1.8239216767139703,0.8655701255423297,Left,Correct,0.0,0.0,-45,45,654,-1,-1
"{'cat': 'II', 'resp': 'button'}",43,224,Left,30.76790601412608,43.28908316527843,1.5383953007063038,0.6799833282633815,Right,Incorrect,0.0,0.0,-45,45,622,-1,-1
"{'cat': 'II', 'resp': 'button'}",43,225,Right,51.719707551738416,20.433549858257823,2.585985377586921,0.32096945060731763,Left,Incorrect,0.0,0.0,-45,45,539,-1,-1
"{'cat': 'II', 'resp': 'button'}",43,226,Left,69.6830934527801,87.92669130516916,3.484154672639005,1.381149237293885,Right,Incorrect,0.0,0.0,-45,45,392,-1,-1
"{'cat': 'II', 'resp': 'button'}",43,227,Right,54.43176220973861,41.46790932295476,2.7215881104869304,0.6513763964436119,Left,Incorrect,0.0,0.0,-45,45,1059,-1,-1
"{'cat': 'II', 'resp': 'button'}",43,228,Left,22.80426927779512,37.79926575158176,1.140213463889756,0.5937494779812877,Left,Correct,0.0,0.0,-45,45,704,-1,-1
"{'cat': 'II', 'resp': 'button'}",43,229,Right,88.19304646001646,65.78123320752593,4.409652323000824,1.033289194944202,Right,Correct,0.0,0.0,-45,45,773,-1,-1
"{'cat': 'II', 'resp': 'button'}",43,230,Left,42.13509875710906,74.89321690209651,2.1067549378554533,1.1764199001166666,Left,Correct,0.0,0.0,-45,45,3826,-1,-1
"{'cat': 'II', 'resp': 'button'}",43,231,Left,44.812785993085924,55.19363650257078,2.2406392996542963,0.8669796148069092,Right,Incorrect,0.0,0.0,-45,45,975,-1,-1
"{'cat': 'II', 'resp': 'button'}",43,232,Left,49.38402604612196,71.4939189779731,2.469201302306098,1.1230238531877208,Left,Correct,0.0,0.0,-45,45,715,-1,-1
"{'cat': 'II', 'resp': 'button'}",43,233,Right,48.988994660566675,38.51780612847953,2.4494497330283336,0.605036283828136,Right,Correct,0.0,0.0,-45,45,1801,-1,-1
"{'cat': 'II', 'resp': 'button'}",43,234,Right,76.94391335044214,47.81336855611948,3.847195667522107,0.7510506369964308,Right,Correct,0.0,0.0,-45,45,821,-1,-1
"{'cat': 'II', 'resp': 'button'}",43,235,Left,49.16239834304932,73.81499400319899,2.458119917152466,1.159483214426123,Left,Correct,0.0,0.0,-45,45,1586,-1,-1
"{'cat': 'II', 'resp': 'button'}",43,236,Right,36.52751086249927,16.44817751371659,1.8263755431249635,0.2583673682101643,Left,Incorrect,0.0,0.0,-45,45,1019,-1,-1
"{'cat': 'II', 'resp': 'button'}",43,237,Left,52.101188832672484,73.62710845486805,2.605059441633624,1.156531915134362,Right,Incorrect,0.0,0.0,-45,45,668,-1,-1
"{'cat': 'II', 'resp': 'button'}",43,238,Left,27.344508270077995,37.712582310832325,1.3672254135038997,0.5923878576780561,Left,Correct,0.0,0.0,-45,45,1490,-1,-1
"{'cat': 'II', 'resp': 'button'}",43,239,Right,39.00304638594824,14.42983394419559,1.950152319297412,0.22666330155802747,Right,Correct,0.0,0.0,-45,45,1449,-1,-1
"{'cat': 'II', 'resp': 'button'}",43,240,Right,67.52067477294594,41.717487824286614,3.3760337386472967,0.6552967663750023,107,Incorrect,0.0,0.0,-45,45,1676,-1,-1
"{'cat': 'II', 'resp': 'button'}",43,241,Left,35.815729399434204,68.72444701988258,1.79078646997171,1.0795210893984202,Left,Correct,0.0,0.0,-45,45,1060,-1,-1
"{'cat': 'II', 'resp': 'button'}",43,242,Right,55.72454921015329,40.76863994700393,2.7862274605076647,0.6403922987717747,Right,Correct,0.0,0.0,-45,45,673,-1,-1
"{'cat': 'II', 'resp': 'button'}",43,243,Left,40.28844378215816,55.34223750347653,2.014422189107908,0.869313833870717,Left,Correct,0.0,0.0,-45,45,794,-1,-1
"{'cat': 'II', 'resp': 'button'}",43,244,Left,35.80181122991494,60.001375157851946,1.790090561495747,0.942499397005964,Left,Correct,0.0,0.0,-45,45,887,-1,-1
"{'cat': 'II', 'resp': 'button'}",43,245,Right,79.03107110661209,54.757759478480175,3.9515535553306047,0.8601328745231509,107,Correct,0.0,0.0,-45,45,1110,-1,-1
"{'cat': 'II', 'resp': 'button'}",43,246,Left,20.45942023342344,35.14924058919837,1.022971011671172,0.5521229800714289,Left,Correct,0.0,0.0,-45,45,696,-1,-1
"{'cat': 'II', 'resp': 'button'}",43,247,Right,86.36496027436097,68.0924769920119,4.318248013718049,1.0695941274141831,Right,Correct,0.0,0.0,-45,45,925,-1,-1
"{'cat': 'II', 'resp': 'button'}",43,248,Left,57.80795011097625,85.30535355467921,2.8903975055488127,1.3399733601963009,Left,Correct,0.0,0.0,-45,45,2175,-1,-1
"{'cat': 'II', 'resp': 'button'}",43,249,Right,56.141877678055785,42.51823036574015,2.8070938839027892,0.6678748008032386,Left,Incorrect,0.0,0.0,-45,45,1415,-1,-1
"{'cat': 'II', 'resp': 'button'}",43,250,Left,19.068474784217965,39.9884047364329,0.9534237392108983,0.6281363927437644,Left,Correct,0.0,0.0,-45,45,775,-1,-1
"{'cat': 'II', 'resp': 'button'}",43,251,Left,24.818652436142635,54.63818537617462,1.2409326218071317,0.8582546089163372,Left,Correct,0.0,0.0,-45,45,977,-1,-1
"{'cat': 'II', 'resp': 'button'}",43,252,Left,21.04546359543171,41.71492486506601,1.0522731797715854,0.6552565075057079,Left,Correct,0.0,0.0,-45,45,892,-1,-1
"{'cat': 'II', 'resp': 'button'}",43,253,Left,23.185902568785394,48.83401435450368,1.1592951284392696,0.7670829037070364,Left,Correct,0.0,0.0,-45,45,672,-1,-1
"{'cat': 'II', 'resp': 'button'}",43,254,Left,65.3400313097783,78.33546029904974,3.267001565488915,1.230490532955348,Right,Incorrect,0.0,0.0,-45,45,673,-1,-1
"{'cat': 'II', 'resp': 'button'}",43,255,Left,47.013746775471304,76.78857505844456,2.3506873387735654,1.2061921164161893,Left,Correct,0.0,0.0,-45,45,528,-1,-1
"{'cat': 'II', 'resp': 'button'}",43,256,Left,18.835048522925288,39.70178988640063,0.9417524261462644,0.6236342572074088,Left,Correct,0.0,0.0,-45,45,694,-1,-1
"{'cat': 'II', 'resp': 'button'}",43,257,Right,60.13329030721816,40.98563478211414,3.006664515360908,0.6438008456710205,Right,Correct,0.0,0.0,-45,45,661,-1,-1
"{'cat': 'II', 'resp': 'button'}",43,258,Left,33.100634288827045,41.897021905617564,1.6550317144413524,0.6581168811298939,Left,Correct,0.0,0.0,-45,45,727,-1,-1
"{'cat': 'II', 'resp': 'button'}",43,259,Left,52.34766626700058,68.27922620119695,2.617383313350029,1.0725275771323803,Right,Incorrect,0.0,0.0,-45,45,773,-1,-1
"{'cat': 'II', 'resp': 'button'}",43,260,Left,19.80200452490716,43.57140313753759,0.9901002262453581,0.6844180000174367,Left,Correct,0.0,0.0,-45,45,838,-1,-1
"{'cat': 'II', 'resp': 'button'}",43,261,Left,16.580208478389263,30.99984034115742,0.8290104239194632,0.48694435339118325,Left,Correct,0.0,0.0,-45,45,847,-1,-1
"{'cat': 'II', 'resp': 'button'}",43,262,Left,50.31501849026872,77.86116483294651,2.515750924513436,1.2230403171956437,Left,Correct,0.0,0.0,-45,45,2395,-1,-1
"{'cat': 'II', 'resp': 'button'}",43,263,Left,39.184006432775675,51.211863411701465,1.9592003216387837,0.8044340693542262,Right,Incorrect,0.0,0.0,-45,45,2494,-1,-1
"{'cat': 'II', 'resp': 'button'}",43,264,Left,43.164276799457475,68.46906528852288,2.158213839972874,1.075509562542917,Right,Incorrect,0.0,0.0,-45,45,1232,-1,-1
"{'cat': 'II', 'resp': 'button'}",43,265,Right,40.819059370893626,16.30493569539912,2.0409529685446812,0.25611733098959927,Left,Incorrect,0.0,0.0,-45,45,661,-1,-1
"{'cat': 'II', 'resp': 'button'}",43,266,Right,38.66890341537838,14.95694207774839,1.933445170768919,0.234943096758112,Right,Correct,0.0,0.0,-45,45,1418,-1,-1
"{'cat': 'II', 'resp': 'button'}",43,267,Right,69.08040813224608,48.31808737193456,3.4540204066123037,0.7589787416158968,Right,Correct,0.0,0.0,-45,45,1611,-1,-1
"{'cat': 'II', 'resp': 'button'}",43,268,Right,70.11892292090695,56.06761053479883,3.5059461460453476,0.8807079668022885,Right,Correct,0.0,0.0,-45,45,951,-1,-1
"{'cat': 'II', 'resp': 'button'}",43,269,Left,30.58093125527452,42.95571668844619,1.529046562763726,0.6747468198905351,Left,Correct,0.0,0.0,-45,45,865,-1,-1
"{'cat': 'II', 'resp': 'button'}",43,270,Right,75.1189801221438,61.775124827997146,3.7559490061071896,0.9703613916711414,Right,Correct,0.0,0.0,-45,45,674,-1,-1
"{'cat': 'II', 'resp': 'button'}",43,271,Right,83.6483113970084,58.79021805252411,4.18241556985042,0.923474585683759,Right,Correct,0.0,0.0,-45,45,762,-1,-1
"{'cat': 'II', 'resp': 'button'}",43,272,Left,42.525958540707556,54.346592055656764,2.126297927035378,0.8536742717484637,Left,Correct,0.0,0.0,-45,45,521,-1,-1
"{'cat': 'II', 'resp': 'button'}",43,273,Right,31.393683321335697,17.105923146996776,1.5696841660667848,0.2686992124573834,Left,Incorrect,0.0,0.0,-45,45,652,-1,-1
"{'cat': 'II', 'resp': 'button'}",43,274,Left,33.55863950058299,46.41075391501383,1.6779319750291495,0.729018417734856,Left,Correct,0.0,0.0,-45,45,631,-1,-1
"{'cat': 'II', 'resp': 'button'}",43,275,Left,61.38395920538163,70.95056048520475,3.0691979602690815,1.1144887979419875,Right,Incorrect,0.0,0.0,-45,45,694,-1,-1
"{'cat': 'II', 'resp': 'button'}",43,276,Left,35.333945346967475,60.27946368888287,1.7666972673483738,0.9468676014366355,Left,Correct,0.0,0.0,-45,45,980,-1,-1
"{'cat': 'II', 'resp': 'button'}",43,277,Right,69.95741766270288,55.0544677025691,3.497870883135144,0.8647935564084381,Right,Correct,0.0,0.0,-45,45,956,-1,-1
"{'cat': 'II', 'resp': 'button'}",43,278,Right,58.108192836815036,40.97425005957147,2.905409641840752,0.6436220148675044,Left,Incorrect,0.0,0.0,-45,45,476,-1,-1
"{'cat': 'II', 'resp': 'button'}",43,279,Right,69.37021452556854,39.30467727029729,3.468510726278427,0.6173964268204184,Right,Correct,0.0,0.0,-45,45,520,-1,-1
"{'cat': 'II', 'resp': 'button'}",43,280,Left,26.926022995249692,48.16113898730963,1.3463011497624846,0.7565134021552444,107,Correct,0.0,0.0,-45,45,1487,-1,-1
"{'cat': 'II', 'resp': 'button'}",43,281,Right,56.44108927533703,32.71496307887767,2.822054463766851,0.5138854383553171,Right,Correct,0.0,0.0,-45,45,1178,-1,-1
"{'cat': 'II', 'resp': 'button'}",43,282,Right,32.218290720044735,10.392272617464396,1.6109145360022368,0.16324143654564258,Left,Incorrect,0.0,0.0,-45,45,794,-1,-1
"{'cat': 'II', 'resp': 'button'}",43,283,Left,22.74229850247515,40.80326189955588,1.1371149251237576,0.6409361391307252,Left,Correct,0.0,0.0,-45,45,775,-1,-1
"{'cat': 'II', 'resp': 'button'}",43,284,Right,70.68298590436073,42.20631358347196,3.534149295218037,0.662975223444713,Right,Correct,0.0,0.0,-45,45,580,-1,-1
"{'cat': 'II', 'resp': 'button'}",43,285,Left,62.63570559394368,79.34321424837529,3.131785279697184,1.2463202949744843,Left,Correct,0.0,0.0,-45,45,442,-1,-1
"{'cat': 'II', 'resp': 'button'}",43,286,Left,51.57325046821702,61.9939901159777,2.578662523410851,0.973799319575369,Left,Correct,0.0,0.0,-45,45,765,-1,-1
"{'cat': 'II', 'resp': 'button'}",43,287,Right,58.59956599295768,49.998453470759955,2.9299782996478836,0.7853738705729529,Right,Correct,0.0,0.0,-45,45,1693,-1,-1
"{'cat': 'II', 'resp': 'button'}",43,288,Right,41.71037934402523,18.16188899926495,2.0855189672012613,0.2852862852770202,Right,Correct,0.0,0.0,-45,45,684,-1,-1
"{'cat': 'II', 'resp': 'button'}",43,289,Right,86.84302383591009,61.98642002328381,4.342151191795505,0.9736804088373984,Right,Correct,0.0,0.0,-45,45,1967,-1,-1
"{'cat': 'II', 'resp': 'button'}",43,290,Left,50.630168551866745,66.50610329516934,2.5315084275933373,1.0446754276549395,Right,Incorrect,0.0,0.0,-45,45,598,-1,-1
"{'cat': 'II', 'resp': 'button'}",43,291,Left,26.43916651928286,41.7305407443599,1.321958325964143,0.655501801164053,Left,Correct,0.0,0.0,-45,45,604,-1,-1
"{'cat': 'II', 'resp': 'button'}",43,292,Right,74.47881313232303,62.88775670788982,3.723940656616151,0.9878385723712445,Right,Correct,0.0,0.0,-45,45,753,-1,-1
"{'cat': 'II', 'resp': 'button'}",43,293,Right,56.47463064280288,32.982491736857064,2.823731532140144,0.518087768687981,Left,Incorrect,0.0,0.0,-45,45,1305,-1,-1
"{'cat': 'II', 'resp': 'button'}",43,294,Right,54.96249996840496,24.317107538486844,2.748124998420248,0.3819722319973163,Right,Correct,0.0,0.0,-45,45,1665,-1,-1
"{'cat': 'II', 'resp': 'button'}",43,295,Left,53.271090619241235,73.14656105553829,2.663554530962062,1.1489834942371817,Right,Incorrect,0.0,0.0,-45,45,1317,-1,-1
"{'cat': 'II', 'resp': 'button'}",43,296,Right,36.10473390566871,14.737213970672808,1.8052366952834353,0.2314916157232328,Left,Incorrect,0.0,0.0,-45,45,1102,-1,-1
"{'cat': 'II', 'resp': 'button'}",43,297,Left,20.793478429195652,51.72028598792033,1.0396739214597828,0.812420352506068,Left,Correct,0.0,0.0,-45,45,658,-1,-1
"{'cat': 'II', 'resp': 'button'}",43,298,Left,32.226070098299374,56.638121420492745,1.6113035049149687,0.8896695308387335,Right,Incorrect,0.0,0.0,-45,45,1225,-1,-1
"{'cat': 'II', 'resp': 'button'}",43,299,Right,78.25284711439168,62.5005425250889,3.912642355719584,0.9817562262109789,Right,Correct,0.0,0.0,-45,45,618,-1,-1
"{'cat': 'II', 'resp': 'button'}",43,300,Left,47.972620733450015,64.1915587236496,2.3986310366725005,1.0083186465434768,Left,Correct,0.0,0.0,-45,45,663,-1,-1
"{'cat': 'II', 'resp': 'button'}",43,301,Left,63.06317029500481,86.42193020531604,3.15315851475024,1.3575125052103536,Right,Incorrect,0.0,0.0,-45,45,714,-1,-1
"{'cat': 'II', 'resp': 'button'}",43,302,Right,76.90661814643573,65.69791352366516,3.8453309073217867,1.03198041241062,Right,Correct,0.0,0.0,-45,45,837,-1,-1
"{'cat': 'II', 'resp': 'button'}",43,303,Left,29.129743573662978,54.905868558786224,1.4564871786831488,0.862459366516248,Left,Correct,0.0,0.0,-45,45,1497,-1,-1
"{'cat': 'II', 'resp': 'button'}",43,304,Right,60.79005122786306,32.329379893551476,3.039502561393153,0.5078287118434743,Right,Correct,0.0,0.0,-45,45,1488,-1,-1
"{'cat': 'II', 'resp': 'button'}",43,305,Right,70.67554596995824,61.221062038984044,3.533777298497912,0.9616581937331863,Right,Correct,0.0,0.0,-45,45,1139,-1,-1
"{'cat': 'II', 'resp': 'button'}",43,306,Right,57.01414573395103,24.87750929757606,2.850707286697552,0.3907750022443836,Right,Correct,0.0,0.0,-45,45,1829,-1,-1
"{'cat': 'II', 'resp': 'button'}",43,307,Left,56.039882852190885,65.55859399640964,2.8019941426095443,1.0297919863939822,Right,Incorrect,0.0,0.0,-45,45,513,-1,-1
"{'cat': 'II', 'resp': 'button'}",43,308,Left,59.326881237399874,77.15997698462918,2.966344061869994,1.2120260842303427,Right,Incorrect,0.0,0.0,-45,45,1202,-1,-1
"{'cat': 'II', 'resp': 'button'}",43,309,Left,41.30929587880206,54.358630524303955,2.065464793940103,0.8538633715717758,Left,Correct,0.0,0.0,-45,45,1404,-1,-1
"{'cat': 'II', 'resp': 'button'}",43,310,Left,56.2284162111767,77.61483363421445,2.811420810558835,1.2191709557742103,Right,Incorrect,0.0,0.0,-45,45,1188,-1,-1
"{'cat': 'II', 'resp': 'button'}",43,311,Left,53.39707294844765,60.774116531974386,2.669853647422382,0.9546375901263037,Left,Correct,0.0,0.0,-45,45,559,-1,-1
"{'cat': 'II', 'resp': 'button'}",43,312,Right,70.48783488480085,38.548144274169715,3.5243917442400425,0.6055128343062552,Left,Incorrect,0.0,0.0,-45,45,651,-1,-1
"{'cat': 'II', 'resp': 'button'}",43,313,Right,80.53380873479345,57.258096414495554,4.026690436739673,0.8994080752715765,Right,Correct,0.0,0.0,-45,45,1206,-1,-1
"{'cat': 'II', 'resp': 'button'}",43,314,Right,47.903351047706025,27.862054047345644,2.3951675523853013,0.43765612154531425,Left,Incorrect,0.0,0.0,-45,45,1426,-1,-1
"{'cat': 'II', 'resp': 'button'}",43,315,Left,12.412859757839062,31.847900188075048,0.620642987891953,0.5002656463155878,Left,Correct,0.0,0.0,-45,45,681,-1,-1
"{'cat': 'II', 'resp': 'button'}",43,316,Left,27.674957346461227,51.61233717828156,1.3837478673230612,0.8107246965694436,Right,Incorrect,0.0,0.0,-45,45,1094,-1,-1
"{'cat': 'II', 'resp': 'button'}",43,317,Left,42.360857516529194,62.49534565347246,2.11804287582646,0.9816745939425195,Left,Correct,0.0,0.0,-45,45,2673,-1,-1
"{'cat': 'II', 'resp': 'button'}",43,318,Right,68.69319116628158,54.44480095412442,3.434659558314079,0.8552169335181791,Right,Correct,0.0,0.0,-45,45,672,-1,-1
"{'cat': 'II', 'resp': 'button'}",43,319,Left,50.472067923877354,59.091660800750496,2.5236033961938675,0.9282096373002886,Left,Correct,0.0,0.0,-45,45,5688,-1,-1
"{'cat': 'II', 'resp': 'button'}",43,320,Right,57.28147687087267,24.742811834013622,2.864073843543634,0.38865917943445893,Left,Incorrect,0.0,0.0,-45,45,1069,-1,-1
"{'cat': 'II', 'resp': 'button'}",43,321,Right,60.18487569334259,42.36839181813395,3.009243784667129,0.6655211424013175,Right,Correct,0.0,0.0,-45,45,738,-1,-1
"{'cat': 'II', 'resp': 'button'}",43,322,Right,65.77498094984786,37.8064853467313,3.2887490474923933,0.593862883116706,Left,Incorrect,0.0,0.0,-45,45,1115,-1,-1
"{'cat': 'II', 'resp': 'button'}",43,323,Right,78.7818988403584,60.60533770755793,3.9390949420179195,0.9519864185519624,Right,Correct,0.0,0.0,-45,45,711,-1,-1
"{'cat': 'II', 'resp': 'button'}",43,324,Right,45.85479381130861,22.290785791175697,2.2927396905654307,0.35014284442150656,Left,Incorrect,0.0,0.0,-45,45,2503,-1,-1
"{'cat': 'II', 'resp': 'button'}",43,325,Right,42.014263457607825,29.95677184470646,2.100713172880391,0.4705598717629768,Left,Incorrect,0.0,0.0,-45,45,1472,-1,-1
"{'cat': 'II', 'resp': 'button'}",43,326,Right,66.00450270638868,51.3547600764375,3.300225135319434,0.8066786849150123,Right,Correct,0.0,0.0,-45,45,924,-1,-1
"{'cat': 'II', 'resp': 'button'}",43,327,Right,74.34276243320211,42.106178391828,3.7171381216601054,0.6614023035325407,Right,Correct,0.0,0.0,-45,45,691,-1,-1
"{'cat': 'II', 'resp': 'button'}",43,328,Right,70.31275223837257,53.152826984544916,3.5156376119186286,0.8349226538608782,Right,Correct,0.0,0.0,-45,45,736,-1,-1
"{'cat': 'II', 'resp': 'button'}",43,329,Left,38.535726600522494,54.22495982451244,1.9267863300261245,0.8517636771294499,Left,Correct,0.0,0.0,-45,45,563,-1,-1
"{'cat': 'II', 'resp': 'button'}",43,330,Left,19.724335186862763,47.51458345694236,0.9862167593431381,0.7463573316335462,Left,Correct,0.0,0.0,-45,45,1051,-1,-1
"{'cat': 'II', 'resp': 'button'}",43,331,Left,65.65081076385621,85.20981596029308,3.2825405381928108,1.3384726591729752,Right,Incorrect,0.0,0.0,-45,45,699,-1,-1
"{'cat': 'II', 'resp': 'button'}",43,332,Left,42.74171509925345,71.14984529092811,2.1370857549626723,1.1176191563501505,107,Correct,0.0,0.0,-45,45,2038,-1,-1
"{'cat': 'II', 'resp': 'button'}",43,333,Left,43.88143690151795,66.84279657719973,2.194071845075898,1.0499641933616382,Left,Correct,0.0,0.0,-45,45,1089,-1,-1
"{'cat': 'II', 'resp': 'button'}",43,334,Right,61.59720817244053,50.57510669475375,3.079860408622027,0.7944319182337917,Right,Correct,0.0,0.0,-45,45,865,-1,-1
"{'cat': 'II', 'resp': 'button'}",43,335,Right,44.60959234990923,25.63664666208794,2.2304796174954613,0.4026995040814638,Right,Correct,0.0,0.0,-45,45,2521,-1,-1
"{'cat': 'II', 'resp': 'button'}",43,336,Left,38.669893697822005,63.09487035198397,1.9334946848911003,0.9910919058849665,Right,Incorrect,0.0,0.0,-45,45,1434,-1,-1
"{'cat': 'II', 'resp': 'button'}",43,337,Left,33.65276178615559,49.235182159578684,1.6826380893077795,0.7733844328534383,Left,Correct,0.0,0.0,-45,45,1046,-1,-1
"{'cat': 'II', 'resp': 'button'}",43,338,Left,28.059584476516022,43.35967696678567,1.4029792238258012,0.6810922131044022,Left,Correct,0.0,0.0,-45,45,942,-1,-1
"{'cat': 'II', 'resp': 'button'}",43,339,Right,73.87091501939386,47.15940453550424,3.693545750969693,0.7407781941820465,Right,Correct,0.0,0.0,-45,45,512,-1,-1
"{'cat': 'II', 'resp': 'button'}",43,340,Left,26.436681211024784,59.27553716370061,1.3218340605512393,0.9310979604553531,Left,Correct,0.0,0.0,-45,45,489,-1,-1
"{'cat': 'II', 'resp': 'button'}",43,341,Left,29.94585311555864,56.9540420383397,1.497292655777932,0.8946320002994612,Left,Correct,0.0,0.0,-45,45,4447,-1,-1
"{'cat': 'II', 'resp': 'button'}",43,342,Left,60.93052193698196,85.60213340387917,3.046526096849098,1.344635167166201,Right,Incorrect,0.0,0.0,-45,45,928,-1,-1
"{'cat': 'II', 'resp': 'button'}",43,343,Left,36.712043231211574,55.15534745685042,1.8356021615605786,0.8663781718831688,Right,Incorrect,0.0,0.0,-45,45,3382,-1,-1
"{'cat': 'II', 'resp': 'button'}",43,344,Right,63.43828626120537,50.00274973412345,3.1719143130602685,0.7854413561200561,Right,Correct,0.0,0.0,-45,45,829,-1,-1
"{'cat': 'II', 'resp': 'button'}",43,345,Right,44.04744999892235,23.035577089418076,2.202372499946118,0.36184199877658585,107,Incorrect,0.0,0.0,-45,45,3127,-1,-1
"{'cat': 'II', 'resp': 'button'}",43,346,Right,84.81495982571934,65.83219372765089,4.240747991285968,1.0340896809224405,Right,Correct,0.0,0.0,-45,45,551,-1,-1
"{'cat': 'II', 'resp': 'button'}",43,347,Right,41.52085203897528,21.35867770723723,2.076042601948764,0.3355013248772429,Left,Incorrect,0.0,0.0,-45,45,984,-1,-1
"{'cat': 'II', 'resp': 'button'}",43,348,Left,21.31634177213622,38.13460530825648,1.0658170886068108,0.5990169794198246,Left,Correct,0.0,0.0,-45,45,596,-1,-1
"{'cat': 'II', 'resp': 'button'}",43,349,Right,72.03752722787098,47.14617372208946,3.601876361393549,0.740570365050922,Right,Correct,0.0,0.0,-45,45,1603,-1,-1
"{'cat': 'II', 'resp': 'button'}",43,350,Left,12.172511657637237,32.19188580394906,0.6086255828818619,0.5056689597344396,Left,Correct,0.0,0.0,-45,45,1875,-1,-1
"{'cat': 'II', 'resp': 'button'}",43,351,Left,49.972411271489,74.69225956193438,2.49862056357445,1.173263269598975,Left,Correct,0.0,0.0,-45,45,1622,-1,-1
"{'cat': 'II', 'resp': 'button'}",43,352,Left,36.54779325864089,53.450396502302624,1.8273896629320445,0.8395968649154775,Left,Correct,0.0,0.0,-45,45,1837,-1,-1
"{'cat': 'II', 'resp': 'button'}",43,353,Right,74.30806750344267,61.42493164975231,3.7154033751721336,0.964860570090585,107,Incorrect,0.0,0.0,-45,45,1841,-1,-1
"{'cat': 'II', 'resp': 'button'}",43,354,Right,49.030033212424605,37.57382714570397,2.45150166062123,0.5902082966409817,Left,Incorrect,0.0,0.0,-45,45,618,-1,-1
"{'cat': 'II', 'resp': 'button'}",43,355,Right,73.27355792119945,55.13697957651574,3.6636778960599723,0.8660896498935615,Right,Correct,0.0,0.0,-45,45,670,-1,-1
"{'cat': 'II', 'resp': 'button'}",43,356,Right,77.43568506030886,61.1674523337428,3.8717842530154427,0.9608160944524512,Right,Correct,0.0,0.0,-45,45,848,-1,-1
"{'cat': 'II', 'resp': 'button'}",43,357,Left,63.317387612271304,80.1591715472812,3.1658693806135654,1.2591373222539128,Right,Incorrect,0.0,0.0,-45,45,8357,-1,-1
"{'cat': 'II', 'resp': 'button'}",43,358,Right,59.09750675735804,46.48483888417191,2.954875337867902,0.7301821417090982,Right,Correct,0.0,0.0,-45,45,1470,-1,-1
"{'cat': 'II', 'resp': 'button'}",43,359,Left,29.455478089806448,57.37064146787364,1.4727739044903223,0.9011759288360289,Left,Correct,0.0,0.0,-45,45,1282,-1,-1
"{'cat': 'II', 'resp': 'button'}",43,360,Left,66.17722873860696,77.28190088930029,3.308861436930348,1.2139412604464017,Right,Incorrect,0.0,0.0,-45,45,2667,-1,-1
"{'cat': 'II', 'resp': 'button'}",43,361,Right,72.32059879786458,61.99102076626848,3.616029939893229,0.9737526771392068,Right,Correct,0.0,0.0,-45,45,2721,-1,-1
"{'cat': 'II', 'resp': 'button'}",43,362,Right,32.436745283261104,10.951327411483067,1.6218372641630552,0.17202304871485863,Left,Incorrect,0.0,0.0,-45,45,677,-1,-1
"{'cat': 'II', 'resp': 'button'}",43,363,Right,77.87329209837868,62.560259491395236,3.893664604918934,0.9826942581241921,Right,Correct,0.0,0.0,-45,45,655,-1,-1
"{'cat': 'II', 'resp': 'button'}",43,364,Right,79.95501534196148,56.01815509500732,3.9977507670980743,0.8799311225706432,Right,Correct,0.0,0.0,-45,45,3314,-1,-1
"{'cat': 'II', 'resp': 'button'}",43,365,Right,36.48219269430972,19.20504630312118,1.824109634715486,0.30167216188868656,Left,Incorrect,0.0,0.0,-45,45,602,-1,-1
"{'cat': 'II', 'resp': 'button'}",43,366,Right,62.22324453645753,47.55989828143181,3.1111622268228762,0.7470691352321202,Left,Incorrect,0.0,0.0,-45,45,1002,-1,-1
"{'cat': 'II', 'resp': 'button'}",43,367,Left,47.63426918435752,57.11276189931756,2.381713459217876,0.8971251660455954,Left,Correct,0.0,0.0,-45,45,977,-1,-1
"{'cat': 'II', 'resp': 'button'}",43,368,Right,32.20058555530207,14.540919944145891,1.6100292777651035,0.22840823636483018,Left,Incorrect,0.0,0.0,-45,45,2599,-1,-1
"{'cat': 'II', 'resp': 'button'}",43,369,Right,71.34714943096498,49.158132998633874,3.567357471548249,0.7721741474634909,Left,Incorrect,0.0,0.0,-45,45,3454,-1,-1
"{'cat': 'II', 'resp': 'button'}",43,370,Right,81.90348122682383,53.9464533298216,4.095174061341192,0.8473889073409608,Right,Correct,0.0,0.0,-45,45,783,-1,-1
"{'cat': 'II', 'resp': 'button'}",43,371,Left,27.059399931920293,48.095503064578295,1.3529699965960145,0.7554823954919228,Left,Correct,0.0,0.0,-45,45,598,-1,-1
"{'cat': 'II', 'resp': 'button'}",43,372,Left,21.319460673131513,47.77434891423624,1.0659730336565756,0.7504377178950004,Left,Correct,0.0,0.0,-45,45,711,-1,-1
"{'cat': 'II', 'resp': 'button'}",43,373,Right,65.30620632154931,46.71390174499504,3.265310316077466,0.7337802527129592,Right,Correct,0.0,0.0,-45,45,742,-1,-1
"{'cat': 'II', 'resp': 'button'}",43,374,Left,51.82300832807763,74.97080758520042,2.5911504164038814,1.1776386917167978,Left,Correct,0.0,0.0,-45,45,3146,-1,-1
"{'cat': 'II', 'resp': 'button'}",43,375,Left,61.695255214606874,80.9374676273917,3.0847627607303436,1.2713627684918776,Left,Correct,0.0,0.0,-45,45,1078,-1,-1
"{'cat': 'II', 'resp': 'button'}",43,376,Right,54.7978884291219,42.11859586728567,2.7398944214560945,0.6615973567809105,Right,Correct,0.0,0.0,-45,45,1831,-1,-1
"{'cat': 'II', 'resp': 'button'}",43,377,Left,21.67257197053262,43.5575410027173,1.083628598526631,0.6842002541128643,Left,Correct,0.0,0.0,-45,45,708,-1,-1
"{'cat': 'II', 'resp': 'button'}",43,378,Right,70.78647048961683,51.60134951512703,3.5393235244808414,0.8105521027602116,Right,Correct,0.0,0.0,-45,45,541,-1,-1
"{'cat': 'II', 'resp': 'button'}",43,379,Left,16.35908674830832,38.033019219933884,0.8179543374154161,0.5974212688759185,Left,Correct,0.0,0.0,-45,45,844,-1,-1
"{'cat': 'II', 'resp': 'button'}",43,380,Right,42.828844922193646,26.63539386631198,2.141442246109682,0.41838778847938174,Right,Correct,0.0,0.0,-45,45,2334,-1,-1
"{'cat': 'II', 'resp': 'button'}",43,381,Left,28.92778283903906,54.51829974186845,1.446389141951953,0.8563714497763011,Left,Correct,0.0,0.0,-45,45,554,-1,-1
"{'cat': 'II', 'resp': 'button'}",43,382,Right,39.16804179809137,17.413907966235875,1.9584020899045687,0.273537026685077,Right,Correct,0.0,0.0,-45,45,678,-1,-1
"{'cat': 'II', 'resp': 'button'}",43,383,Right,71.06010688624039,55.27974155314499,3.55300534431202,0.8683321497785136,Right,Correct,0.0,0.0,-45,45,848,-1,-1
"{'cat': 'II', 'resp': 'button'}",43,384,Right,39.96950154038893,17.871699481682125,1.9984750770194466,0.2807279989940854,Left,Incorrect,0.0,0.0,-45,45,1077,-1,-1
"{'cat': 'II', 'resp': 'button'}",43,385,Right,58.13860645872474,25.59158596981326,2.906930322936237,0.4019916923823848,Right,Correct,0.0,0.0,-45,45,965,-1,-1
"{'cat': 'II', 'resp': 'button'}",43,386,Right,65.86399562354964,43.05153243923268,3.293199781177482,0.6762518901843804,Right,Correct,0.0,0.0,-45,45,867,-1,-1
"{'cat': 'II', 'resp': 'button'}",43,387,Right,55.474350931593165,30.51643702773859,2.7737175465796584,0.47935107190039544,Left,Incorrect,0.0,0.0,-45,45,999,-1,-1
"{'cat': 'II', 'resp': 'button'}",43,388,Left,32.1176355715847,54.86916602874245,1.6058817785792348,0.8618828445224795,Left,Correct,0.0,0.0,-45,45,874,-1,-1
"{'cat': 'II', 'resp': 'button'}",43,389,Left,32.01380621819054,55.33578419946736,1.600690310909527,0.869212465608384,Left,Correct,0.0,0.0,-45,45,1522,-1,-1
"{'cat': 'II', 'resp': 'button'}",43,390,Left,68.44557628347168,83.14876666419636,3.422278814173584,1.3060977725364558,Right,Incorrect,0.0,0.0,-45,45,731,-1,-1
"{'cat': 'II', 'resp': 'button'}",43,391,Right,56.96849406809585,25.175116047508475,2.8484247034047927,0.3954497981406157,Right,Correct,0.0,0.0,-45,45,1234,-1,-1
"{'cat': 'II', 'resp': 'button'}",43,392,Left,10.97663318481128,32.77378309859101,0.548831659240564,0.5148093810643942,Left,Correct,0.0,0.0,-45,45,838,-1,-1
"{'cat': 'II', 'resp': 'button'}",43,393,Left,20.957954193668186,36.96404618860898,1.0478977096834092,0.5806298797654389,Right,Incorrect,0.0,0.0,-45,45,1050,-1,-1
"{'cat': 'II', 'resp': 'button'}",43,394,Right,44.9868587023856,28.937486879424775,2.2493429351192797,0.4545489809687595,Left,Incorrect,0.0,0.0,-45,45,769,-1,-1
"{'cat': 'II', 'resp': 'button'}",43,395,Left,37.10054205076776,60.86495316081476,1.8550271025383878,0.9560644485555125,Right,Incorrect,0.0,0.0,-45,45,3102,-1,-1
"{'cat': 'II', 'resp': 'button'}",43,396,Left,53.34136479670559,74.30217142410365,2.6670682398352796,1.1671357794586672,Right,Incorrect,0.0,0.0,-45,45,594,-1,-1
"{'cat': 'II', 'resp': 'button'}",43,397,Left,46.65801348074088,67.56170131408226,2.3329006740370435,1.0612567225617435,Right,Incorrect,0.0,0.0,-45,45,1486,-1,-1
"{'cat': 'II', 'resp': 'button'}",43,398,Right,85.67887166507761,68.08645923302915,4.283943583253881,1.0694996006771265,Right,Correct,0.0,0.0,-45,45,927,-1,-1
"{'cat': 'II', 'resp': 'button'}",43,399,Right,52.11497887578067,25.838221045362083,2.6057489437890338,0.40586582708969354,Left,Incorrect,0.0,0.0,-45,45,1005,-1,-1
