condition,subject,trial,cat,x,y,xt,yt,resp,fb,rotation,su,target_angle_left,target_angle_right,rt,mt,ep
"{'cat': 'II', 'resp': 'button'}",35,0,Left,67.8067638419745,80.78020611852227,3.390338192098725,1.2688925104870943,Right,Incorrect,0.0,0.0,-45,45,2688,-1,-1
"{'cat': 'II', 'resp': 'button'}",35,1,Left,51.2770299974209,65.46649397604438,2.5638514998710447,1.0283452826571073,Left,Correct,0.0,0.0,-45,45,1946,-1,-1
"{'cat': 'II', 'resp': 'button'}",35,2,Left,65.69329004353654,79.8406556672719,3.2846645021768266,1.2541340865104684,Right,Incorrect,0.0,0.0,-45,45,1152,-1,-1
"{'cat': 'II', 'resp': 'button'}",35,3,Left,56.94799431483021,76.31329382916466,2.8473997157415107,1.1987264163247149,Right,Incorrect,0.0,0.0,-45,45,1641,-1,-1
"{'cat': 'II', 'resp': 'button'}",35,4,Left,57.82614873645315,70.82823878649556,2.8913074368226575,1.1125673731917904,Left,Correct,0.0,0.0,-45,45,1834,-1,-1
"{'cat': 'II', 'resp': 'button'}",35,5,Right,80.83761349832312,56.45026194402011,4.041880674916156,0.8867186410827653,Right,Correct,0.0,0.0,-45,45,2338,-1,-1
"{'cat': 'II', 'resp': 'button'}",35,6,Right,49.682780256217086,32.27032412054159,2.4841390128108545,0.5069010659302747,Right,Correct,0.0,0.0,-45,45,1409,-1,-1
"{'cat': 'II', 'resp': 'button'}",35,7,Right,75.48287361967444,62.419700900333964,3.7741436809837214,0.9804863689388068,Left,Incorrect,0.0,0.0,-45,45,3277,-1,-1
"{'cat': 'II', 'resp': 'button'}",35,8,Left,19.125597261162795,39.542433208165846,0.9562798630581397,0.6211310883591946,Right,Incorrect,0.0,0.0,-45,45,3816,-1,-1
"{'cat': 'II', 'resp': 'button'}",35,9,Left,56.249574170372995,74.94133505799641,2.8124787085186496,1.1771757383420636,Right,Incorrect,0.0,0.0,-45,45,1091,-1,-1
"{'cat': 'II', 'resp': 'button'}",35,10,Right,37.611689956402216,13.031393740780807,1.8805844978201107,0.20469665421036498,Right,Correct,0.0,0.0,-45,45,1922,-1,-1
"{'cat': 'II', 'resp': 'button'}",35,11,Left,18.771612735554722,34.650008508849325,0.9385806367777362,0.5442810608911243,Right,Incorrect,0.0,0.0,-45,45,4120,-1,-1
"{'cat': 'II', 'resp': 'button'}",35,12,Right,47.77340309897528,17.20679310529305,2.388670154948764,0.2702836740571407,Left,Incorrect,0.0,0.0,-45,45,2037,-1,-1
"{'cat': 'II', 'resp': 'button'}",35,13,Right,86.01415988890344,67.4117843473018,4.3007079944451725,1.0589018323543138,Left,Incorrect,0.0,0.0,-45,45,3559,-1,-1
"{'cat': 'II', 'resp': 'button'}",35,14,Right,67.18600608573232,49.041743766330015,3.3593003042866156,0.7703459096776768,107,Incorrect,0.0,0.0,-45,45,3681,-1,-1
"{'cat': 'II', 'resp': 'button'}",35,15,Right,74.2778651042347,47.327542934338524,3.7138932552117354,0.7434193059748672,Right,Correct,0.0,0.0,-45,45,1044,-1,-1
"{'cat': 'II', 'resp': 'button'}",35,16,Left,15.83139957633739,32.45744534975423,0.7915699788168695,0.5098403593254004,Right,Incorrect,0.0,0.0,-45,45,1821,-1,-1
"{'cat': 'II', 'resp': 'button'}",35,17,Left,41.015427235944216,68.47662776162309,2.050771361797211,1.07562835359259,100,Incorrect,0.0,0.0,-45,45,2180,-1,-1
"{'cat': 'II', 'resp': 'button'}",35,18,Right,79.18608718023978,56.31571094558484,3.959304359011989,0.8846051189416783,Left,Incorrect,0.0,0.0,-45,45,14973,-1,-1
"{'cat': 'II', 'resp': 'button'}",35,19,Right,71.18489996852598,55.98134330642205,3.5592449984262995,0.8793528843477183,Right,Correct,0.0,0.0,-45,45,9475,-1,-1
"{'cat': 'II', 'resp': 'button'}",35,20,Right,46.38961619037892,24.733905491044133,2.319480809518946,0.38851927892624244,Left,Incorrect,0.0,0.0,-45,45,4744,-1,-1
"{'cat': 'II', 'resp': 'button'}",35,21,Right,55.050992425313304,40.26701545564112,2.7525496212656653,0.6325127996871441,Right,Correct,0.0,0.0,-45,45,6108,-1,-1
"{'cat': 'II', 'resp': 'button'}",35,22,Left,28.114031070541806,41.15551697904375,1.4057015535270905,0.6464693489802693,Left,Correct,0.0,0.0,-45,45,3102,-1,-1
"{'cat': 'II', 'resp': 'button'}",35,23,Left,31.533182709143937,56.01374769808051,1.5766591354571968,0.8798618913416095,Left,Correct,0.0,0.0,-45,45,4118,-1,-1
"{'cat': 'II', 'resp': 'button'}",35,24,Left,65.35226066060706,85.74867644488197,3.2676130330303526,1.3469370598714467,Right,Incorrect,0.0,0.0,-45,45,7674,-1,-1
"{'cat': 'II', 'resp': 'button'}",35,25,Left,44.795110563276175,56.19954803241652,2.239755528163809,0.8827804361685322,Right,Incorrect,0.0,0.0,-45,45,2199,-1,-1
"{'cat': 'II', 'resp': 'button'}",35,26,Left,32.281374983322614,49.880611249653924,1.6140687491661307,0.7835228092924058,Left,Correct,0.0,0.0,-45,45,2358,-1,-1
"{'cat': 'II', 'resp': 'button'}",35,27,Left,65.9366825025212,79.54447662496962,3.2968341251260598,1.249481716993248,Right,Incorrect,0.0,0.0,-45,45,3384,-1,-1
"{'cat': 'II', 'resp': 'button'}",35,28,Right,79.76601568809318,51.86837175653668,3.9883007844046587,0.8147464783199998,Left,Incorrect,0.0,0.0,-45,45,8911,-1,-1
"{'cat': 'II', 'resp': 'button'}",35,29,Right,42.2027813006121,16.66526140169457,2.110139065030605,0.261777313948586,Left,Incorrect,0.0,0.0,-45,45,3903,-1,-1
"{'cat': 'II', 'resp': 'button'}",35,30,Right,34.85361585505019,24.192277002921067,1.7426807927525092,0.38001139852993066,Right,Correct,0.0,0.0,-45,45,4749,-1,-1
"{'cat': 'II', 'resp': 'button'}",35,31,Left,62.2273165539997,83.41630366828186,3.1113658276999847,1.3103002339694478,Right,Incorrect,0.0,0.0,-45,45,4043,-1,-1
"{'cat': 'II', 'resp': 'button'}",35,32,Left,16.65193942578984,31.762868401882372,0.832596971289492,0.49892997014146506,107,Incorrect,0.0,0.0,-45,45,2077,-1,-1
"{'cat': 'II', 'resp': 'button'}",35,33,Left,29.844125031244694,55.974735358770204,1.4922062515622345,0.8792490869487265,Left,Correct,0.0,0.0,-45,45,5503,-1,-1
"{'cat': 'II', 'resp': 'button'}",35,34,Right,65.9356999200634,55.54197592211345,3.29678499600317,0.872451317613864,Right,Correct,0.0,0.0,-45,45,2529,-1,-1
"{'cat': 'II', 'resp': 'button'}",35,35,Left,31.56124168469531,55.603772384387945,1.5780620842347657,0.873422014173361,Right,Incorrect,0.0,0.0,-45,45,1618,-1,-1
"{'cat': 'II', 'resp': 'button'}",35,36,Left,28.190786885808173,56.952714765224464,1.4095393442904085,0.8946111515421205,Left,Correct,0.0,0.0,-45,45,2176,-1,-1
"{'cat': 'II', 'resp': 'button'}",35,37,Right,50.9340371524214,40.218351434272854,2.5467018576210703,0.6317483870270206,Left,Incorrect,0.0,0.0,-45,45,5325,-1,-1
"{'cat': 'II', 'resp': 'button'}",35,38,Right,50.972940699255545,27.01077907909353,2.5486470349627774,0.42428432561308566,Right,Correct,0.0,0.0,-45,45,3538,-1,-1
"{'cat': 'II', 'resp': 'button'}",35,39,Right,60.14234944535146,37.544918045864925,3.007117472267573,0.5897541935626005,Left,Incorrect,0.0,0.0,-45,45,1421,-1,-1
"{'cat': 'II', 'resp': 'button'}",35,40,Right,60.986607650210445,50.33493426318953,3.0493303825105222,0.7906592985008071,Right,Correct,0.0,0.0,-45,45,1391,-1,-1
"{'cat': 'II', 'resp': 'button'}",35,41,Left,53.572092928722626,61.80421731257667,2.6786046464361313,0.9708183753502898,Left,Correct,0.0,0.0,-45,45,3112,-1,-1
"{'cat': 'II', 'resp': 'button'}",35,42,Right,68.57895795930992,57.940770888656786,3.428947897965496,0.9101315008356675,Left,Incorrect,0.0,0.0,-45,45,2172,-1,-1
"{'cat': 'II', 'resp': 'button'}",35,43,Left,46.15720114237911,57.59712679452108,2.3078600571189556,0.9047335520277364,Left,Correct,0.0,0.0,-45,45,1618,-1,-1
"{'cat': 'II', 'resp': 'button'}",35,44,Left,20.207996335866248,39.979342508057755,1.0103998167933126,0.6279940435933219,Right,Incorrect,0.0,0.0,-45,45,1473,-1,-1
"{'cat': 'II', 'resp': 'button'}",35,45,Right,50.08247702125798,34.35615125508552,2.5041238510628987,0.5396651619429821,Left,Incorrect,0.0,0.0,-45,45,2070,-1,-1
"{'cat': 'II', 'resp': 'button'}",35,46,Left,43.78371612816744,68.05411281240977,2.1891858064083722,1.0689915042901876,Right,Incorrect,0.0,0.0,-45,45,927,-1,-1
"{'cat': 'II', 'resp': 'button'}",35,47,Right,58.24665574828668,39.0302995932292,2.912332787414334,0.6130865123474878,Left,Incorrect,0.0,0.0,-45,45,1788,-1,-1
"{'cat': 'II', 'resp': 'button'}",35,48,Left,57.60884916739955,78.96962912363439,2.8804424583699775,1.240452033557602,Right,Incorrect,0.0,0.0,-45,45,1642,-1,-1
"{'cat': 'II', 'resp': 'button'}",35,49,Left,16.08827823762631,38.291330696622765,0.8044139118813155,0.601478816063437,Left,Correct,0.0,0.0,-45,45,2133,-1,-1
"{'cat': 'II', 'resp': 'button'}",35,50,Right,75.37267735912326,55.97009151857492,3.768633867956163,0.8791761416775168,Left,Incorrect,0.0,0.0,-45,45,1357,-1,-1
"{'cat': 'II', 'resp': 'button'}",35,51,Left,37.662524264154094,64.93644504712707,1.8831262132077047,1.0200192935514585,Right,Incorrect,0.0,0.0,-45,45,906,-1,-1
"{'cat': 'II', 'resp': 'button'}",35,52,Right,59.2940548178002,31.613667339537287,2.96470274089001,0.4965863253346096,Left,Incorrect,0.0,0.0,-45,45,376,-1,-1
"{'cat': 'II', 'resp': 'button'}",35,53,Left,31.655224174502358,46.73442439598655,1.582761208725118,0.7341026217608948,Left,Correct,0.0,0.0,-45,45,1081,-1,-1
"{'cat': 'II', 'resp': 'button'}",35,54,Left,38.1445597546713,63.786638250701145,1.907227987733565,1.0019581706279619,Right,Incorrect,0.0,0.0,-45,45,1336,-1,-1
"{'cat': 'II', 'resp': 'button'}",35,55,Right,77.65517988758187,60.07815873670701,3.8827589943790937,0.943705510642201,Right,Correct,0.0,0.0,-45,45,2012,-1,-1
"{'cat': 'II', 'resp': 'button'}",35,56,Left,28.621829963727414,54.690975396182104,1.4310914981863707,0.8590838326115292,Right,Incorrect,0.0,0.0,-45,45,3982,-1,-1
"{'cat': 'II', 'resp': 'button'}",35,57,Left,27.235111778085017,42.778509399916445,1.361755588904251,0.6719632543114971,Left,Correct,0.0,0.0,-45,45,1510,-1,-1
"{'cat': 'II', 'resp': 'button'}",35,58,Right,36.649706149170825,26.084958920004695,1.8324853074585412,0.40974157656139154,Right,Correct,0.0,0.0,-45,45,3381,-1,-1
"{'cat': 'II', 'resp': 'button'}",35,59,Left,53.964966888605005,63.42175133719931,2.69824834443025,0.9962265403937199,Right,Incorrect,0.0,0.0,-45,45,2024,-1,-1
"{'cat': 'II', 'resp': 'button'}",35,60,Right,79.29410581578027,55.843649297890984,3.9647052907890132,0.8771899919194956,Right,Correct,0.0,0.0,-45,45,1205,-1,-1
"{'cat': 'II', 'resp': 'button'}",35,61,Right,61.720483742051854,42.7926799928627,3.0860241871025926,0.672185845464982,Right,Correct,0.0,0.0,-45,45,860,-1,-1
"{'cat': 'II', 'resp': 'button'}",35,62,Right,74.1890297015345,41.847561971419914,3.7094514850767246,0.657339966300282,Right,Correct,0.0,0.0,-45,45,1306,-1,-1
"{'cat': 'II', 'resp': 'button'}",35,63,Left,39.292968818531385,66.64085327555188,1.9646484409265694,1.0467920753971454,Right,Incorrect,0.0,0.0,-45,45,1978,-1,-1
"{'cat': 'II', 'resp': 'button'}",35,64,Right,71.9071004413253,61.3562502198795,3.5953550220662644,0.9637817247129529,Right,Correct,0.0,0.0,-45,45,1480,-1,-1
"{'cat': 'II', 'resp': 'button'}",35,65,Right,76.47253694332335,64.30198413759526,3.8236268471661674,1.0100532048895832,Right,Correct,0.0,0.0,-45,45,1200,-1,-1
"{'cat': 'II', 'resp': 'button'}",35,66,Right,81.80369406779283,56.05996511065958,4.0901847033896415,0.8805878727607414,Right,Correct,0.0,0.0,-45,45,2703,-1,-1
"{'cat': 'II', 'resp': 'button'}",35,67,Left,34.1712723786826,62.262907340382384,1.70856361893413,0.9780234614584363,Right,Incorrect,0.0,0.0,-45,45,1697,-1,-1
"{'cat': 'II', 'resp': 'button'}",35,68,Left,60.10234603271669,78.11098864943253,3.0051173016358343,1.2269645405284648,107,Incorrect,0.0,0.0,-45,45,1548,-1,-1
"{'cat': 'II', 'resp': 'button'}",35,69,Right,68.85511374132359,59.340253332906556,3.4427556870661795,0.9321145196640823,Right,Correct,0.0,0.0,-45,45,1197,-1,-1
"{'cat': 'II', 'resp': 'button'}",35,70,Left,58.01233113943607,73.85780176915233,2.9006165569718037,1.1601556372413009,Right,Incorrect,0.0,0.0,-45,45,1294,-1,-1
"{'cat': 'II', 'resp': 'button'}",35,71,Left,34.315418067733795,57.738276954931166,1.7157709033866897,0.9069507335627232,Right,Incorrect,0.0,0.0,-45,45,1415,-1,-1
"{'cat': 'II', 'resp': 'button'}",35,72,Right,45.432320208502915,18.744447894195236,2.271616010425146,0.29443709900000214,Left,Incorrect,0.0,0.0,-45,45,871,-1,-1
"{'cat': 'II', 'resp': 'button'}",35,73,Left,42.5967380702933,69.59221323682387,2.129836903514665,1.0931519292593008,Right,Incorrect,0.0,0.0,-45,45,1414,-1,-1
"{'cat': 'II', 'resp': 'button'}",35,74,Right,83.90619172772942,62.29751377014142,4.195309586386471,0.9785670579859261,Right,Correct,0.0,0.0,-45,45,1125,-1,-1
"{'cat': 'II', 'resp': 'button'}",35,75,Right,42.0167962816272,15.965924000345773,2.10083981408136,0.2507921477362962,Left,Incorrect,0.0,0.0,-45,45,1693,-1,-1
"{'cat': 'II', 'resp': 'button'}",35,76,Right,88.45445525932307,67.08840032721601,4.422722762966154,1.0538221280453643,Right,Correct,0.0,0.0,-45,45,7830,-1,-1
"{'cat': 'II', 'resp': 'button'}",35,77,Right,49.72628082953563,32.2787505432032,2.4863140414767817,0.5070334278679236,Right,Correct,0.0,0.0,-45,45,6676,-1,-1
"{'cat': 'II', 'resp': 'button'}",35,78,Right,61.58207924848216,48.39041935254208,3.079103962424108,0.7601149297103779,Right,Correct,0.0,0.0,-45,45,2296,-1,-1
"{'cat': 'II', 'resp': 'button'}",35,79,Left,11.803492151533288,36.62945971431843,0.5901746075766644,0.5753742077173303,Right,Incorrect,0.0,0.0,-45,45,6926,-1,-1
"{'cat': 'II', 'resp': 'button'}",35,80,Right,62.02119318013763,33.084640618821226,3.1010596590068813,0.5196923195737362,Right,Correct,0.0,0.0,-45,45,883,-1,-1
"{'cat': 'II', 'resp': 'button'}",35,81,Right,87.70080950523707,61.5791647922029,4.385040475261854,0.9672832586268995,Right,Correct,0.0,0.0,-45,45,3014,-1,-1
"{'cat': 'II', 'resp': 'button'}",35,82,Left,53.894562718322334,80.0711674159197,2.6947281359161166,1.2577549565910586,Right,Incorrect,0.0,0.0,-45,45,1317,-1,-1
"{'cat': 'II', 'resp': 'button'}",35,83,Left,45.5065440227053,64.57441158264075,2.2753272011352648,1.014332485189539,Left,Correct,0.0,0.0,-45,45,1661,-1,-1
"{'cat': 'II', 'resp': 'button'}",35,84,Right,47.04578266127346,20.206121195291125,2.352289133063673,0.31739700952335803,Right,Correct,0.0,0.0,-45,45,1178,-1,-1
"{'cat': 'II', 'resp': 'button'}",35,85,Left,44.89701264292961,69.01560341313319,2.2448506321464805,1.0840945633288295,Right,Incorrect,0.0,0.0,-45,45,2514,-1,-1
"{'cat': 'II', 'resp': 'button'}",35,86,Right,75.47436407940138,51.89629109662968,3.773718203970069,0.8151850342886459,Right,Correct,0.0,0.0,-45,45,1094,-1,-1
"{'cat': 'II', 'resp': 'button'}",35,87,Right,83.39651844090565,61.840050008863976,4.169825922045282,0.9713812340273624,Left,Incorrect,0.0,0.0,-45,45,2555,-1,-1
"{'cat': 'II', 'resp': 'button'}",35,88,Left,15.994987231556376,31.80524584360833,0.7997493615778188,0.4995956334394861,Right,Incorrect,0.0,0.0,-45,45,1369,-1,-1
"{'cat': 'II', 'resp': 'button'}",35,89,Left,47.792166837110486,61.68446038852926,2.3896083418555243,0.9689372379862705,Right,Incorrect,0.0,0.0,-45,45,1913,-1,-1
"{'cat': 'II', 'resp': 'button'}",35,90,Left,27.265212662630216,46.2527981316676,1.363260633131511,0.7265372540920932,Left,Correct,0.0,0.0,-45,45,691,-1,-1
"{'cat': 'II', 'resp': 'button'}",35,91,Left,45.29555873606993,67.39282308256317,2.264777936803496,1.0586039895042854,Right,Incorrect,0.0,0.0,-45,45,2471,-1,-1
"{'cat': 'II', 'resp': 'button'}",35,92,Right,39.58877172006018,21.524540623751108,1.979438586003009,0.3381066934773577,Right,Correct,0.0,0.0,-45,45,1430,-1,-1
"{'cat': 'II', 'resp': 'button'}",35,93,Right,86.55640257591246,61.2461130126712,4.327820128795623,0.9620516935076904,Right,Correct,0.0,0.0,-45,45,1599,-1,-1
"{'cat': 'II', 'resp': 'button'}",35,94,Right,64.66179799968724,53.95211603962355,3.233089899984362,0.8474778569785268,Left,Incorrect,0.0,0.0,-45,45,4642,-1,-1
"{'cat': 'II', 'resp': 'button'}",35,95,Left,50.082217214097675,70.41599943376761,2.5041108607048836,1.1060919325815368,Right,Incorrect,0.0,0.0,-45,45,1033,-1,-1
"{'cat': 'II', 'resp': 'button'}",35,96,Right,87.63931690343479,62.29114971690238,4.38196584517174,0.9784670916714121,Right,Correct,0.0,0.0,-45,45,1568,-1,-1
"{'cat': 'II', 'resp': 'button'}",35,97,Left,39.52635387869169,59.9554869817944,1.9763176939345843,0.941778587222019,Left,Correct,0.0,0.0,-45,45,1029,-1,-1
"{'cat': 'II', 'resp': 'button'}",35,98,Left,34.60525731339799,44.964478005604775,1.7302628656698997,0.7063003688745391,Right,Incorrect,0.0,0.0,-45,45,1301,-1,-1
"{'cat': 'II', 'resp': 'button'}",35,99,Right,82.05467418549158,51.492258749472605,4.102733709274579,0.8088385090204394,Right,Correct,0.0,0.0,-45,45,1034,-1,-1
"{'cat': 'II', 'resp': 'button'}",35,100,Right,37.7123851570594,27.05983425321181,1.88561925785297,0.42505488248623835,107,Incorrect,0.0,0.0,-45,45,740,-1,-1
"{'cat': 'II', 'resp': 'button'}",35,101,Right,57.67769812055764,45.3078834509306,2.883884906027882,0.7116945689957308,Right,Correct,0.0,0.0,-45,45,1574,-1,-1
"{'cat': 'II', 'resp': 'button'}",35,102,Left,12.542336547539577,40.472885296510995,0.6271168273769788,0.6357465955855065,Left,Correct,0.0,0.0,-45,45,1153,-1,-1
"{'cat': 'II', 'resp': 'button'}",35,103,Left,55.18748825315816,64.44560096659575,2.7593744126579076,1.0123091327641822,100,Incorrect,0.0,0.0,-45,45,1356,-1,-1
"{'cat': 'II', 'resp': 'button'}",35,104,Right,78.16637600496273,58.722725786240424,3.9083188002481366,0.9224144196441041,Right,Correct,0.0,0.0,-45,45,1689,-1,-1
"{'cat': 'II', 'resp': 'button'}",35,105,Left,13.754390837150027,30.48555161803266,0.6877195418575013,0.4788659250192192,Left,Correct,0.0,0.0,-45,45,1656,-1,-1
"{'cat': 'II', 'resp': 'button'}",35,106,Right,42.73829716628023,14.066888718171242,2.136914858314012,0.22096217127935955,Right,Correct,0.0,0.0,-45,45,546,-1,-1
"{'cat': 'II', 'resp': 'button'}",35,107,Left,57.919151256942385,85.97079827906688,2.8959575628471192,1.3504261414838328,100,Incorrect,0.0,0.0,-45,45,538,-1,-1
"{'cat': 'II', 'resp': 'button'}",35,108,Right,85.08122116319902,59.411017004391496,4.254061058159951,0.933226072816473,107,Incorrect,0.0,0.0,-45,45,657,-1,-1
"{'cat': 'II', 'resp': 'button'}",35,109,Left,55.65277545726974,65.1677820376925,2.782638772863487,1.0236531265017783,100,Incorrect,0.0,0.0,-45,45,602,-1,-1
"{'cat': 'II', 'resp': 'button'}",35,110,Right,67.63070423548541,45.13496098428718,3.38153521177427,0.7089783092414927,Left,Incorrect,0.0,0.0,-45,45,881,-1,-1
"{'cat': 'II', 'resp': 'button'}",35,111,Right,56.249308874257615,40.48983157915503,2.8124654437128807,0.6360127871708071,Right,Correct,0.0,0.0,-45,45,540,-1,-1
"{'cat': 'II', 'resp': 'button'}",35,112,Right,50.57515383096757,26.58099653839684,2.5287576915483787,0.4175333172506161,Left,Incorrect,0.0,0.0,-45,45,694,-1,-1
"{'cat': 'II', 'resp': 'button'}",35,113,Right,44.284223213036874,31.604393487089894,2.214211160651844,0.49644065200101356,Right,Correct,0.0,0.0,-45,45,762,-1,-1
"{'cat': 'II', 'resp': 'button'}",35,114,Right,43.48924950071414,33.061915051123094,2.174462475035707,0.5193353471910905,Right,Correct,0.0,0.0,-45,45,2394,-1,-1
"{'cat': 'II', 'resp': 'button'}",35,115,Right,80.38948280331579,52.58434627605352,4.019474140165789,0.8259929797733576,Right,Correct,0.0,0.0,-45,45,1012,-1,-1
"{'cat': 'II', 'resp': 'button'}",35,116,Right,67.55247746342214,40.92673247038784,3.377623873171107,0.6428756103220263,107,Incorrect,0.0,0.0,-45,45,651,-1,-1
"{'cat': 'II', 'resp': 'button'}",35,117,Left,50.33705195634496,62.37827542156825,2.516852597817248,0.9798356590399979,Left,Correct,0.0,0.0,-45,45,1068,-1,-1
"{'cat': 'II', 'resp': 'button'}",35,118,Left,34.91489970820696,54.81747042168311,1.7457449854103482,0.8610708118256774,Left,Correct,0.0,0.0,-45,45,1583,-1,-1
"{'cat': 'II', 'resp': 'button'}",35,119,Left,51.559470334984766,79.7431178855867,2.5779735167492386,1.2526019666185202,Right,Incorrect,0.0,0.0,-45,45,1509,-1,-1
"{'cat': 'II', 'resp': 'button'}",35,120,Right,52.532497280284815,28.975078398916086,2.6266248640142407,0.4551394671761154,Left,Incorrect,0.0,0.0,-45,45,567,-1,-1
"{'cat': 'II', 'resp': 'button'}",35,121,Right,70.98733632767402,49.05725939741378,3.549366816383701,0.7705896286408198,Right,Correct,0.0,0.0,-45,45,944,-1,-1
"{'cat': 'II', 'resp': 'button'}",35,122,Right,86.1780929870006,60.60610728113065,4.30890464935003,0.9519985069853746,Right,Correct,0.0,0.0,-45,45,753,-1,-1
"{'cat': 'II', 'resp': 'button'}",35,123,Left,53.077598873345885,80.71830151946364,2.653879943667294,1.2679201153189639,Right,Incorrect,0.0,0.0,-45,45,496,-1,-1
"{'cat': 'II', 'resp': 'button'}",35,124,Left,40.45355244606988,62.149736426672675,2.022677622303494,0.9762457769028842,Left,Correct,0.0,0.0,-45,45,1130,-1,-1
"{'cat': 'II', 'resp': 'button'}",35,125,Left,62.33622383261005,75.49731148178255,3.1168111916305024,1.185908995584742,Right,Incorrect,0.0,0.0,-45,45,599,-1,-1
"{'cat': 'II', 'resp': 'button'}",35,126,Left,15.698540102522031,31.663499053555533,0.7849270051261016,0.4973690800679871,Right,Incorrect,0.0,0.0,-45,45,1360,-1,-1
"{'cat': 'II', 'resp': 'button'}",35,127,Left,26.47971323135709,47.72860854407188,1.3239856615678545,0.7497192298405964,Left,Correct,0.0,0.0,-45,45,575,-1,-1
"{'cat': 'II', 'resp': 'button'}",35,128,Left,43.98196668514946,65.06222981125178,2.199098334257473,1.0219951160059972,Left,Correct,0.0,0.0,-45,45,1136,-1,-1
"{'cat': 'II', 'resp': 'button'}",35,129,Right,75.79515813033032,61.69931628719391,3.789757906516516,0.9691705938968074,Right,Correct,0.0,0.0,-45,45,948,-1,-1
"{'cat': 'II', 'resp': 'button'}",35,130,Left,31.730261210165175,63.44358568918021,1.5865130605082587,0.9965695135926153,Left,Correct,0.0,0.0,-45,45,874,-1,-1
"{'cat': 'II', 'resp': 'button'}",35,131,Left,58.8511092047144,72.86703994139096,2.94255546023572,1.1445927868435393,100,Incorrect,0.0,0.0,-45,45,969,-1,-1
"{'cat': 'II', 'resp': 'button'}",35,132,Left,57.19803290615063,86.09547055019176,2.859901645307531,1.352384488939194,Right,Incorrect,0.0,0.0,-45,45,667,-1,-1
"{'cat': 'II', 'resp': 'button'}",35,133,Left,11.273845836000099,35.79022183014692,0.5636922918000049,0.562191489859693,Left,Correct,0.0,0.0,-45,45,1915,-1,-1
"{'cat': 'II', 'resp': 'button'}",35,134,Left,46.13228145594515,77.93131816872476,2.3066140727972573,1.2241422832171724,Left,Correct,0.0,0.0,-45,45,936,-1,-1
"{'cat': 'II', 'resp': 'button'}",35,135,Left,11.924976744608106,34.35979413183536,0.5962488372304052,0.5397223841171581,Left,Correct,0.0,0.0,-45,45,1057,-1,-1
"{'cat': 'II', 'resp': 'button'}",35,136,Left,58.712291947879294,72.60657372794654,2.9356145973939647,1.1405013931302126,Left,Correct,0.0,0.0,-45,45,1142,-1,-1
"{'cat': 'II', 'resp': 'button'}",35,137,Left,57.02629698469866,85.32505933523778,2.851314849234933,1.340282897873481,Left,Correct,0.0,0.0,-45,45,920,-1,-1
"{'cat': 'II', 'resp': 'button'}",35,138,Left,46.29240681305039,65.84848081163943,2.314620340652519,1.0343455178394745,Left,Correct,0.0,0.0,-45,45,1025,-1,-1
"{'cat': 'II', 'resp': 'button'}",35,139,Left,69.24179197746743,88.54789069673005,3.462089598873371,1.3909070145185956,100,Incorrect,0.0,0.0,-45,45,992,-1,-1
"{'cat': 'II', 'resp': 'button'}",35,140,Left,45.455000636897,72.08827899149875,2.27275003184485,1.1323600384481196,Left,Correct,0.0,0.0,-45,45,646,-1,-1
"{'cat': 'II', 'resp': 'button'}",35,141,Left,29.389789729210385,48.11998363420405,1.4694894864605192,0.7558669353803825,Left,Correct,0.0,0.0,-45,45,455,-1,-1
"{'cat': 'II', 'resp': 'button'}",35,142,Left,43.65861681516558,52.38851693520114,2.182930840758279,0.8229168996804617,Left,Correct,0.0,0.0,-45,45,1132,-1,-1
"{'cat': 'II', 'resp': 'button'}",35,143,Right,50.808793666155964,42.602062327746474,2.540439683307798,0.669191630183114,107,Incorrect,0.0,0.0,-45,45,573,-1,-1
"{'cat': 'II', 'resp': 'button'}",35,144,Right,48.45373175702679,37.1779056433552,2.4226865878513393,0.5839891762250962,Left,Incorrect,0.0,0.0,-45,45,1000,-1,-1
"{'cat': 'II', 'resp': 'button'}",35,145,Left,66.94598396537987,87.0829058336768,3.3472991982689932,1.367895086101654,100,Incorrect,0.0,0.0,-45,45,1118,-1,-1
"{'cat': 'II', 'resp': 'button'}",35,146,Left,13.902472732009148,32.8905837915149,0.6951236366004574,0.5166440820585136,Left,Correct,0.0,0.0,-45,45,776,-1,-1
"{'cat': 'II', 'resp': 'button'}",35,147,Left,41.578749407290715,71.49236353897221,2.078937470364536,1.1229994204090294,Left,Correct,0.0,0.0,-45,45,755,-1,-1
"{'cat': 'II', 'resp': 'button'}",35,148,Left,20.187910652306897,51.20328074783833,1.0093955326153448,0.8042992531855231,Left,Correct,0.0,0.0,-45,45,713,-1,-1
"{'cat': 'II', 'resp': 'button'}",35,149,Right,45.82700149716905,24.870454736230364,2.2913500748584523,0.390664189453894,Left,Incorrect,0.0,0.0,-45,45,1018,-1,-1
"{'cat': 'II', 'resp': 'button'}",35,150,Left,67.55667578329559,84.679875031221,3.3778337891647796,1.3301483665249283,100,Incorrect,0.0,0.0,-45,45,1200,-1,-1
"{'cat': 'II', 'resp': 'button'}",35,151,Left,29.17638260494465,45.60429977878646,1.4588191302472324,0.7163506657857108,Left,Correct,0.0,0.0,-45,45,800,-1,-1
"{'cat': 'II', 'resp': 'button'}",35,152,Left,12.220236006128534,35.01791485973318,0.6110118003064267,0.550060120336853,Left,Correct,0.0,0.0,-45,45,411,-1,-1
"{'cat': 'II', 'resp': 'button'}",35,153,Right,37.450683338573214,24.271904375699286,1.8725341669286606,0.3812621823766541,Left,Incorrect,0.0,0.0,-45,45,443,-1,-1
"{'cat': 'II', 'resp': 'button'}",35,154,Right,67.7330020910046,49.91523454097601,3.3866501045502297,0.7840666706807086,Right,Correct,0.0,0.0,-45,45,1252,-1,-1
"{'cat': 'II', 'resp': 'button'}",35,155,Left,49.459482268727825,70.80285593188334,2.472974113436391,1.112168660243906,Left,Correct,0.0,0.0,-45,45,1407,-1,-1
"{'cat': 'II', 'resp': 'button'}",35,156,Right,75.92416475228566,53.22253174397046,3.796208237614283,0.8360175736615357,Right,Correct,0.0,0.0,-45,45,1005,-1,-1
"{'cat': 'II', 'resp': 'button'}",35,157,Left,39.997740255448505,53.182708954757125,1.999887012772425,0.8353920387513455,Left,Correct,0.0,0.0,-45,45,840,-1,-1
"{'cat': 'II', 'resp': 'button'}",35,158,Right,47.45002989096235,24.218880014825757,2.3725014945481173,0.3804292776637463,Left,Incorrect,0.0,0.0,-45,45,564,-1,-1
"{'cat': 'II', 'resp': 'button'}",35,159,Left,31.73941371529456,56.61576403631568,1.586970685764728,0.8893183418693128,Left,Correct,0.0,0.0,-45,45,632,-1,-1
"{'cat': 'II', 'resp': 'button'}",35,160,Left,18.06055833731447,45.63622389797031,0.9030279168657234,0.7168521286772125,Left,Correct,0.0,0.0,-45,45,371,-1,-1
"{'cat': 'II', 'resp': 'button'}",35,161,Left,39.930388817033474,51.599437288492084,1.9965194408516738,0.8105220655744699,Left,Correct,0.0,0.0,-45,45,510,-1,-1
"{'cat': 'II', 'resp': 'button'}",35,162,Left,35.65000218915226,64.07128130510789,1.782500109457613,1.0064293332710599,100,Incorrect,0.0,0.0,-45,45,718,-1,-1
"{'cat': 'II', 'resp': 'button'}",35,163,Left,44.39438995459929,56.456893362036936,2.2197194977299644,0.8868228071533879,Right,Incorrect,0.0,0.0,-45,45,1371,-1,-1
"{'cat': 'II', 'resp': 'button'}",35,164,Right,60.70713576924005,38.732635715959525,3.0353567884620025,0.6084108190971405,Right,Correct,0.0,0.0,-45,45,843,-1,-1
"{'cat': 'II', 'resp': 'button'}",35,165,Left,51.916942841367344,63.17755223521996,2.5958471420683673,0.9923906698697621,Left,Correct,0.0,0.0,-45,45,1280,-1,-1
"{'cat': 'II', 'resp': 'button'}",35,166,Right,82.06604258307877,56.9699928123141,4.103302129153938,0.8948825544711465,107,Incorrect,0.0,0.0,-45,45,1054,-1,-1
"{'cat': 'II', 'resp': 'button'}",35,167,Right,62.80515892486899,32.471381749982356,3.1402579462434494,0.5100592717882713,Left,Incorrect,0.0,0.0,-45,45,1893,-1,-1
"{'cat': 'II', 'resp': 'button'}",35,168,Left,31.72387704983184,61.99725673091148,1.5861938524915922,0.9738506314427593,Left,Correct,0.0,0.0,-45,45,772,-1,-1
"{'cat': 'II', 'resp': 'button'}",35,169,Left,33.01811424553967,50.95245814454358,1.6509057122769835,0.8003593409461977,Left,Correct,0.0,0.0,-45,45,459,-1,-1
"{'cat': 'II', 'resp': 'button'}",35,170,Left,52.46999597564067,72.7220695753159,2.6234997987820337,1.142315597658291,Right,Incorrect,0.0,0.0,-45,45,1128,-1,-1
"{'cat': 'II', 'resp': 'button'}",35,171,Left,16.179728009153585,38.07947428788003,0.8089864004576793,0.5981509833768266,Left,Correct,0.0,0.0,-45,45,516,-1,-1
"{'cat': 'II', 'resp': 'button'}",35,172,Right,53.84965345736794,33.827490021569105,2.6924826728683975,0.5313609707057176,Left,Incorrect,0.0,0.0,-45,45,1228,-1,-1
"{'cat': 'II', 'resp': 'button'}",35,173,Left,13.928209552134195,35.050930747978185,0.6964104776067097,0.5505787326966644,Left,Correct,0.0,0.0,-45,45,605,-1,-1
"{'cat': 'II', 'resp': 'button'}",35,174,Right,64.02652756795469,42.06959803030063,3.2013263783977344,0.6608277005573404,Right,Correct,0.0,0.0,-45,45,1275,-1,-1
"{'cat': 'II', 'resp': 'button'}",35,175,Right,77.37175348790893,64.9765511305887,3.8685876743954464,1.0206492784372951,Right,Correct,0.0,0.0,-45,45,535,-1,-1
"{'cat': 'II', 'resp': 'button'}",35,176,Right,57.734199833394115,35.25326015126926,2.8867099916697057,0.5537569155315866,Left,Incorrect,0.0,0.0,-45,45,1637,-1,-1
"{'cat': 'II', 'resp': 'button'}",35,177,Right,48.47339728272952,27.160185135403246,2.4236698641364764,0.4266311904576077,Right,Correct,0.0,0.0,-45,45,1134,-1,-1
"{'cat': 'II', 'resp': 'button'}",35,178,Right,77.62518372605942,62.86328233095901,3.881259186302971,0.9874541297574093,Right,Correct,0.0,0.0,-45,45,745,-1,-1
"{'cat': 'II', 'resp': 'button'}",35,179,Left,53.45253630696452,79.11869594511882,2.672626815348226,1.2427935697139492,Left,Correct,0.0,0.0,-45,45,884,-1,-1
"{'cat': 'II', 'resp': 'button'}",35,180,Left,68.88937762874913,82.76178941473839,3.4444688814374564,1.3000191481164383,Right,Incorrect,0.0,0.0,-45,45,976,-1,-1
"{'cat': 'II', 'resp': 'button'}",35,181,Right,65.86858772986,50.140982423720104,3.293429386493,0.7876127101306701,Right,Correct,0.0,0.0,-45,45,1581,-1,-1
"{'cat': 'II', 'resp': 'button'}",35,182,Right,45.82326165680233,26.72302967050892,2.2911630828401166,0.4197643684726645,Left,Incorrect,0.0,0.0,-45,45,2469,-1,-1
"{'cat': 'II', 'resp': 'button'}",35,183,Left,35.52159825901586,53.18101940022709,1.776079912950793,0.8353654992908484,Left,Correct,0.0,0.0,-45,45,430,-1,-1
"{'cat': 'II', 'resp': 'button'}",35,184,Right,63.176077858365886,50.49538935760152,3.158803892918294,0.7931797212299858,Right,Correct,0.0,0.0,-45,45,1113,-1,-1
"{'cat': 'II', 'resp': 'button'}",35,185,Left,46.80480864212903,58.03584776075603,2.3402404321064516,0.911624964850234,Left,Correct,0.0,0.0,-45,45,931,-1,-1
"{'cat': 'II', 'resp': 'button'}",35,186,Right,75.5723094873045,58.07764450539344,3.7786154743652247,0.9122815065797182,Right,Correct,0.0,0.0,-45,45,838,-1,-1
"{'cat': 'II', 'resp': 'button'}",35,187,Right,45.52502225392078,21.803993158372332,2.276251112696039,0.3424963236263232,Left,Incorrect,0.0,0.0,-45,45,892,-1,-1
"{'cat': 'II', 'resp': 'button'}",35,188,Left,42.5770898653985,59.9694859720012,2.128854493269925,0.9419984828459758,100,Correct,0.0,0.0,-45,45,745,-1,-1
"{'cat': 'II', 'resp': 'button'}",35,189,Right,83.52911982155283,64.84738141167196,4.176455991077642,1.01862028523722,Right,Correct,0.0,0.0,-45,45,788,-1,-1
"{'cat': 'II', 'resp': 'button'}",35,190,Right,79.31099085869162,59.32409089542071,3.9655495429345815,0.9318606406897342,Right,Correct,0.0,0.0,-45,45,841,-1,-1
"{'cat': 'II', 'resp': 'button'}",35,191,Left,39.648712918914704,70.56539855400358,1.982435645945735,1.1084386884744672,Left,Correct,0.0,0.0,-45,45,674,-1,-1
"{'cat': 'II', 'resp': 'button'}",35,192,Right,47.19795217893634,29.09004669567024,2.359897608946817,0.4569453849585082,Left,Incorrect,0.0,0.0,-45,45,452,-1,-1
"{'cat': 'II', 'resp': 'button'}",35,193,Right,61.339384411647174,30.964264928322063,3.066969220582359,0.48638553611312335,Right,Correct,0.0,0.0,-45,45,2867,-1,-1
"{'cat': 'II', 'resp': 'button'}",35,194,Right,37.798577765867506,14.242402686354598,1.8899288882933751,0.2237191382445957,Left,Incorrect,0.0,0.0,-45,45,717,-1,-1
"{'cat': 'II', 'resp': 'button'}",35,195,Left,28.156647023513948,56.06052097165045,1.4078323511756974,0.8805966042047678,Left,Correct,0.0,0.0,-45,45,427,-1,-1
"{'cat': 'II', 'resp': 'button'}",35,196,Right,78.48383758352198,59.75654268379894,3.9241918791760986,0.9386535774967383,Right,Correct,0.0,0.0,-45,45,852,-1,-1
"{'cat': 'II', 'resp': 'button'}",35,197,Left,20.00152855623818,46.68154203717543,1.0000764278119092,0.7332719476111672,Left,Correct,0.0,0.0,-45,45,605,-1,-1
"{'cat': 'II', 'resp': 'button'}",35,198,Right,57.76580332370188,50.07761011310068,2.888290166185094,0.7866172602032552,Right,Correct,0.0,0.0,-45,45,722,-1,-1
"{'cat': 'II', 'resp': 'button'}",35,199,Right,64.71104725145508,33.21004090154945,3.235552362572754,0.5216621026086214,Right,Correct,0.0,0.0,-45,45,664,-1,-1
"{'cat': 'II', 'resp': 'button'}",35,200,Left,32.006192684414444,49.482476679970496,1.6003096342207221,0.7772689260961179,Left,Correct,0.0,0.0,-45,45,1634,-1,-1
"{'cat': 'II', 'resp': 'button'}",35,201,Left,39.88580408563649,65.98731829731096,1.9942902042818245,1.0365263719646174,Right,Incorrect,0.0,0.0,-45,45,1254,-1,-1
"{'cat': 'II', 'resp': 'button'}",35,202,Right,55.78738344238867,24.830086631970417,2.7893691721194336,0.3900300887549819,Left,Incorrect,0.0,0.0,-45,45,1348,-1,-1
"{'cat': 'II', 'resp': 'button'}",35,203,Left,19.64007645632424,38.123466539049446,0.982003822816212,0.5988420120422702,Left,Correct,0.0,0.0,-45,45,578,-1,-1
"{'cat': 'II', 'resp': 'button'}",35,204,Right,52.92580665544825,41.74463428549937,2.6462903327724128,0.6557231819905871,Left,Incorrect,0.0,0.0,-45,45,1192,-1,-1
"{'cat': 'II', 'resp': 'button'}",35,205,Left,26.164893551840038,44.21068437627883,1.3082446775920018,0.694459806233473,Left,Correct,0.0,0.0,-45,45,765,-1,-1
"{'cat': 'II', 'resp': 'button'}",35,206,Right,76.30457369155363,63.32893563702606,3.8152286845776815,0.9947685947847096,Right,Correct,0.0,0.0,-45,45,653,-1,-1
"{'cat': 'II', 'resp': 'button'}",35,207,Right,43.93484882265165,34.02378217235046,2.1967424411325824,0.5344443205999778,Right,Correct,0.0,0.0,-45,45,353,-1,-1
"{'cat': 'II', 'resp': 'button'}",35,208,Left,60.315987024257126,82.96542987052132,3.0157993512128565,1.3032179249157447,Right,Incorrect,0.0,0.0,-45,45,501,-1,-1
"{'cat': 'II', 'resp': 'button'}",35,209,Left,32.80025857254918,47.55218197794346,1.6400129286274592,0.7469479278203608,Left,Correct,0.0,0.0,-45,45,622,-1,-1
"{'cat': 'II', 'resp': 'button'}",35,210,Left,51.91513579490679,68.85758505443869,2.5957567897453395,1.0816124167547945,Left,Correct,0.0,0.0,-45,45,941,-1,-1
"{'cat': 'II', 'resp': 'button'}",35,211,Left,38.99246792835747,63.381363904326975,1.9496233964178737,0.9955921360816745,Left,Correct,0.0,0.0,-45,45,653,-1,-1
"{'cat': 'II', 'resp': 'button'}",35,212,Left,15.648448185773166,44.37847211418549,0.7824224092886582,0.6970954098573232,Left,Correct,0.0,0.0,-45,45,624,-1,-1
"{'cat': 'II', 'resp': 'button'}",35,213,Right,68.05800982872596,56.38303316459212,3.402900491436298,0.8856626138849614,Right,Correct,0.0,0.0,-45,45,470,-1,-1
"{'cat': 'II', 'resp': 'button'}",35,214,Right,55.25775565288093,36.4558069475545,2.7628877826440466,0.5726464764356247,Right,Correct,0.0,0.0,-45,45,538,-1,-1
"{'cat': 'II', 'resp': 'button'}",35,215,Left,50.19226945954844,68.33961950365077,2.509613472977422,1.073476232908955,Right,Incorrect,0.0,0.0,-45,45,1239,-1,-1
"{'cat': 'II', 'resp': 'button'}",35,216,Right,61.54070023288671,54.26934424999117,3.0770350116443352,0.8524608660545387,Right,Correct,0.0,0.0,-45,45,929,-1,-1
"{'cat': 'II', 'resp': 'button'}",35,217,Left,33.08341452875933,51.27690111300861,1.6541707264379664,0.8054556791773908,Left,Correct,0.0,0.0,-45,45,722,-1,-1
"{'cat': 'II', 'resp': 'button'}",35,218,Left,33.849745084264796,45.36123776735142,1.6924872542132396,0.7125326566382555,Left,Correct,0.0,0.0,-45,45,685,-1,-1
"{'cat': 'II', 'resp': 'button'}",35,219,Right,55.44752730191527,41.11487515425798,2.772376365095764,0.6458309486893918,Right,Correct,0.0,0.0,-45,45,677,-1,-1
"{'cat': 'II', 'resp': 'button'}",35,220,Left,55.069823272864724,83.65075881625205,2.753491163643236,1.3139830468217455,Left,Correct,0.0,0.0,-45,45,2095,-1,-1
"{'cat': 'II', 'resp': 'button'}",35,221,Right,56.167638251622456,24.624193387533023,2.8083819125811225,0.3867959252342405,Right,Correct,0.0,0.0,-45,45,722,-1,-1
"{'cat': 'II', 'resp': 'button'}",35,222,Right,53.47681058414191,33.1767020033499,2.6738405292070957,0.5211384164203091,Left,Incorrect,0.0,0.0,-45,45,854,-1,-1
"{'cat': 'II', 'resp': 'button'}",35,223,Left,38.380575649146095,67.94293134833356,1.9190287824573047,1.0672450699364018,Left,Correct,0.0,0.0,-45,45,723,-1,-1
"{'cat': 'II', 'resp': 'button'}",35,224,Right,56.564900132856195,28.823738097800078,2.82824500664281,0.4527622192852248,Right,Correct,0.0,0.0,-45,45,971,-1,-1
"{'cat': 'II', 'resp': 'button'}",35,225,Right,36.330067507705564,12.437029639568689,1.8165033753852782,0.19536040474073751,Left,Incorrect,0.0,0.0,-45,45,622,-1,-1
"{'cat': 'II', 'resp': 'button'}",35,226,Right,64.71823018305801,52.08859841917957,3.235911509152901,0.8182057906474173,Right,Correct,0.0,0.0,-45,45,1118,-1,-1
"{'cat': 'II', 'resp': 'button'}",35,227,Right,39.24245688296236,18.97402500908454,1.962122844148118,0.298043287887845,Left,Incorrect,0.0,0.0,-45,45,858,-1,-1
"{'cat': 'II', 'resp': 'button'}",35,228,Left,19.795645766496445,33.09038147428686,0.9897822883248223,0.5197824967205169,Left,Correct,0.0,0.0,-45,45,685,-1,-1
"{'cat': 'II', 'resp': 'button'}",35,229,Left,41.545590763958344,60.32395290257886,2.077279538197917,0.9475664363711922,100,Incorrect,0.0,0.0,-45,45,688,-1,-1
"{'cat': 'II', 'resp': 'button'}",35,230,Left,49.55768045538855,60.67830502024748,2.4778840227694277,0.9531325864194508,Right,Incorrect,0.0,0.0,-45,45,1064,-1,-1
"{'cat': 'II', 'resp': 'button'}",35,231,Right,53.51843433151161,38.399705203502826,2.6759217165755804,0.6031811588366911,Right,Correct,0.0,0.0,-45,45,791,-1,-1
"{'cat': 'II', 'resp': 'button'}",35,232,Left,46.135445064813986,77.22137723369906,2.306772253240699,1.2129905570873751,Right,Incorrect,0.0,0.0,-45,45,549,-1,-1
"{'cat': 'II', 'resp': 'button'}",35,233,Right,80.92219775580872,53.43595554470707,4.046109887790436,0.8393700268840124,Right,Correct,0.0,0.0,-45,45,594,-1,-1
"{'cat': 'II', 'resp': 'button'}",35,234,Left,34.58665185233856,43.322008282776935,1.729332592616928,0.6805005147996409,Left,Correct,0.0,0.0,-45,45,732,-1,-1
"{'cat': 'II', 'resp': 'button'}",35,235,Right,32.07120163730629,19.4468227139033,1.6035600818653142,0.30546997686830857,Left,Incorrect,0.0,0.0,-45,45,744,-1,-1
"{'cat': 'II', 'resp': 'button'}",35,236,Left,31.647497388458284,51.56364558251794,1.582374869422914,0.8099598507717308,Left,Correct,0.0,0.0,-45,45,1325,-1,-1
"{'cat': 'II', 'resp': 'button'}",35,237,Left,38.51098737662533,65.16039975824503,1.9255493688312666,1.0235371659273838,Left,Correct,0.0,0.0,-45,45,759,-1,-1
"{'cat': 'II', 'resp': 'button'}",35,238,Left,39.42931748627729,56.68472845931743,1.9714658743138644,0.8904016324926194,Left,Correct,0.0,0.0,-45,45,2850,-1,-1
"{'cat': 'II', 'resp': 'button'}",35,239,Right,64.9555251015797,33.472298607778484,3.247776255078985,0.5257816370248037,Right,Correct,0.0,0.0,-45,45,502,-1,-1
"{'cat': 'II', 'resp': 'button'}",35,240,Left,41.639317501130854,51.21468740657463,2.0819658750565426,0.8044784285619627,Left,Correct,0.0,0.0,-45,45,998,-1,-1
"{'cat': 'II', 'resp': 'button'}",35,241,Left,52.24442981192651,61.172046330561066,2.6122214905963257,0.9608882567857255,Right,Incorrect,0.0,0.0,-45,45,1018,-1,-1
"{'cat': 'II', 'resp': 'button'}",35,242,Right,49.16304528608995,26.5007148849944,2.4581522643044975,0.41627225598788037,Left,Incorrect,0.0,0.0,-45,45,825,-1,-1
"{'cat': 'II', 'resp': 'button'}",35,243,Right,65.82135186711804,35.620356284003336,3.291067593355902,0.5595232481003796,Right,Correct,0.0,0.0,-45,45,444,-1,-1
"{'cat': 'II', 'resp': 'button'}",35,244,Left,34.89893986659038,65.98453741474749,1.7449469933295192,1.0364826899634578,Left,Correct,0.0,0.0,-45,45,903,-1,-1
"{'cat': 'II', 'resp': 'button'}",35,245,Right,59.42643388630053,34.447229909433986,2.9713216943150265,0.5410958220999821,Right,Correct,0.0,0.0,-45,45,575,-1,-1
"{'cat': 'II', 'resp': 'button'}",35,246,Right,79.18113697786968,47.88525628623338,3.9590568488934843,0.7521798468204761,Right,Correct,0.0,0.0,-45,45,709,-1,-1
"{'cat': 'II', 'resp': 'button'}",35,247,Right,53.59931172502003,42.25521041636951,2.6799655862510012,0.6637432930997866,Right,Correct,0.0,0.0,-45,45,1316,-1,-1
"{'cat': 'II', 'resp': 'button'}",35,248,Left,40.82185495111789,54.13543950951295,2.041092747555895,0.8503574953097026,Left,Correct,0.0,0.0,-45,45,840,-1,-1
"{'cat': 'II', 'resp': 'button'}",35,249,Right,63.58655236063312,30.392204834520925,3.179327618031656,0.47739963717263567,Right,Correct,0.0,0.0,-45,45,584,-1,-1
"{'cat': 'II', 'resp': 'button'}",35,250,Right,75.89745850181015,44.15659264583692,3.7948729250905076,0.6936101353185917,Right,Correct,0.0,0.0,-45,45,776,-1,-1
"{'cat': 'II', 'resp': 'button'}",35,251,Right,73.55106508054095,46.07956610070133,3.677553254027048,0.723816131712843,Right,Correct,0.0,0.0,-45,45,720,-1,-1
"{'cat': 'II', 'resp': 'button'}",35,252,Right,53.22324227927283,28.209218824718022,2.6611621139636417,0.44310937311620524,Right,Correct,0.0,0.0,-45,45,1524,-1,-1
"{'cat': 'II', 'resp': 'button'}",35,253,Right,53.29588144296502,38.72682050472937,2.6647940721482506,0.6083194739727417,Left,Incorrect,0.0,0.0,-45,45,848,-1,-1
"{'cat': 'II', 'resp': 'button'}",35,254,Right,33.035623231381635,21.266581303398947,1.6517811615690818,0.3340546779486409,Left,Incorrect,0.0,0.0,-45,45,681,-1,-1
"{'cat': 'II', 'resp': 'button'}",35,255,Left,42.90966647765317,73.73490026532541,2.1454833238826585,1.158225104933612,Right,Incorrect,0.0,0.0,-45,45,678,-1,-1
"{'cat': 'II', 'resp': 'button'}",35,256,Right,54.43588143575133,23.07917294748775,2.721794071787566,0.362526800913779,Right,Correct,0.0,0.0,-45,45,532,-1,-1
"{'cat': 'II', 'resp': 'button'}",35,257,Right,44.98377258561384,16.16378372227325,2.249188629280692,0.25390012098053966,Right,Correct,0.0,0.0,-45,45,403,-1,-1
"{'cat': 'II', 'resp': 'button'}",35,258,Right,56.017188793683324,31.475158789244873,2.8008594396841664,0.49441063811431957,Right,Correct,0.0,0.0,-45,45,537,-1,-1
"{'cat': 'II', 'resp': 'button'}",35,259,Right,47.267757503017314,21.670076042898383,2.363387875150866,0.34039275849550865,107,Incorrect,0.0,0.0,-45,45,1232,-1,-1
"{'cat': 'II', 'resp': 'button'}",35,260,Left,56.796301293275896,76.47103785860175,2.8398150646637945,1.201204253744851,Right,Incorrect,0.0,0.0,-45,45,543,-1,-1
"{'cat': 'II', 'resp': 'button'}",35,261,Right,78.1812173245493,63.44239631316082,3.9090608662274646,0.9965508309177911,Right,Correct,0.0,0.0,-45,45,555,-1,-1
"{'cat': 'II', 'resp': 'button'}",35,262,Right,60.87692578291469,52.18276715532784,3.0438462891457347,0.8196849896958235,Right,Correct,0.0,0.0,-45,45,1371,-1,-1
"{'cat': 'II', 'resp': 'button'}",35,263,Right,64.44842963195246,42.81609278103255,3.2224214815976233,0.6725536126815542,Right,Correct,0.0,0.0,-45,45,621,-1,-1
"{'cat': 'II', 'resp': 'button'}",35,264,Left,50.99374311086855,67.66695803516356,2.5496871555434275,1.0629100912701932,Right,Incorrect,0.0,0.0,-45,45,1364,-1,-1
"{'cat': 'II', 'resp': 'button'}",35,265,Left,41.42685790850133,54.35045093942478,2.071342895425067,0.8537348869529466,Left,Correct,0.0,0.0,-45,45,745,-1,-1
"{'cat': 'II', 'resp': 'button'}",35,266,Left,56.38246417040425,82.48300389666586,2.8191232085202125,1.2956399954389188,Left,Correct,0.0,0.0,-45,45,931,-1,-1
"{'cat': 'II', 'resp': 'button'}",35,267,Right,84.79158222455509,68.4272619181405,4.239579111227754,1.074852916736474,Right,Correct,0.0,0.0,-45,45,626,-1,-1
"{'cat': 'II', 'resp': 'button'}",35,268,Left,67.76906058917564,82.4845802004842,3.388453029458782,1.2956647559613965,Right,Incorrect,0.0,0.0,-45,45,882,-1,-1
"{'cat': 'II', 'resp': 'button'}",35,269,Right,55.13220176117097,33.5136695541605,2.7566100880585487,0.5264314903309327,Right,Correct,0.0,0.0,-45,45,671,-1,-1
"{'cat': 'II', 'resp': 'button'}",35,270,Right,65.1192319375328,51.53186121203954,3.2559615968766398,0.809460583047761,Left,Incorrect,0.0,0.0,-45,45,907,-1,-1
"{'cat': 'II', 'resp': 'button'}",35,271,Left,38.90112195047826,54.28872456530422,1.945056097523913,0.8527652913355974,Right,Incorrect,0.0,0.0,-45,45,2359,-1,-1
"{'cat': 'II', 'resp': 'button'}",35,272,Right,59.64833955236201,46.60349221503507,2.9824169776181004,0.7320459438719166,Right,Correct,0.0,0.0,-45,45,809,-1,-1
"{'cat': 'II', 'resp': 'button'}",35,273,Right,48.06301746424654,20.92602785146928,2.403150873212327,0.32870527683495643,Left,Incorrect,0.0,0.0,-45,45,995,-1,-1
"{'cat': 'II', 'resp': 'button'}",35,274,Left,57.89540247451872,83.70473964850952,2.894770123725936,1.3148309757520191,Right,Incorrect,0.0,0.0,-45,45,1319,-1,-1
"{'cat': 'II', 'resp': 'button'}",35,275,Right,74.33602791424127,41.93998669545862,3.716801395712064,0.6587917704705323,Right,Correct,0.0,0.0,-45,45,726,-1,-1
"{'cat': 'II', 'resp': 'button'}",35,276,Left,31.499806524337316,53.711524978155275,1.5749903262168659,0.8436986614223865,Left,Correct,0.0,0.0,-45,45,1017,-1,-1
"{'cat': 'II', 'resp': 'button'}",35,277,Left,51.26203442879818,64.17701833964827,2.5631017214399088,1.0080902467256823,Right,Incorrect,0.0,0.0,-45,45,2236,-1,-1
"{'cat': 'II', 'resp': 'button'}",35,278,Left,39.76942621247781,64.78686406945928,1.9884713106238905,1.0176696810486692,100,Incorrect,0.0,0.0,-45,45,1516,-1,-1
"{'cat': 'II', 'resp': 'button'}",35,279,Left,25.59865479469618,50.75856857038265,1.279932739734809,0.7973137306372395,Left,Correct,0.0,0.0,-45,45,783,-1,-1
"{'cat': 'II', 'resp': 'button'}",35,280,Right,74.66454421406269,52.42641695464806,3.7332272107031343,0.8235122317937887,Right,Correct,0.0,0.0,-45,45,720,-1,-1
"{'cat': 'II', 'resp': 'button'}",35,281,Left,21.55349487559047,50.260612450837016,1.0776747437795235,0.7894918542023662,Left,Correct,0.0,0.0,-45,45,642,-1,-1
"{'cat': 'II', 'resp': 'button'}",35,282,Right,84.51751365632308,67.0629249453254,4.225875682816154,1.0534219616823899,Right,Correct,0.0,0.0,-45,45,696,-1,-1
"{'cat': 'II', 'resp': 'button'}",35,283,Right,52.65343220453454,44.053118455395094,2.6326716102267267,0.6919847665359509,Left,Incorrect,0.0,0.0,-45,45,1230,-1,-1
"{'cat': 'II', 'resp': 'button'}",35,284,Right,68.36526946460589,58.59536925394679,3.4182634732302946,0.9204139079129025,Right,Correct,0.0,0.0,-45,45,518,-1,-1
"{'cat': 'II', 'resp': 'button'}",35,285,Left,18.776801888133658,44.66799421885055,0.9388400944066829,0.7016432124426611,Left,Correct,0.0,0.0,-45,45,600,-1,-1
"{'cat': 'II', 'resp': 'button'}",35,286,Left,10.205171370469206,33.904303210154765,0.5102585685234602,0.5325675494505152,Left,Correct,0.0,0.0,-45,45,692,-1,-1
"{'cat': 'II', 'resp': 'button'}",35,287,Right,42.73356141517915,18.29898337068708,2.1366780707589577,0.2874397586275616,Right,Correct,0.0,0.0,-45,45,1856,-1,-1
"{'cat': 'II', 'resp': 'button'}",35,288,Left,28.37586379121586,51.454686207959725,1.4187931895607928,0.8082483209184715,Right,Incorrect,0.0,0.0,-45,45,997,-1,-1
"{'cat': 'II', 'resp': 'button'}",35,289,Left,39.61360355427206,53.52660153254032,1.980680177713603,0.8407938907312841,Left,Correct,0.0,0.0,-45,45,1291,-1,-1
"{'cat': 'II', 'resp': 'button'}",35,290,Right,76.42898815580145,47.38280054203009,3.8214494077900723,0.7442872904467611,Right,Correct,0.0,0.0,-45,45,562,-1,-1
"{'cat': 'II', 'resp': 'button'}",35,291,Left,21.598820922101105,35.72546664550521,1.0799410461050554,0.5611743177979318,Left,Correct,0.0,0.0,-45,45,509,-1,-1
"{'cat': 'II', 'resp': 'button'}",35,292,Right,84.73485777066006,66.50571285278994,4.236742888533002,1.0446692946003857,Right,Correct,0.0,0.0,-45,45,511,-1,-1
"{'cat': 'II', 'resp': 'button'}",35,293,Right,50.1530513712073,38.4047779802318,2.5076525685603652,0.6032608418272164,107,Incorrect,0.0,0.0,-45,45,613,-1,-1
"{'cat': 'II', 'resp': 'button'}",35,294,Right,77.1835952777134,65.61673023540529,3.8591797638856695,1.0307051883006626,Right,Correct,0.0,0.0,-45,45,541,-1,-1
"{'cat': 'II', 'resp': 'button'}",35,295,Right,54.76670897280747,39.873680642296264,2.738335448640374,0.6263343108871174,Right,Correct,0.0,0.0,-45,45,830,-1,-1
"{'cat': 'II', 'resp': 'button'}",35,296,Left,49.92579145125578,62.971843204179805,2.496289572562789,0.989159399966298,100,Incorrect,0.0,0.0,-45,45,885,-1,-1
"{'cat': 'II', 'resp': 'button'}",35,297,Right,81.48766294729685,66.73823846648673,4.074383147364842,1.0483217983991924,Right,Correct,0.0,0.0,-45,45,664,-1,-1
"{'cat': 'II', 'resp': 'button'}",35,298,Left,31.13822881261752,62.97086674637572,1.556911440630876,0.9891440618029789,Left,Correct,0.0,0.0,-45,45,787,-1,-1
"{'cat': 'II', 'resp': 'button'}",35,299,Right,47.558451599951816,17.655597088612094,2.3779225799975907,0.2773334705416255,Right,Correct,0.0,0.0,-45,45,650,-1,-1
"{'cat': 'II', 'resp': 'button'}",35,300,Left,31.584405312004076,56.48401839676704,1.579220265600204,0.8872488862025701,Left,Correct,0.0,0.0,-45,45,760,-1,-1
"{'cat': 'II', 'resp': 'button'}",35,301,Left,12.019394229061788,37.70056761512068,0.6009697114530894,0.592199131279142,Left,Correct,0.0,0.0,-45,45,610,-1,-1
"{'cat': 'II', 'resp': 'button'}",35,302,Right,63.303405755627395,42.57195318801607,3.16517028778137,0.6687186769221992,Right,Correct,0.0,0.0,-45,45,705,-1,-1
"{'cat': 'II', 'resp': 'button'}",35,303,Right,67.97158135963079,53.82246195825836,3.3985790679815397,0.845441255430903,Right,Correct,0.0,0.0,-45,45,818,-1,-1
"{'cat': 'II', 'resp': 'button'}",35,304,Right,64.91746360016369,50.86123872708231,3.245873180008184,0.7989264696873923,Right,Correct,0.0,0.0,-45,45,2234,-1,-1
"{'cat': 'II', 'resp': 'button'}",35,305,Left,23.13752227992073,44.30690833477316,1.1568761139960366,0.6959712886389988,Left,Correct,0.0,0.0,-45,45,773,-1,-1
"{'cat': 'II', 'resp': 'button'}",35,306,Right,58.387558087240045,46.94960823869622,2.919377904362002,0.7374827216580343,Right,Correct,0.0,0.0,-45,45,1619,-1,-1
"{'cat': 'II', 'resp': 'button'}",35,307,Left,22.891921663187386,50.47528980964128,1.1445960831593693,0.7928639982689242,Left,Correct,0.0,0.0,-45,45,565,-1,-1
"{'cat': 'II', 'resp': 'button'}",35,308,Left,13.826809575133886,36.12712202124823,0.6913404787566944,0.5674835056864775,Left,Correct,0.0,0.0,-45,45,715,-1,-1
"{'cat': 'II', 'resp': 'button'}",35,309,Right,70.77784091776539,54.28103447993014,3.5388920458882693,0.852644495757014,Right,Correct,0.0,0.0,-45,45,552,-1,-1
"{'cat': 'II', 'resp': 'button'}",35,310,Right,65.93087468161127,41.20920025571315,3.2965437340805637,0.6473126039182953,Right,Correct,0.0,0.0,-45,45,1125,-1,-1
"{'cat': 'II', 'resp': 'button'}",35,311,Right,52.00035873210189,23.116853446955435,2.600017936605094,0.36311868481533544,Left,Incorrect,0.0,0.0,-45,45,926,-1,-1
"{'cat': 'II', 'resp': 'button'}",35,312,Left,24.8187260662404,51.05704197523632,1.24093630331202,0.8020021399171406,Left,Correct,0.0,0.0,-45,45,653,-1,-1
"{'cat': 'II', 'resp': 'button'}",35,313,Left,33.27754448309989,42.14897044577705,1.6638772241549944,0.6620744795441326,100,Incorrect,0.0,0.0,-45,45,571,-1,-1
"{'cat': 'II', 'resp': 'button'}",35,314,Left,12.087368701306346,36.458256650151846,0.6043684350653173,0.5726849562740414,Left,Correct,0.0,0.0,-45,45,553,-1,-1
"{'cat': 'II', 'resp': 'button'}",35,315,Left,24.74301495519906,54.678994460296,1.237150747759953,0.8588956365107147,Left,Correct,0.0,0.0,-45,45,1544,-1,-1
"{'cat': 'II', 'resp': 'button'}",35,316,Left,15.233802264084684,37.011387232464486,0.7616901132042342,0.5813735111433874,Left,Correct,0.0,0.0,-45,45,601,-1,-1
"{'cat': 'II', 'resp': 'button'}",35,317,Left,39.02405497102555,66.85899705105727,1.9512027485512775,1.0502186698099159,Left,Correct,0.0,0.0,-45,45,957,-1,-1
"{'cat': 'II', 'resp': 'button'}",35,318,Left,46.76516029316035,68.65523266347837,2.3382580146580176,1.0784338728304084,100,Incorrect,0.0,0.0,-45,45,945,-1,-1
"{'cat': 'II', 'resp': 'button'}",35,319,Right,88.59413395735865,64.29478107651487,4.429706697867932,1.0099400594707157,Right,Correct,0.0,0.0,-45,45,658,-1,-1
"{'cat': 'II', 'resp': 'button'}",35,320,Left,33.90728152453872,47.92058570233382,1.695364076226936,0.7527347999908601,Left,Correct,0.0,0.0,-45,45,596,-1,-1
"{'cat': 'II', 'resp': 'button'}",35,321,Right,54.06956461947622,25.702336197102028,2.703478230973811,0.40373135288455375,107,Incorrect,0.0,0.0,-45,45,517,-1,-1
"{'cat': 'II', 'resp': 'button'}",35,322,Right,88.26045369172292,69.37274949452913,4.413022684586146,1.0897046008566889,Right,Correct,0.0,0.0,-45,45,408,-1,-1
"{'cat': 'II', 'resp': 'button'}",35,323,Left,14.125533734565092,39.8305641966456,0.7062766867282546,0.6256570393425923,Left,Correct,0.0,0.0,-45,45,530,-1,-1
"{'cat': 'II', 'resp': 'button'}",35,324,Left,64.93910479512898,76.61428239767099,3.246955239756449,1.2034543337028851,100,Incorrect,0.0,0.0,-45,45,526,-1,-1
"{'cat': 'II', 'resp': 'button'}",35,325,Right,66.49668691167389,54.81436553606223,3.3248343455836946,0.8610220403963932,Right,Correct,0.0,0.0,-45,45,750,-1,-1
"{'cat': 'II', 'resp': 'button'}",35,326,Right,45.09625854576932,33.914466923172334,2.254812927288466,0.5327272006812612,Left,Incorrect,0.0,0.0,-45,45,579,-1,-1
"{'cat': 'II', 'resp': 'button'}",35,327,Left,55.601713895166554,74.72031771056967,2.7800856947583275,1.1737040059671051,Right,Incorrect,0.0,0.0,-45,45,776,-1,-1
"{'cat': 'II', 'resp': 'button'}",35,328,Left,52.931637207076506,71.95130311567546,2.6465818603538254,1.130208426422092,Left,Correct,0.0,0.0,-45,45,697,-1,-1
"{'cat': 'II', 'resp': 'button'}",35,329,Right,81.83142306711491,54.25908596774212,4.091571153355745,0.8522997293337783,Right,Correct,0.0,0.0,-45,45,749,-1,-1
"{'cat': 'II', 'resp': 'button'}",35,330,Left,41.41244425972524,52.05196262711157,2.070622212986262,0.8176303169713208,Left,Correct,0.0,0.0,-45,45,534,-1,-1
"{'cat': 'II', 'resp': 'button'}",35,331,Left,52.8370329397695,77.97817423880923,2.641851646988475,1.2248782966449396,Right,Incorrect,0.0,0.0,-45,45,529,-1,-1
"{'cat': 'II', 'resp': 'button'}",35,332,Right,85.99729485442364,65.37141878965198,4.299864742721183,1.026851845121562,100,Incorrect,0.0,0.0,-45,45,351,-1,-1
"{'cat': 'II', 'resp': 'button'}",35,333,Left,55.305269244675365,66.001676897992,2.765263462233768,1.0367519163366943,Left,Correct,0.0,0.0,-45,45,1532,-1,-1
"{'cat': 'II', 'resp': 'button'}",35,334,Right,69.1343050091572,56.16321889536803,3.4567152504578598,0.8822097794182184,Right,Correct,0.0,0.0,-45,45,944,-1,-1
"{'cat': 'II', 'resp': 'button'}",35,335,Right,61.72650443722019,31.55776904149434,3.0863252218610095,0.49570827692221014,107,Incorrect,0.0,0.0,-45,45,673,-1,-1
"{'cat': 'II', 'resp': 'button'}",35,336,Right,84.69802810725803,59.76597127152728,4.234901405362901,0.9388016814064437,Right,Correct,0.0,0.0,-45,45,542,-1,-1
"{'cat': 'II', 'resp': 'button'}",35,337,Left,46.81406660805266,63.61501903405766,2.3407033304026332,0.9992623822768518,Left,Correct,0.0,0.0,-45,45,694,-1,-1
"{'cat': 'II', 'resp': 'button'}",35,338,Right,56.474260433354296,48.43649889001445,2.823713021667715,0.7608387453923977,Right,Correct,0.0,0.0,-45,45,593,-1,-1
"{'cat': 'II', 'resp': 'button'}",35,339,Left,38.254590484969,68.52395983048453,1.91272952424845,1.0763718439916614,Left,Correct,0.0,0.0,-45,45,1676,-1,-1
"{'cat': 'II', 'resp': 'button'}",35,340,Left,45.22393441554104,58.00894048188596,2.261196720777052,0.9112023063021024,Left,Correct,0.0,0.0,-45,45,1271,-1,-1
"{'cat': 'II', 'resp': 'button'}",35,341,Right,61.45072261306028,34.771489055625274,3.072536130653014,0.5461892728576513,Right,Correct,0.0,0.0,-45,45,599,-1,-1
"{'cat': 'II', 'resp': 'button'}",35,342,Left,16.420646865727175,35.267538120707115,0.8210323432863588,0.5539811933510573,Left,Correct,0.0,0.0,-45,45,685,-1,-1
"{'cat': 'II', 'resp': 'button'}",35,343,Left,31.0623713291347,45.1152220150333,1.5531185664567349,0.7086682502375055,Right,Incorrect,0.0,0.0,-45,45,1377,-1,-1
"{'cat': 'II', 'resp': 'button'}",35,344,Right,87.3218641849026,60.72504506619062,4.36609320924513,0.9538667773442678,Right,Correct,0.0,0.0,-45,45,720,-1,-1
"{'cat': 'II', 'resp': 'button'}",35,345,Right,48.49487569039259,29.34913813084112,2.424743784519629,0.46101518370521266,Left,Incorrect,0.0,0.0,-45,45,530,-1,-1
"{'cat': 'II', 'resp': 'button'}",35,346,Right,31.726901925693408,16.712195601362847,1.5863450962846704,0.2625145546329859,Left,Incorrect,0.0,0.0,-45,45,659,-1,-1
"{'cat': 'II', 'resp': 'button'}",35,347,Right,71.39436155693495,60.23369772106772,3.5697180778467477,0.9461487112952731,Right,Correct,0.0,0.0,-45,45,787,-1,-1
"{'cat': 'II', 'resp': 'button'}",35,348,Left,44.76143541554844,74.40839055717127,2.238071770777422,1.1688042656992468,Right,Incorrect,0.0,0.0,-45,45,2011,-1,-1
"{'cat': 'II', 'resp': 'button'}",35,349,Right,62.98415356233305,34.15729383890862,3.1492076781166527,0.5365415169541161,107,Incorrect,0.0,0.0,-45,45,622,-1,-1
"{'cat': 'II', 'resp': 'button'}",35,350,Left,56.56458818638918,79.85759480116542,2.8282294093194587,1.2544001658034587,Right,Incorrect,0.0,0.0,-45,45,533,-1,-1
"{'cat': 'II', 'resp': 'button'}",35,351,Left,23.868200304088266,45.28622827172596,1.1934100152044131,0.7113544102362233,Left,Correct,0.0,0.0,-45,45,642,-1,-1
"{'cat': 'II', 'resp': 'button'}",35,352,Right,75.26282219207258,64.46130945071994,3.763141109603629,1.0125558810558002,Right,Correct,0.0,0.0,-45,45,732,-1,-1
"{'cat': 'II', 'resp': 'button'}",35,353,Right,53.304086196896385,28.1457608974556,2.6652043098448193,0.44211257832570683,Right,Correct,0.0,0.0,-45,45,3775,-1,-1
"{'cat': 'II', 'resp': 'button'}",35,354,Right,71.15288957612701,38.81976125930378,3.5576444788063504,0.6097793839316921,Right,Correct,0.0,0.0,-45,45,1039,-1,-1
"{'cat': 'II', 'resp': 'button'}",35,355,Right,66.55873395875298,57.26940610107883,3.3279366979376492,0.8995857274129986,Right,Correct,0.0,0.0,-45,45,817,-1,-1
"{'cat': 'II', 'resp': 'button'}",35,356,Left,29.97213414916577,58.672136116130666,1.4986067074582883,0.9216197589642824,Left,Correct,0.0,0.0,-45,45,557,-1,-1
"{'cat': 'II', 'resp': 'button'}",35,357,Right,44.07670349103064,34.74180181693513,2.203835174551532,0.5457229468027797,Right,Correct,0.0,0.0,-45,45,1918,-1,-1
"{'cat': 'II', 'resp': 'button'}",35,358,Left,42.6522577088632,71.94754226263812,2.13261288544316,1.1301493510807255,Right,Incorrect,0.0,0.0,-45,45,1032,-1,-1
"{'cat': 'II', 'resp': 'button'}",35,359,Left,20.532303053106727,50.01184353754185,1.0266151526553364,0.7855842012501182,Left,Correct,0.0,0.0,-45,45,591,-1,-1
"{'cat': 'II', 'resp': 'button'}",35,360,Left,53.31024853000814,81.14544140379893,2.665512426500407,1.2746296129323786,Right,Incorrect,0.0,0.0,-45,45,3211,-1,-1
"{'cat': 'II', 'resp': 'button'}",35,361,Left,21.41833146073845,43.930989410084244,1.0709165730369223,0.6900663679782583,Left,Correct,0.0,0.0,-45,45,659,-1,-1
"{'cat': 'II', 'resp': 'button'}",35,362,Left,29.70263864569397,51.27204544327236,1.4851319322846985,0.8053794064955323,Left,Correct,0.0,0.0,-45,45,1696,-1,-1
"{'cat': 'II', 'resp': 'button'}",35,363,Left,39.67142865016278,57.74294008968399,1.9835714325081393,0.9070239819121337,Right,Incorrect,0.0,0.0,-45,45,2560,-1,-1
"{'cat': 'II', 'resp': 'button'}",35,364,Right,43.53816826774013,29.97414277967636,2.1769084133870065,0.4708327337714139,Right,Correct,0.0,0.0,-45,45,1792,-1,-1
"{'cat': 'II', 'resp': 'button'}",35,365,Right,77.651265293942,57.597438118112564,3.8825632646971,0.9047384422872757,Right,Correct,0.0,0.0,-45,45,653,-1,-1
"{'cat': 'II', 'resp': 'button'}",35,366,Left,46.54455387540892,65.59383982376134,2.327227693770446,1.0303456265553712,Right,Incorrect,0.0,0.0,-45,45,969,-1,-1
"{'cat': 'II', 'resp': 'button'}",35,367,Right,52.28183038542279,45.25566156078915,2.6140915192711396,0.7108742694636059,Right,Correct,0.0,0.0,-45,45,420,-1,-1
"{'cat': 'II', 'resp': 'button'}",35,368,Right,67.63217536287235,56.37275395354632,3.381608768143617,0.8855011484154304,Right,Correct,0.0,0.0,-45,45,465,-1,-1
"{'cat': 'II', 'resp': 'button'}",35,369,Right,74.43500818046472,63.135848497346025,3.721750409023236,0.9917355890871024,Right,Correct,0.0,0.0,-45,45,369,-1,-1
"{'cat': 'II', 'resp': 'button'}",35,370,Right,86.47120368877445,60.78208263257569,4.323560184438723,0.9547627213419376,Right,Correct,0.0,0.0,-45,45,1169,-1,-1
"{'cat': 'II', 'resp': 'button'}",35,371,Left,28.684359555205326,53.53340411590456,1.4342179777602664,0.8409007454608968,Left,Correct,0.0,0.0,-45,45,707,-1,-1
"{'cat': 'II', 'resp': 'button'}",35,372,Left,60.71752514628595,85.905985412956,3.0358762573142974,1.3494080633636725,Left,Correct,0.0,0.0,-45,45,1251,-1,-1
"{'cat': 'II', 'resp': 'button'}",35,373,Left,55.17182316906552,75.45962952430142,2.7585911584532763,1.1853170887807638,Right,Incorrect,0.0,0.0,-45,45,1135,-1,-1
"{'cat': 'II', 'resp': 'button'}",35,374,Right,34.21670709820645,15.44379921811543,1.7108353549103226,0.2425906308357361,Left,Incorrect,0.0,0.0,-45,45,543,-1,-1
"{'cat': 'II', 'resp': 'button'}",35,375,Right,63.542450922256684,54.74444343104616,3.1771225461128343,0.8599237065391832,Right,Correct,0.0,0.0,-45,45,1981,-1,-1
"{'cat': 'II', 'resp': 'button'}",35,376,Right,75.74045315586783,45.45118211277844,3.7870226577933916,0.7139454991123827,Right,Correct,0.0,0.0,-45,45,536,-1,-1
"{'cat': 'II', 'resp': 'button'}",35,377,Left,25.118474880667783,42.18566583824908,1.255923744033389,0.662650889421186,Left,Correct,0.0,0.0,-45,45,597,-1,-1
"{'cat': 'II', 'resp': 'button'}",35,378,Right,69.22300192101429,47.756761815267396,3.4611500960507144,0.7501614603904081,Right,Correct,0.0,0.0,-45,45,523,-1,-1
"{'cat': 'II', 'resp': 'button'}",35,379,Left,37.289361358255924,44.758046175910266,1.864468067912796,0.7030577452763621,Right,Incorrect,0.0,0.0,-45,45,2131,-1,-1
"{'cat': 'II', 'resp': 'button'}",35,380,Right,60.16749450393794,32.175667739399366,3.008374725196897,0.5054142069722158,Right,Correct,0.0,0.0,-45,45,681,-1,-1
"{'cat': 'II', 'resp': 'button'}",35,381,Right,49.3369641163914,40.88214126669462,2.46684820581957,0.6421751733323396,Right,Correct,0.0,0.0,-45,45,819,-1,-1
"{'cat': 'II', 'resp': 'button'}",35,382,Right,59.39927753049912,36.363507280665054,2.969963876524956,0.5711966366584815,Right,Correct,0.0,0.0,-45,45,769,-1,-1
"{'cat': 'II', 'resp': 'button'}",35,383,Left,38.422381899035926,58.576350577360124,1.9211190949517964,0.9201151632396739,Right,Incorrect,0.0,0.0,-45,45,931,-1,-1
"{'cat': 'II', 'resp': 'button'}",35,384,Right,42.60232718434757,24.048823683131626,2.1301163592173786,0.3777580390520127,Right,Correct,0.0,0.0,-45,45,982,-1,-1
"{'cat': 'II', 'resp': 'button'}",35,385,Right,32.66510324814286,17.277729619019773,1.633255162407143,0.27139794220911645,Right,Correct,0.0,0.0,-45,45,1574,-1,-1
"{'cat': 'II', 'resp': 'button'}",35,386,Left,27.13637773358975,42.37013125989065,1.3568188866794875,0.6655484654885385,Left,Correct,0.0,0.0,-45,45,728,-1,-1
"{'cat': 'II', 'resp': 'button'}",35,387,Left,57.39728947868795,85.1043427167481,2.8698644739343977,1.3368158893376194,Right,Incorrect,0.0,0.0,-45,45,595,-1,-1
"{'cat': 'II', 'resp': 'button'}",35,388,Right,79.91599230173996,63.489939763352936,3.995799615086998,0.9972976416870403,Right,Correct,0.0,0.0,-45,45,580,-1,-1
"{'cat': 'II', 'resp': 'button'}",35,389,Right,82.50846771743687,63.903276921482785,4.125423385871843,1.0037903265842225,Right,Correct,0.0,0.0,-45,45,722,-1,-1
"{'cat': 'II', 'resp': 'button'}",35,390,Left,23.744085643673436,36.27958537069071,1.1872042821836717,0.5698783943792284,Left,Correct,0.0,0.0,-45,45,622,-1,-1
"{'cat': 'II', 'resp': 'button'}",35,391,Right,50.42413195741741,43.64993970599273,2.5212065978708704,0.6856516495499209,Left,Incorrect,0.0,0.0,-45,45,1197,-1,-1
"{'cat': 'II', 'resp': 'button'}",35,392,Right,56.95740872506342,29.673602748692403,2.847870436253171,0.4661118620041697,Right,Correct,0.0,0.0,-45,45,332,-1,-1
"{'cat': 'II', 'resp': 'button'}",35,393,Right,70.89434033402532,41.86013644403477,3.5447170167012656,0.6575374856542301,Right,Correct,0.0,0.0,-45,45,682,-1,-1
"{'cat': 'II', 'resp': 'button'}",35,394,Right,43.851467764590694,20.516171618054795,2.1925733882295346,0.32226727017534185,Right,Correct,0.0,0.0,-45,45,663,-1,-1
"{'cat': 'II', 'resp': 'button'}",35,395,Left,20.424600038455466,35.82164161274738,1.0212300019227734,0.5626850306506679,Left,Correct,0.0,0.0,-45,45,701,-1,-1
"{'cat': 'II', 'resp': 'button'}",35,396,Right,68.91194587244334,57.39424369599952,3.445597293622167,0.901546671768472,Right,Correct,0.0,0.0,-45,45,598,-1,-1
"{'cat': 'II', 'resp': 'button'}",35,397,Left,47.923505824834116,76.65053342442923,2.396175291241706,1.2040237634996287,Right,Incorrect,0.0,0.0,-45,45,1678,-1,-1
"{'cat': 'II', 'resp': 'button'}",35,398,Left,11.543730053002712,32.21305757239811,0.5771865026501356,0.5060015250955547,Left,Correct,0.0,0.0,-45,45,596,-1,-1
"{'cat': 'II', 'resp': 'button'}",35,399,Left,45.5946502556467,64.01807656714293,2.279732512782335,1.0055935952014254,Left,Correct,0.0,0.0,-45,45,263,-1,-1
