condition,subject,trial,cat,x,y,xt,yt,resp,fb,rotation,su,target_angle_left,target_angle_right,rt,mt,ep
"{'cat': 'RB', 'resp': 'reach'}",38,0,Left,46.11297805567284,33.5384121879496,2.305648902783642,0.5268201467136443,Right,Incorrect,0.0,0.0,-45,45,2012,2731,-0.85
"{'cat': 'RB', 'resp': 'reach'}",38,1,Right,61.697118840638296,25.27511544141976,3.0848559420319144,0.39702058494699133,Left,Incorrect,0.0,0.0,-45,45,2013,4343,-2.59
"{'cat': 'RB', 'resp': 'reach'}",38,2,Right,62.858675003439124,42.68910752493185,3.1429337501719563,0.6705589329431533,Right,Correct,0.0,0.0,-45,45,2006,7598,-0.93
"{'cat': 'RB', 'resp': 'reach'}",38,3,Right,68.07214874643279,39.88287896411299,3.4036074373216394,0.6264787977883413,Right,Correct,0.0,0.0,-45,45,2005,3529,-0.95
"{'cat': 'RB', 'resp': 'reach'}",38,4,Left,47.9844601496915,71.56820598305093,2.399223007484575,1.1241907507347695,Right,Incorrect,0.0,0.0,-45,45,2007,5014,-0.94
"{'cat': 'RB', 'resp': 'reach'}",38,5,Left,36.289189176132375,81.27076731058615,1.8144594588066187,1.276598227672715,Right,Incorrect,0.0,0.0,-45,45,2004,8003,-0.89
"{'cat': 'RB', 'resp': 'reach'}",38,6,Right,58.02667233362433,73.33047887810548,2.9013336166812165,1.1518724686383883,Right,Correct,0.0,0.0,-45,45,2005,4883,-0.96
"{'cat': 'RB', 'resp': 'reach'}",38,7,Left,40.32312553291829,87.80927372517372,2.0161562766459142,1.3793048462603053,Right,Incorrect,0.0,0.0,-45,45,2005,2771,-0.91
"{'cat': 'RB', 'resp': 'reach'}",38,8,Left,36.34871068169832,71.96361246146182,1.817435534084916,1.1304017811735567,Right,Incorrect,0.0,0.0,-45,45,2002,2065,-0.97
"{'cat': 'RB', 'resp': 'reach'}",38,9,Right,53.97965085081547,62.22843517683365,2.6989825425407736,0.9774819739796462,Right,Correct,0.0,0.0,-45,45,2002,6042,-0.93
"{'cat': 'RB', 'resp': 'reach'}",38,10,Left,32.808539986919946,42.82759658828746,1.6404269993459974,0.6727343140633559,Left,Correct,0.0,0.0,-45,45,2010,2516,-2.58
"{'cat': 'RB', 'resp': 'reach'}",38,11,Left,49.08903302163895,45.58392385402117,2.4544516510819476,0.7160306015079472,Right,Incorrect,0.0,0.0,-45,45,2002,8803,-0.93
"{'cat': 'RB', 'resp': 'reach'}",38,12,Right,62.65914737957332,14.83797677105828,3.132957368978666,0.2330743940904635,Right,Correct,0.0,0.0,-45,45,2012,5349,-0.96
"{'cat': 'RB', 'resp': 'reach'}",38,13,Right,55.563260453364094,77.71748429263585,2.7781630226682044,1.2207833885461246,Left,Incorrect,0.0,0.0,-45,45,2002,4701,-2.56
"{'cat': 'RB', 'resp': 'reach'}",38,14,Left,37.963648760024164,53.81670980793835,1.8981824380012082,0.8453509008649646,Right,Incorrect,0.0,0.0,-45,45,2003,6193,-0.92
"{'cat': 'RB', 'resp': 'reach'}",38,15,Right,52.895985086106585,27.949026873248137,2.6447992543053296,0.4390222874999003,Right,Correct,0.0,0.0,-45,45,2007,3802,-1.02
"{'cat': 'RB', 'resp': 'reach'}",38,16,Right,53.10555417203672,25.30670214534278,2.6552777086018358,0.3975167477319696,Left,Incorrect,0.0,0.0,-45,45,2004,1158,-2.63
"{'cat': 'RB', 'resp': 'reach'}",38,17,Left,44.479138480329894,60.49402768264453,2.2239569240164947,0.950237964769268,Left,Correct,0.0,0.0,-45,45,2012,3421,-2.63
"{'cat': 'RB', 'resp': 'reach'}",38,18,Right,65.61325588800372,66.96265461191024,3.280662794400186,1.0518469189682393,Right,Correct,0.0,0.0,-45,45,2002,2726,-0.88
"{'cat': 'RB', 'resp': 'reach'}",38,19,Right,61.47154635069931,53.39043027747265,3.0735773175349657,0.8386549176585306,Right,Correct,0.0,0.0,-45,45,2004,7291,-0.9
"{'cat': 'RB', 'resp': 'reach'}",38,20,Left,34.88677432426378,78.46953570051012,1.7443387162131894,1.232596584436623,Left,Correct,0.0,0.0,-45,45,2005,9838,-2.54
"{'cat': 'RB', 'resp': 'reach'}",38,21,Left,36.43505377306275,69.65801747022437,1.8217526886531374,1.0941855797404316,Left,Correct,0.0,0.0,-45,45,2001,7816,-2.49
"{'cat': 'RB', 'resp': 'reach'}",38,22,Left,38.75701810701847,33.120528077121264,1.9378509053509234,0.5202560384504932,Left,Correct,0.0,0.0,-45,45,2003,4997,-2.65
"{'cat': 'RB', 'resp': 'reach'}",38,23,Left,37.80567259518714,32.533277337049924,1.8902836297593568,0.5110315253963768,Left,Correct,0.0,0.0,-45,45,2003,5723,-2.67
"{'cat': 'RB', 'resp': 'reach'}",38,24,Left,49.05656865732056,58.388890344182386,2.452828432866028,0.917170544782717,Right,Incorrect,0.0,0.0,-45,45,2011,4666,-0.95
"{'cat': 'RB', 'resp': 'reach'}",38,25,Right,64.5379241540145,61.17581683056349,3.226896207700725,0.9609474836612655,Right,Correct,0.0,0.0,-45,45,2013,2108,-1.02
"{'cat': 'RB', 'resp': 'reach'}",38,26,Right,61.15842740374528,74.21152140816027,3.0579213701872643,1.16571185233799,Right,Correct,0.0,0.0,-45,45,2005,4708,-0.92
"{'cat': 'RB', 'resp': 'reach'}",38,27,Right,61.23332072496642,12.146570067918056,3.0616660362483206,0.19079787645842516,Right,Correct,0.0,0.0,-45,45,2007,11262,-0.95
"{'cat': 'RB', 'resp': 'reach'}",38,28,Right,52.81098010532438,56.01025400555827,2.640549005266219,0.8798070125478006,Left,Incorrect,0.0,0.0,-45,45,2007,3018,-2.52
"{'cat': 'RB', 'resp': 'reach'}",38,29,Right,52.264955888258484,67.756908663714,2.613247794412924,1.0643230324393924,Right,Correct,0.0,0.0,-45,45,2010,5541,-0.96
"{'cat': 'RB', 'resp': 'reach'}",38,30,Right,54.10117184594575,23.278785208456657,2.7050585922972874,0.3656623029769109,Right,Correct,0.0,0.0,-45,45,2006,2449,-0.96
"{'cat': 'RB', 'resp': 'reach'}",38,31,Left,46.46851922116456,65.00637499485167,2.3234259610582284,1.021117750601646,Left,Correct,0.0,0.0,-45,45,2004,11233,-2.73
"{'cat': 'RB', 'resp': 'reach'}",38,32,Right,55.58109824938361,14.179239231671772,2.77905491246918,0.22272696901856112,Left,Incorrect,0.0,0.0,-45,45,2003,3421,-2.5
"{'cat': 'RB', 'resp': 'reach'}",38,33,Left,46.019980657684805,78.19945199432809,2.3009990328842402,1.228354119500644,Right,Incorrect,0.0,0.0,-45,45,2004,3112,-0.92
"{'cat': 'RB', 'resp': 'reach'}",38,34,Left,41.17179121458239,60.159631322566135,2.0585895607291196,0.9449852790282209,Right,Incorrect,0.0,0.0,-45,45,2007,4542,-0.92
"{'cat': 'RB', 'resp': 'reach'}",38,35,Left,47.12882454656254,41.77828445932901,2.356441227328127,0.656251757685063,Left,Correct,0.0,0.0,-45,45,2013,9983,-2.58
"{'cat': 'RB', 'resp': 'reach'}",38,36,Left,43.48829875871222,72.77774609674645,2.174414937935611,1.1431901624118095,Left,Correct,0.0,0.0,-45,45,2004,4564,-2.64
"{'cat': 'RB', 'resp': 'reach'}",38,37,Left,39.11036246884911,59.46748015048692,1.9555181234424555,0.9341129938413328,Right,Incorrect,0.0,0.0,-45,45,2001,2222,-0.98
"{'cat': 'RB', 'resp': 'reach'}",38,38,Left,35.69956225227881,62.33980671462957,1.7849781126139406,0.9792313940044395,Right,Incorrect,0.0,0.0,-45,45,2006,2656,-0.88
"{'cat': 'RB', 'resp': 'reach'}",38,39,Left,46.17132289294098,20.326161029560755,2.308566144647049,0.31928259083075605,Right,Incorrect,0.0,0.0,-45,45,2012,5157,-0.92
"{'cat': 'RB', 'resp': 'reach'}",38,40,Right,63.01984564440371,25.918636257488828,3.1509922822201855,0.40712898628796473,Right,Correct,0.0,0.0,-45,45,2011,5067,-0.96
"{'cat': 'RB', 'resp': 'reach'}",38,41,Right,65.37165523375815,40.86552616854827,3.2685827616879073,0.6419141839809634,Right,Correct,0.0,0.0,-45,45,2014,12611,-1.01
"{'cat': 'RB', 'resp': 'reach'}",38,42,Left,39.56852244930532,88.39301689998732,1.978426122465266,1.388474262608193,Right,Incorrect,0.0,0.0,-45,45,2004,5386,-1.01
"{'cat': 'RB', 'resp': 'reach'}",38,43,Right,55.301562949497544,59.24158502335637,2.765078147474877,0.9305646414819574,Right,Correct,0.0,0.0,-45,45,2009,6789,-0.96
"{'cat': 'RB', 'resp': 'reach'}",38,44,Right,64.14919355794999,65.00705726616951,3.207459677897499,1.0211284676944457,Right,Correct,0.0,0.0,-45,45,2003,6040,-0.96
"{'cat': 'RB', 'resp': 'reach'}",38,45,Left,39.54778416237828,52.540976589514344,1.9773892081189137,0.8253117303302578,Left,Correct,0.0,0.0,-45,45,2006,7268,-2.59
"{'cat': 'RB', 'resp': 'reach'}",38,46,Left,37.751566051301864,34.55960726025067,1.8875783025650932,0.54286104139876,Right,Incorrect,0.0,0.0,-45,45,2002,3118,-0.94
"{'cat': 'RB', 'resp': 'reach'}",38,47,Left,41.657171030204914,80.90878461036739,2.082858551510246,1.2709122167140456,Right,Incorrect,0.0,0.0,-45,45,2009,4756,-0.96
"{'cat': 'RB', 'resp': 'reach'}",38,48,Left,39.240300505510255,87.68141267901515,1.9620150252755126,1.3772964096438447,Right,Incorrect,0.0,0.0,-45,45,2005,5637,-0.95
"{'cat': 'RB', 'resp': 'reach'}",38,49,Left,36.654896855157666,40.49992934550268,1.8327448427578832,0.6361714025136844,Right,Incorrect,0.0,0.0,-45,45,2004,12583,-0.9
"{'cat': 'RB', 'resp': 'reach'}",38,50,Left,33.12801070517085,63.19350676236431,1.6564005352585425,0.9926412829961031,Left,Correct,0.0,0.0,-45,45,2002,2721,-2.6
"{'cat': 'RB', 'resp': 'reach'}",38,51,Right,61.56545447510021,62.37142953865681,3.0782727237550103,0.9797281241626883,Left,Incorrect,0.0,0.0,-45,45,2007,2562,-2.6
"{'cat': 'RB', 'resp': 'reach'}",38,52,Left,31.755019367910496,30.66534090139639,1.5877509683955247,0.4816900484782675,Right,Incorrect,0.0,0.0,-45,45,2004,5027,-0.95
"{'cat': 'RB', 'resp': 'reach'}",38,53,Left,45.682271135509865,21.586319898199992,2.2841135567754933,0.33907712005112134,Right,Incorrect,0.0,0.0,-45,45,2007,1924,-0.91
"{'cat': 'RB', 'resp': 'reach'}",38,54,Right,62.232413034030195,27.876792783430552,3.11162065170151,0.4378876370703519,Right,Correct,0.0,0.0,-45,45,2002,7018,-0.86
"{'cat': 'RB', 'resp': 'reach'}",38,55,Left,35.41136756783782,74.80386466157823,1.770568378391891,1.1750163584046964,Right,Incorrect,0.0,0.0,-45,45,2006,3478,-0.91
"{'cat': 'RB', 'resp': 'reach'}",38,56,Left,40.34664416847625,20.901440387031712,2.0173322084238126,0.32831905784671916,Right,Incorrect,0.0,0.0,-45,45,2003,6412,-0.99
"{'cat': 'RB', 'resp': 'reach'}",38,57,Right,53.78793362762643,72.98136392007933,2.6893966813813215,1.146388583701422,Right,Correct,0.0,0.0,-45,45,2005,9959,-0.91
"{'cat': 'RB', 'resp': 'reach'}",38,58,Right,66.20877260046909,19.22945494457819,3.3104386300234547,0.3020555719321138,Left,Incorrect,0.0,0.0,-45,45,2009,11939,-2.67
"{'cat': 'RB', 'resp': 'reach'}",38,59,Left,39.43709757087343,74.55360920764534,1.9718548785436718,1.1710853549267146,Right,Incorrect,0.0,0.0,-45,45,2006,5295,-0.91
"{'cat': 'RB', 'resp': 'reach'}",38,60,Right,55.769472680584954,31.465644838217955,2.7884736340292475,0.4942611933210556,Right,Correct,0.0,0.0,-45,45,2003,2532,-0.94
"{'cat': 'RB', 'resp': 'reach'}",38,61,Left,37.402459784309016,51.77597612114893,1.870122989215451,0.81329513107321,Right,Incorrect,0.0,0.0,-45,45,2002,2781,-0.92
"{'cat': 'RB', 'resp': 'reach'}",38,62,Left,44.773165373486634,31.07602636101428,2.2386582686743317,0.488141080592626,Right,Incorrect,0.0,0.0,-45,45,2009,2354,-0.99
"{'cat': 'RB', 'resp': 'reach'}",38,63,Right,66.46564735115403,59.98522190173543,3.3232823675577015,0.942245662252228,Right,Correct,0.0,0.0,-45,45,2003,7343,-0.95
"{'cat': 'RB', 'resp': 'reach'}",38,64,Right,59.742512311402265,48.36010999563604,2.9871256155701134,0.7596388314454224,Right,Correct,0.0,0.0,-45,45,2002,3798,-0.89
"{'cat': 'RB', 'resp': 'reach'}",38,65,Left,45.090408764568416,61.45006014809404,2.254520438228421,0.965255287619516,Left,Correct,0.0,0.0,-45,45,2013,3898,-2.68
"{'cat': 'RB', 'resp': 'reach'}",38,66,Right,55.0444687065864,66.72215297755832,2.7522234353293196,1.048069128129958,Left,Incorrect,0.0,0.0,-45,45,2002,10952,-2.66
"{'cat': 'RB', 'resp': 'reach'}",38,67,Right,60.15055264849863,88.14292335866001,3.007527632424932,1.3845458024474724,Right,Correct,0.0,0.0,-45,45,2013,3870,-0.93
"{'cat': 'RB', 'resp': 'reach'}",38,68,Left,39.09227836352326,10.113919845899403,1.9546139181761633,0.1588690814343679,Right,Incorrect,0.0,0.0,-45,45,2008,12144,-0.91
"{'cat': 'RB', 'resp': 'reach'}",38,69,Left,33.7194285120065,33.7836217316477,1.6859714256003253,0.5306718892190045,Right,Incorrect,0.0,0.0,-45,45,2001,4126,-0.96
"{'cat': 'RB', 'resp': 'reach'}",38,70,Right,65.32274422087839,81.70305352358477,3.2661372110439197,1.2833885636277378,Right,Correct,0.0,0.0,-45,45,2007,4455,-0.98
"{'cat': 'RB', 'resp': 'reach'}",38,71,Right,52.44614458111013,39.74544370702449,2.6223072290555067,0.6243199698182742,Left,Incorrect,0.0,0.0,-45,45,2003,4295,-2.69
"{'cat': 'RB', 'resp': 'reach'}",38,72,Left,40.92702346128951,74.19010123649215,2.0463511730644752,1.1653753850682338,Left,Correct,0.0,0.0,-45,45,2005,3075,-2.73
"{'cat': 'RB', 'resp': 'reach'}",38,73,Left,42.3310684840979,67.85487121425716,2.116553424204895,1.0658618245849591,Right,Incorrect,0.0,0.0,-45,45,2009,4542,-0.86
"{'cat': 'RB', 'resp': 'reach'}",38,74,Left,44.63043012940824,65.70396575733716,2.231521506470412,1.0320754806748287,Left,Correct,0.0,0.0,-45,45,2005,2550,-2.6
"{'cat': 'RB', 'resp': 'reach'}",38,75,Left,35.30678189513865,72.35857054433532,1.7653390947569323,1.136605768231713,Right,Incorrect,0.0,0.0,-45,45,2007,2184,-0.89
"{'cat': 'RB', 'resp': 'reach'}",38,76,Right,53.52320393873094,35.62443677914119,2.6761601969365465,0.5595873443681201,Left,Incorrect,0.0,0.0,-45,45,2013,1960,-2.65
"{'cat': 'RB', 'resp': 'reach'}",38,77,Right,56.9319811874608,63.68125720285792,2.84659905937304,1.0003028489993027,Right,Correct,0.0,0.0,-45,45,2002,3654,-0.93
"{'cat': 'RB', 'resp': 'reach'}",38,78,Left,34.14851184200942,29.16163694708109,1.7074255921004708,0.4580699219980132,Left,Correct,0.0,0.0,-45,45,2006,5127,-2.52
"{'cat': 'RB', 'resp': 'reach'}",38,79,Right,61.41420045777494,52.25168764785812,3.070710022888747,0.820767590260898,Right,Correct,0.0,0.0,-45,45,2004,5481,-0.98
"{'cat': 'RB', 'resp': 'reach'}",38,80,Left,42.89884152225851,42.71327718707317,2.1449420761129256,0.6709385891082678,Left,Correct,0.0,0.0,-45,45,2001,3405,-2.44
"{'cat': 'RB', 'resp': 'reach'}",38,81,Right,61.01997312289907,48.93330252795945,3.0509986561449534,0.7686425186886213,Right,Correct,0.0,0.0,-45,45,2008,3231,-0.98
"{'cat': 'RB', 'resp': 'reach'}",38,82,Left,46.63855539012788,66.05192249751065,2.3319277695063936,1.037541172368309,Left,Correct,0.0,0.0,-45,45,2005,3588,-2.49
"{'cat': 'RB', 'resp': 'reach'}",38,83,Left,45.25633899247253,52.5936853568528,2.2628169496236263,0.8261396777115092,Left,Correct,0.0,0.0,-45,45,2012,3097,-2.66
"{'cat': 'RB', 'resp': 'reach'}",38,84,Right,59.434929644235766,43.75564172315109,2.9717464822117883,0.6873120129527925,Left,Incorrect,0.0,0.0,-45,45,2007,4852,-2.63
"{'cat': 'RB', 'resp': 'reach'}",38,85,Right,58.401787668486726,77.09979003149702,2.920089383424336,1.211080669781333,Right,Correct,0.0,0.0,-45,45,2005,2869,-0.95
"{'cat': 'RB', 'resp': 'reach'}",38,86,Left,41.97103999386177,11.72610855933037,2.098551999693089,0.18419328252594344,Right,Incorrect,0.0,0.0,-45,45,2006,8064,-1.06
"{'cat': 'RB', 'resp': 'reach'}",38,87,Left,39.04800919360425,83.84117793041105,1.9524004596802127,1.3169741432724702,Right,Incorrect,0.0,0.0,-45,45,2002,4372,-0.88
"{'cat': 'RB', 'resp': 'reach'}",38,88,Left,37.630560344669874,23.21494281327138,1.8815280172334936,0.36465946897840273,Right,Incorrect,0.0,0.0,-45,45,2005,2599,-0.83
"{'cat': 'RB', 'resp': 'reach'}",38,89,Left,40.77297935481137,72.17688645327075,2.0386489677405684,1.1337518812029,Left,Correct,0.0,0.0,-45,45,2007,5139,-2.47
"{'cat': 'RB', 'resp': 'reach'}",38,90,Right,55.67946849454459,36.35872797982777,2.7839734247272294,0.5711215635764829,Right,Correct,0.0,0.0,-45,45,2006,2953,-0.93
"{'cat': 'RB', 'resp': 'reach'}",38,91,Right,61.00417797628341,30.45606959297565,3.0502088988141702,0.4784028224525589,Right,Correct,0.0,0.0,-45,45,2003,8352,-0.93
"{'cat': 'RB', 'resp': 'reach'}",38,92,Left,38.44546980074923,55.52866880544066,1.9222734900374616,0.8722422899139654,Left,Correct,0.0,0.0,-45,45,2003,2926,-2.66
"{'cat': 'RB', 'resp': 'reach'}",38,93,Left,39.27017717130917,19.824473176415545,1.9635088585654585,0.3114020964615749,Left,Correct,0.0,0.0,-45,45,2008,3940,-2.67
"{'cat': 'RB', 'resp': 'reach'}",38,94,Left,36.01057590301896,84.07666563824279,1.8005287951509479,1.3206731755371448,Left,Correct,0.0,0.0,-45,45,2001,3488,-2.68
"{'cat': 'RB', 'resp': 'reach'}",38,95,Left,38.78936799817722,79.45108244792954,1.939468399908861,1.248014684690862,Left,Correct,0.0,0.0,-45,45,2008,9309,-2.66
"{'cat': 'RB', 'resp': 'reach'}",38,96,Right,53.99411974294469,72.35069172297874,2.6997059871472344,1.1364820079952493,Right,Correct,0.0,0.0,-45,45,2002,2806,-1.09
"{'cat': 'RB', 'resp': 'reach'}",38,97,Left,36.726763833295095,83.25214027888254,1.8363381916647545,1.3077215614788213,Right,Incorrect,0.0,0.0,-45,45,2008,4561,-1.04
"{'cat': 'RB', 'resp': 'reach'}",38,98,Right,62.49373856920099,46.82939261537512,3.1246869284600494,0.735594379062673,Right,Correct,0.0,0.0,-45,45,2009,3204,-0.89
"{'cat': 'RB', 'resp': 'reach'}",38,99,Left,42.84778627043887,45.523253255746646,2.142389313521943,0.7150775899788064,Right,Incorrect,0.0,0.0,-45,45,2007,1949,-0.86
"{'cat': 'RB', 'resp': 'reach'}",38,100,Left,35.644495128497375,13.558077758683012,1.7822247564248688,0.21296978741738862,Right,Incorrect,0.0,0.0,-45,45,2006,3796,-0.87
"{'cat': 'RB', 'resp': 'reach'}",38,101,Left,42.646465764606326,72.62595593448762,2.132323288230316,1.1408058481186116,Left,Correct,0.0,0.0,-45,45,2003,3986,-2.66
"{'cat': 'RB', 'resp': 'reach'}",38,102,Left,38.77922305622846,46.01538493764077,1.938961152811423,0.7228079763609933,Right,Incorrect,0.0,0.0,-45,45,2007,4485,-0.98
"{'cat': 'RB', 'resp': 'reach'}",38,103,Left,40.977028067208366,83.22441252212079,2.0488514033604184,1.3072860148941052,Left,Correct,0.0,0.0,-45,45,2005,4877,-2.69
"{'cat': 'RB', 'resp': 'reach'}",38,104,Left,41.759828035168375,47.190500331349,2.0879914017584187,0.7412666458009636,Left,Correct,0.0,0.0,-45,45,2008,4293,-2.57
"{'cat': 'RB', 'resp': 'reach'}",38,105,Left,43.52369057348922,28.96848163329075,2.1761845286744608,0.45503584542398534,Right,Incorrect,0.0,0.0,-45,45,2009,1622,-0.86
"{'cat': 'RB', 'resp': 'reach'}",38,106,Right,63.16564076678605,16.449585225741323,3.158282038339302,0.25838948049894067,Right,Correct,0.0,0.0,-45,45,2002,3419,-0.88
"{'cat': 'RB', 'resp': 'reach'}",38,107,Right,56.33354488464297,24.584497554931556,2.8166772442321486,0.38617238455384606,Right,Correct,0.0,0.0,-45,45,2004,2137,-0.86
"{'cat': 'RB', 'resp': 'reach'}",38,108,Right,67.55376612599761,26.255216781730503,3.377688306299881,0.41241598079946,Right,Correct,0.0,0.0,-45,45,2006,2156,-1.05
"{'cat': 'RB', 'resp': 'reach'}",38,109,Left,47.02295258113748,66.39154935263649,2.351147629056874,1.042876018533435,Right,Incorrect,0.0,0.0,-45,45,2003,8250,-1.01
"{'cat': 'RB', 'resp': 'reach'}",38,110,Right,55.27439131926182,46.433384867951844,2.7637195659630907,0.7293739039123249,Right,Correct,0.0,0.0,-45,45,2006,2595,-1.05
"{'cat': 'RB', 'resp': 'reach'}",38,111,Right,54.89091253436516,43.34341949103541,2.7445456267182577,0.6808368412724876,Left,Incorrect,0.0,0.0,-45,45,2012,9900,-2.71
"{'cat': 'RB', 'resp': 'reach'}",38,112,Right,59.819849928456435,31.878237801365735,2.990992496422822,0.5007421884307952,Right,Correct,0.0,0.0,-45,45,2002,1971,-0.98
"{'cat': 'RB', 'resp': 'reach'}",38,113,Left,37.2260282450113,70.90386837452083,1.861301412250565,1.1137553599824614,Right,Incorrect,0.0,0.0,-45,45,2009,7196,-0.9
"{'cat': 'RB', 'resp': 'reach'}",38,114,Right,62.21588570184099,58.22446208694346,3.1107942850920494,0.914587711757795,Right,Correct,0.0,0.0,-45,45,2005,2265,-0.99
"{'cat': 'RB', 'resp': 'reach'}",38,115,Right,62.46674427493125,86.14065499381073,3.1233372137465625,1.3530942445198435,Right,Correct,0.0,0.0,-45,45,2009,1657,-1.0
"{'cat': 'RB', 'resp': 'reach'}",38,116,Right,68.62372132568814,38.5409643064552,3.431186066284407,0.6054000516371305,Left,Incorrect,0.0,0.0,-45,45,2001,4315,-2.59
"{'cat': 'RB', 'resp': 'reach'}",38,117,Left,47.06511474092854,67.68002804835766,2.3532557370464273,1.063115394557358,Left,Correct,0.0,0.0,-45,45,2009,2722,-2.51
"{'cat': 'RB', 'resp': 'reach'}",38,118,Right,64.5491415327576,64.6739360480529,3.2274570766378803,1.0158958118364954,Left,Incorrect,0.0,0.0,-45,45,2001,5282,-2.52
"{'cat': 'RB', 'resp': 'reach'}",38,119,Left,40.35126179952801,26.84655411903091,2.0175630899764005,0.42170468597274147,Right,Incorrect,0.0,0.0,-45,45,2012,6914,-0.95
"{'cat': 'RB', 'resp': 'reach'}",38,120,Left,34.8005212990924,38.60364724059802,1.74002606495462,0.6063846728641732,Right,Incorrect,0.0,0.0,-45,45,2006,6206,-0.93
"{'cat': 'RB', 'resp': 'reach'}",38,121,Left,44.330912009817766,82.59279345549254,2.2165456004908886,1.2973645657961728,Right,Incorrect,0.0,0.0,-45,45,2007,8527,-0.95
"{'cat': 'RB', 'resp': 'reach'}",38,122,Left,44.375771116575294,36.79256316848205,2.2187885558287648,0.5779362307842081,Right,Incorrect,0.0,0.0,-45,45,2014,3195,-0.91
"{'cat': 'RB', 'resp': 'reach'}",38,123,Right,66.88856273403886,22.40217205572029,3.3444281367019424,0.3518924957735271,Left,Incorrect,0.0,0.0,-45,45,2009,1629,-2.41
"{'cat': 'RB', 'resp': 'reach'}",38,124,Right,66.48526931305565,36.52280509242849,3.3242634656527827,0.5736988808343262,Right,Correct,0.0,0.0,-45,45,2013,1712,-0.9
"{'cat': 'RB', 'resp': 'reach'}",38,125,Left,44.89546041991992,69.35696344449254,2.244773020995996,1.089456634162568,Left,Correct,0.0,0.0,-45,45,2007,4146,-2.57
"{'cat': 'RB', 'resp': 'reach'}",38,126,Right,53.71498097020454,48.214825842320714,2.6857490485102273,0.7573567133017303,Left,Incorrect,0.0,0.0,-45,45,2013,5737,-2.71
"{'cat': 'RB', 'resp': 'reach'}",38,127,Right,61.84705648339692,46.293426669925665,3.092352824169846,0.7271754456786812,Left,Incorrect,0.0,0.0,-45,45,2005,1563,-2.67
"{'cat': 'RB', 'resp': 'reach'}",38,128,Left,45.647691635876306,78.70371326586118,2.2823845817938153,1.2362750370313351,Left,Correct,0.0,0.0,-45,45,2004,5912,-2.6
"{'cat': 'RB', 'resp': 'reach'}",38,129,Left,40.27049735581735,90.11427540839682,2.0135248677908675,1.4155117280329341,Right,Incorrect,0.0,0.0,-45,45,2013,5898,-1.0
"{'cat': 'RB', 'resp': 'reach'}",38,130,Right,62.00530838381525,84.42092458789489,3.1002654191907624,1.3260807824729426,Right,Correct,0.0,0.0,-45,45,2006,2885,-0.99
"{'cat': 'RB', 'resp': 'reach'}",38,131,Left,42.35338900470991,43.21983810639242,2.117669450235496,0.6788956294219133,Left,Correct,0.0,0.0,-45,45,2008,2479,-2.62
"{'cat': 'RB', 'resp': 'reach'}",38,132,Right,61.68427066366032,19.246140164790614,3.084213533183016,0.3023176627583282,Right,Correct,0.0,0.0,-45,45,2012,1992,-1.05
"{'cat': 'RB', 'resp': 'reach'}",38,133,Left,31.83445966467424,55.68404361632266,1.5917229832337119,0.8746829117360644,Left,Correct,0.0,0.0,-45,45,2001,1638,-2.54
"{'cat': 'RB', 'resp': 'reach'}",38,134,Left,36.54301953450261,21.032733578898483,1.8271509767251306,0.3303814064818942,Right,Incorrect,0.0,0.0,-45,45,2010,2489,-0.92
"{'cat': 'RB', 'resp': 'reach'}",38,135,Left,45.05932191911872,73.37019097039487,2.2529660959559363,1.1524962647253636,Right,Incorrect,0.0,0.0,-45,45,2006,6597,-0.88
"{'cat': 'RB', 'resp': 'reach'}",38,136,Right,57.83818946616062,45.77356090959967,2.891909473308031,0.7190094134112163,Right,Correct,0.0,0.0,-45,45,2005,1812,-0.97
"{'cat': 'RB', 'resp': 'reach'}",38,137,Right,60.83810322856003,23.293454398205867,3.0419051614280015,0.3658927260706621,Right,Correct,0.0,0.0,-45,45,2001,2787,-0.95
"{'cat': 'RB', 'resp': 'reach'}",38,138,Right,54.619795557632095,30.23796944823129,2.730989777881605,0.4749769133901802,Right,Correct,0.0,0.0,-45,45,2003,2964,-0.93
"{'cat': 'RB', 'resp': 'reach'}",38,139,Left,44.87299851407968,77.95257629341191,2.243649925703984,1.2244762050589035,Left,Correct,0.0,0.0,-45,45,2001,1992,-2.54
"{'cat': 'RB', 'resp': 'reach'}",38,140,Right,64.69049893595708,28.627211962618382,3.234524946797854,0.44967519397259875,Right,Correct,0.0,0.0,-45,45,2006,1316,-0.89
"{'cat': 'RB', 'resp': 'reach'}",38,141,Right,64.89681543207655,34.33193539651821,3.2448407716038274,0.539284780126105,Right,Correct,0.0,0.0,-45,45,2005,2167,-0.95
"{'cat': 'RB', 'resp': 'reach'}",38,142,Left,48.772092887925155,64.61527045663301,2.438604644396258,1.0149742948813794,Right,Incorrect,0.0,0.0,-45,45,2003,9757,-0.99
"{'cat': 'RB', 'resp': 'reach'}",38,143,Right,58.19323138088767,24.093521120808717,2.909661569044383,0.3784601447612159,Left,Incorrect,0.0,0.0,-45,45,2008,4618,-2.56
"{'cat': 'RB', 'resp': 'reach'}",38,144,Right,61.22312778445084,47.719815628959736,3.061156389222542,0.7495811110529964,Right,Correct,0.0,0.0,-45,45,2007,2306,-0.93
"{'cat': 'RB', 'resp': 'reach'}",38,145,Right,62.56047588035021,41.023410373225765,3.1280237940175106,0.6443942232686269,Left,Incorrect,0.0,0.0,-45,45,2004,3911,-2.38
"{'cat': 'RB', 'resp': 'reach'}",38,146,Left,35.03958189570917,19.28648915236938,1.7519790947854585,0.30295146317311444,Left,Correct,0.0,0.0,-45,45,2008,3165,-2.54
"{'cat': 'RB', 'resp': 'reach'}",38,147,Left,36.27107009657999,34.08409743699388,1.8135535048289995,0.5353917505614932,Right,Incorrect,0.0,0.0,-45,45,2012,2650,-0.99
"{'cat': 'RB', 'resp': 'reach'}",38,148,Right,56.713701922617226,72.63970945042298,2.8356850961308613,1.1410218878417295,Right,Correct,0.0,0.0,-45,45,2006,5956,-0.86
"{'cat': 'RB', 'resp': 'reach'}",38,149,Right,67.58491115164938,74.78656202951437,3.379245557582469,1.1747445692957987,Right,Correct,0.0,0.0,-45,45,2005,3239,-0.9
"{'cat': 'RB', 'resp': 'reach'}",38,150,Left,38.85709972821018,89.1519917427496,1.9428549864105091,1.4003962115596003,Right,Incorrect,0.0,0.0,-45,45,2012,9020,-0.93
"{'cat': 'RB', 'resp': 'reach'}",38,151,Left,43.152744478654526,88.4047303618932,2.1576372239327264,1.388658257237551,Left,Correct,0.0,0.0,-45,45,2009,1564,-2.59
"{'cat': 'RB', 'resp': 'reach'}",38,152,Left,32.44515856858879,35.94159313973247,1.6222579284294394,0.5645692248304842,Right,Incorrect,0.0,0.0,-45,45,2012,4072,-1.01
"{'cat': 'RB', 'resp': 'reach'}",38,153,Right,63.22356942897091,74.4770688114983,3.1611784714485456,1.1698830611955229,Left,Incorrect,0.0,0.0,-45,45,2004,4539,-2.68
"{'cat': 'RB', 'resp': 'reach'}",38,154,Left,38.67386608146025,53.280444895691815,1.9336933040730122,0.836927271321506,Right,Incorrect,0.0,0.0,-45,45,2012,4062,-0.93
"{'cat': 'RB', 'resp': 'reach'}",38,155,Left,32.849343704975105,64.37670624525313,1.6424671852487551,1.011226937011977,Right,Incorrect,0.0,0.0,-45,45,2002,1622,-0.99
"{'cat': 'RB', 'resp': 'reach'}",38,156,Right,55.0165831131682,63.73996081715613,2.75082915565841,1.001224963216395,Left,Incorrect,0.0,0.0,-45,45,2004,1523,-2.73
"{'cat': 'RB', 'resp': 'reach'}",38,157,Left,35.96092192197023,24.979222502613187,1.7980460960985116,0.3923727095329721,Right,Incorrect,0.0,0.0,-45,45,2002,1909,-0.94
"{'cat': 'RB', 'resp': 'reach'}",38,158,Right,64.32025670112654,59.97940229366518,3.216012835056327,0.9421542480624266,Left,Incorrect,0.0,0.0,-45,45,2004,1670,-2.62
"{'cat': 'RB', 'resp': 'reach'}",38,159,Left,48.29192877713625,59.38442116147698,2.4145964388568126,0.9328083062928915,Right,Incorrect,0.0,0.0,-45,45,2001,2350,-0.95
"{'cat': 'RB', 'resp': 'reach'}",38,160,Right,67.30443853999529,72.47281379884842,3.3652219269997645,1.138400297077216,Right,Correct,0.0,0.0,-45,45,2003,1983,-0.99
"{'cat': 'RB', 'resp': 'reach'}",38,161,Right,53.29007003929096,77.33382871082995,2.664503501964548,1.214756940759574,Right,Correct,0.0,0.0,-45,45,2002,1975,-1.01
"{'cat': 'RB', 'resp': 'reach'}",38,162,Right,64.68195995990551,25.25962007695844,3.2340979979952755,0.3967771843312094,Left,Incorrect,0.0,0.0,-45,45,2002,1583,-2.58
"{'cat': 'RB', 'resp': 'reach'}",38,163,Right,57.83242692878304,82.1633651846675,2.8916213464391523,1.290619122291834,Left,Incorrect,0.0,0.0,-45,45,2001,2385,-2.59
"{'cat': 'RB', 'resp': 'reach'}",38,164,Left,36.19063500156448,86.81759077305045,1.8095317500782242,1.3637275268749016,Right,Incorrect,0.0,0.0,-45,45,2005,4133,-0.89
"{'cat': 'RB', 'resp': 'reach'}",38,165,Right,57.59156307495142,23.915063354252034,2.879578153747571,0.3756569367192633,Right,Correct,0.0,0.0,-45,45,2012,405,-0.91
"{'cat': 'RB', 'resp': 'reach'}",38,166,Left,47.54767302340672,59.97959297431334,2.3773836511703363,0.9421572432670439,Left,Correct,0.0,0.0,-45,45,2004,458,-2.45
"{'cat': 'RB', 'resp': 'reach'}",38,167,Left,43.55989889972407,72.69542097456097,2.1779949449862035,1.1418970024164907,Right,Incorrect,0.0,0.0,-45,45,2013,1279,-0.9
"{'cat': 'RB', 'resp': 'reach'}",38,168,Left,36.6148015398519,28.850546579941373,1.8307400769925948,0.4531833259379698,Right,Incorrect,0.0,0.0,-45,45,2004,1136,-0.92
"{'cat': 'RB', 'resp': 'reach'}",38,169,Left,36.316228042823894,69.83953037327122,1.8158114021411946,1.0970367777541503,Right,Incorrect,0.0,0.0,-45,45,2006,1758,-0.91
"{'cat': 'RB', 'resp': 'reach'}",38,170,Right,57.0874094170431,57.95850950033618,2.854370470852155,0.9104101382963519,Right,Correct,0.0,0.0,-45,45,2007,2258,-0.9
"{'cat': 'RB', 'resp': 'reach'}",38,171,Right,58.64780598925208,68.39821975440213,2.9323902994626043,1.07439672349525,Left,Incorrect,0.0,0.0,-45,45,2007,2607,-2.64
"{'cat': 'RB', 'resp': 'reach'}",38,172,Right,59.489904239768926,84.8999499780613,2.9744952119884465,1.3336052957060915,Left,Incorrect,0.0,0.0,-45,45,2001,5210,-2.61
"{'cat': 'RB', 'resp': 'reach'}",38,173,Right,66.03161042820344,28.921796392869453,3.3015805214101714,0.45430251538229227,Right,Correct,0.0,0.0,-45,45,2001,2234,-0.94
"{'cat': 'RB', 'resp': 'reach'}",38,174,Right,60.90567249902429,89.54106668326837,3.0452836249512143,1.4065077864337485,Right,Correct,0.0,0.0,-45,45,2013,2309,-0.9
"{'cat': 'RB', 'resp': 'reach'}",38,175,Right,52.526709448828626,59.37404470412095,2.6263354724414314,0.9326453132818915,Left,Incorrect,0.0,0.0,-45,45,2011,3652,-2.52
"{'cat': 'RB', 'resp': 'reach'}",38,176,Left,36.885229163861204,28.643273575966525,1.84426145819306,0.4499274892050954,Right,Incorrect,0.0,0.0,-45,45,2012,1886,-0.9
"{'cat': 'RB', 'resp': 'reach'}",38,177,Right,66.5392631079519,56.20379443098742,3.326963155397595,0.8828471384413051,Right,Correct,0.0,0.0,-45,45,2007,3156,-0.93
"{'cat': 'RB', 'resp': 'reach'}",38,178,Left,44.415204974744455,59.187567048548516,2.2207602487372227,0.9297161291178666,Right,Incorrect,0.0,0.0,-45,45,2003,3182,-0.92
"{'cat': 'RB', 'resp': 'reach'}",38,179,Right,57.32409177874291,18.322844776705036,2.8662045889371455,0.2878145727168132,Right,Correct,0.0,0.0,-45,45,2004,4907,-0.96
"{'cat': 'RB', 'resp': 'reach'}",38,180,Right,63.677412824917624,80.53723904065987,3.183870641245881,1.2650759925527109,Left,Incorrect,0.0,0.0,-45,45,2006,4911,-2.5
"{'cat': 'RB', 'resp': 'reach'}",38,181,Left,39.650313912044965,35.80655614213924,1.9825156956022483,0.5624480686324757,Right,Incorrect,0.0,0.0,-45,45,2009,2094,-0.94
"{'cat': 'RB', 'resp': 'reach'}",38,182,Left,40.85654817577123,77.1979627047415,2.0428274087885616,1.2126227625265737,Right,Incorrect,0.0,0.0,-45,45,2003,4449,-0.96
"{'cat': 'RB', 'resp': 'reach'}",38,183,Right,58.34748747137358,77.16397496999848,2.9173743735686792,1.2120888844376696,Right,Correct,0.0,0.0,-45,45,2013,1517,-0.95
"{'cat': 'RB', 'resp': 'reach'}",38,184,Left,42.58428032920872,20.538635968577207,2.129214016460436,0.3226201393681862,Right,Incorrect,0.0,0.0,-45,45,2004,2573,-0.94
"{'cat': 'RB', 'resp': 'reach'}",38,185,Right,56.759834552594505,23.562709829795097,2.8379917276297255,0.3701221804997614,Right,Correct,0.0,0.0,-45,45,2003,3319,-1.01
"{'cat': 'RB', 'resp': 'reach'}",38,186,Left,37.928009959884015,85.77790465793726,1.8964004979942006,1.3473961755685069,Left,Correct,0.0,0.0,-45,45,2006,4774,-2.49
"{'cat': 'RB', 'resp': 'reach'}",38,187,Left,39.604367930083264,76.83144161828562,1.9802183965041633,1.206865462763596,Left,Correct,0.0,0.0,-45,45,2001,2788,-2.59
"{'cat': 'RB', 'resp': 'reach'}",38,188,Left,39.480829512957335,18.769037686462354,1.9740414756478668,0.2948233545537005,Right,Incorrect,0.0,0.0,-45,45,2006,1482,-0.92
"{'cat': 'RB', 'resp': 'reach'}",38,189,Left,46.323131796403636,46.77789686770769,2.316156589820182,0.7347854857498574,Right,Incorrect,0.0,0.0,-45,45,2012,1406,-0.98
"{'cat': 'RB', 'resp': 'reach'}",38,190,Left,37.9018452880339,41.1098449124623,1.8950922644016948,0.6457519338360365,Left,Correct,0.0,0.0,-45,45,2001,2532,-2.47
"{'cat': 'RB', 'resp': 'reach'}",38,191,Right,68.73363557382109,47.76603467657855,3.4366817786910544,0.7503071181552725,Right,Correct,0.0,0.0,-45,45,2002,2123,-0.98
"{'cat': 'RB', 'resp': 'reach'}",38,192,Right,53.86042751247587,55.30012390698833,2.6930213756237937,0.8686523150439991,Right,Correct,0.0,0.0,-45,45,2008,5178,-0.94
"{'cat': 'RB', 'resp': 'reach'}",38,193,Right,57.235167808,26.349410818423898,2.8617583904000004,0.4138955772678997,Right,Correct,0.0,0.0,-45,45,2005,4808,-0.96
"{'cat': 'RB', 'resp': 'reach'}",38,194,Left,33.00371751285577,60.00284427977322,1.6501858756427885,0.9425224739191395,Left,Correct,0.0,0.0,-45,45,2007,3539,-2.71
"{'cat': 'RB', 'resp': 'reach'}",38,195,Right,63.12026863895845,63.19438695350225,3.1560134319479225,0.9926551090061666,Right,Correct,0.0,0.0,-45,45,2007,3399,-0.85
"{'cat': 'RB', 'resp': 'reach'}",38,196,Left,40.07691733702754,11.54884475794966,2.003845866851377,0.18140882924511822,Left,Correct,0.0,0.0,-45,45,2011,5517,-2.66
"{'cat': 'RB', 'resp': 'reach'}",38,197,Right,61.091401115361165,31.623095958175213,3.0545700557680586,0.49673442972984166,Left,Incorrect,0.0,0.0,-45,45,2003,9895,-2.5
"{'cat': 'RB', 'resp': 'reach'}",38,198,Left,47.788935119826725,63.89833702559086,2.389446755991336,1.0037127308810045,Left,Correct,0.0,0.0,-45,45,2006,1933,-2.55
"{'cat': 'RB', 'resp': 'reach'}",38,199,Right,59.782190564762864,33.42572667302981,2.9891095282381435,0.5250500867844543,Left,Incorrect,0.0,0.0,-45,45,2006,2425,-2.53
"{'cat': 'RB', 'resp': 'reach'}",38,200,Left,37.301393435645316,59.31733396279164,1.8650696717822657,0.9317545030401926,Right,Incorrect,0.0,0.0,-45,45,2006,1460,-0.8
"{'cat': 'RB', 'resp': 'reach'}",38,201,Left,40.9482233124521,28.56011160695281,2.0474111656226053,0.4486211840505377,Right,Incorrect,0.0,0.0,-45,45,2008,3327,-0.9
"{'cat': 'RB', 'resp': 'reach'}",38,202,Right,51.39379698075784,34.82583343919866,2.569689849037892,0.5470429124386413,Right,Correct,0.0,0.0,-45,45,2006,3148,-0.91
"{'cat': 'RB', 'resp': 'reach'}",38,203,Left,31.16802893494171,44.59329288552388,1.5584014467470855,0.7004698066426991,Right,Incorrect,0.0,0.0,-45,45,2002,8968,-0.96
"{'cat': 'RB', 'resp': 'reach'}",38,204,Right,63.46497224399522,49.1240008398892,3.173248612199761,0.7716380007676736,Right,Correct,0.0,0.0,-45,45,2012,2176,-0.92
"{'cat': 'RB', 'resp': 'reach'}",38,205,Right,66.57413699116391,56.05951204549922,3.3287068495581957,0.8805807560298443,Right,Correct,0.0,0.0,-45,45,2003,7514,-0.93
"{'cat': 'RB', 'resp': 'reach'}",38,206,Left,39.98138911867028,21.050962830982748,1.999069455933514,0.330667750904036,Right,Incorrect,0.0,0.0,-45,45,2009,2194,-0.9
"{'cat': 'RB', 'resp': 'reach'}",38,207,Left,39.556439491073434,70.31833599300717,1.9778219745536716,1.1045578388414503,Right,Incorrect,0.0,0.0,-45,45,2003,4389,-0.85
"{'cat': 'RB', 'resp': 'reach'}",38,208,Left,33.2549110290298,22.317450568472136,1.6627455514514902,0.35056169376382706,Left,Correct,0.0,0.0,-45,45,2006,2800,-2.54
"{'cat': 'RB', 'resp': 'reach'}",38,209,Right,57.87479117133481,76.05802840175454,2.8937395585667405,1.1947167163673795,Left,Incorrect,0.0,0.0,-45,45,2009,2966,-2.53
"{'cat': 'RB', 'resp': 'reach'}",38,210,Right,68.78039954098065,61.77473203140038,3.4390199770490324,0.9703552216366276,Right,Correct,0.0,0.0,-45,45,2003,1258,-0.85
"{'cat': 'RB', 'resp': 'reach'}",38,211,Right,65.50586938548926,65.25250657112962,3.2752934692744633,1.0249839763609025,Left,Incorrect,0.0,0.0,-45,45,2003,1975,-2.68
"{'cat': 'RB', 'resp': 'reach'}",38,212,Left,47.563863853949094,35.477741886175906,2.378193192697455,0.5572830663778257,Left,Correct,0.0,0.0,-45,45,2012,2303,-2.49
"{'cat': 'RB', 'resp': 'reach'}",38,213,Right,64.61251182896437,57.5229637957683,3.2306255914482187,0.9035686023674867,Right,Correct,0.0,0.0,-45,45,2006,1574,-0.97
"{'cat': 'RB', 'resp': 'reach'}",38,214,Left,47.469490077208945,42.67625485355729,2.3734745038604474,0.6703570436533066,Right,Incorrect,0.0,0.0,-45,45,2003,4730,-0.97
"{'cat': 'RB', 'resp': 'reach'}",38,215,Left,48.28882810581512,56.51475368362874,2.414441405290756,0.8877316749596239,Right,Incorrect,0.0,0.0,-45,45,2001,5484,-1.02
"{'cat': 'RB', 'resp': 'reach'}",38,216,Right,61.028684280232746,20.837340493051702,3.0514342140116373,0.32731217906660176,Right,Correct,0.0,0.0,-45,45,2012,5029,-0.85
"{'cat': 'RB', 'resp': 'reach'}",38,217,Right,61.399994232118296,85.20895059535476,3.069999711605915,1.3384590660523108,Right,Correct,0.0,0.0,-45,45,2009,2342,-0.92
"{'cat': 'RB', 'resp': 'reach'}",38,218,Left,34.11582125014166,49.23181543322982,1.705791062507083,0.773331548439617,Left,Correct,0.0,0.0,-45,45,2012,1814,-2.81
"{'cat': 'RB', 'resp': 'reach'}",38,219,Left,44.47307197610537,57.10425784520859,2.2236535988052686,0.8969915846760231,Right,Incorrect,0.0,0.0,-45,45,2001,4341,-0.93
"{'cat': 'RB', 'resp': 'reach'}",38,220,Right,55.046483974230036,56.46905958310214,2.7523241987115017,0.8870139137069899,Left,Incorrect,0.0,0.0,-45,45,2004,10059,-2.44
"{'cat': 'RB', 'resp': 'reach'}",38,221,Right,65.7702769022469,61.17785694736536,3.2885138451123455,0.9609795297410516,Left,Incorrect,0.0,0.0,-45,45,2003,1278,-2.47
"{'cat': 'RB', 'resp': 'reach'}",38,222,Left,39.076373946221715,61.99186550419743,1.9538186973110856,0.9737659462515658,Left,Correct,0.0,0.0,-45,45,2007,2414,-2.62
"{'cat': 'RB', 'resp': 'reach'}",38,223,Right,61.28472335521201,46.369036595426614,3.0642361677606003,0.7283631236111426,Right,Correct,0.0,0.0,-45,45,2004,2972,-0.93
"{'cat': 'RB', 'resp': 'reach'}",38,224,Right,59.37478148565384,17.864917948063372,2.9687390742826922,0.28062147491310163,Right,Correct,0.0,0.0,-45,45,2009,2766,-0.84
"{'cat': 'RB', 'resp': 'reach'}",38,225,Left,38.82336429860495,89.0545079990242,1.9411682149302476,1.3988649404939397,Left,Correct,0.0,0.0,-45,45,2012,2036,-2.49
"{'cat': 'RB', 'resp': 'reach'}",38,226,Right,52.74943781605976,56.337923578454365,2.6374718908029884,0.884954034162877,Right,Correct,0.0,0.0,-45,45,2007,1052,-0.88
"{'cat': 'RB', 'resp': 'reach'}",38,227,Left,34.38141078510765,55.66761277528464,1.7190705392553824,0.8744248166885776,Left,Correct,0.0,0.0,-45,45,2007,1827,-2.62
"{'cat': 'RB', 'resp': 'reach'}",38,228,Left,37.541035405737325,32.5939558122794,1.877051770286866,0.5119846606564364,Right,Incorrect,0.0,0.0,-45,45,2005,1725,-0.87
"{'cat': 'RB', 'resp': 'reach'}",38,229,Right,51.784872303460986,60.90251417822452,2.589243615173049,0.9566544556372919,Right,Correct,0.0,0.0,-45,45,2003,3359,-0.9
"{'cat': 'RB', 'resp': 'reach'}",38,230,Right,61.98123431279982,85.71862713701256,3.099061715639991,1.3464650464472068,Left,Incorrect,0.0,0.0,-45,45,2006,2650,-2.53
"{'cat': 'RB', 'resp': 'reach'}",38,231,Right,52.53889738911062,65.64133613405484,2.6269448694555315,1.0310916968528245,Right,Correct,0.0,0.0,-45,45,2007,2143,-0.98
"{'cat': 'RB', 'resp': 'reach'}",38,232,Right,61.71977670473228,33.22352788090412,3.085988835236614,0.5218739555849202,Right,Correct,0.0,0.0,-45,45,2001,1291,-0.94
"{'cat': 'RB', 'resp': 'reach'}",38,233,Left,36.84319357593048,88.28369255950737,1.842159678796524,1.3867569998836413,Left,Correct,0.0,0.0,-45,45,2003,1552,-2.53
"{'cat': 'RB', 'resp': 'reach'}",38,234,Left,43.01794277893604,34.596165643261216,2.1508971389468017,0.5434352991362251,Right,Incorrect,0.0,0.0,-45,45,2007,1347,-0.97
"{'cat': 'RB', 'resp': 'reach'}",38,235,Right,55.06275172153535,72.65369329630003,2.7531375860767673,1.141241545579111,Left,Incorrect,0.0,0.0,-45,45,2003,1819,-2.64
"{'cat': 'RB', 'resp': 'reach'}",38,236,Left,44.79680986729563,50.815234038832884,2.2398404933647815,0.7982038297342169,Right,Incorrect,0.0,0.0,-45,45,2009,2149,-0.96
"{'cat': 'RB', 'resp': 'reach'}",38,237,Right,56.7161469817164,49.061355903774036,2.8358073490858198,0.7706539764122537,Right,Correct,0.0,0.0,-45,45,2012,3064,-1.0
"{'cat': 'RB', 'resp': 'reach'}",38,238,Left,43.232371732050765,52.606647365905275,2.161618586602538,0.8263432844735843,Left,Correct,0.0,0.0,-45,45,2008,5790,-2.66
"{'cat': 'RB', 'resp': 'reach'}",38,239,Left,44.43501274245996,37.086867862991426,2.221750637122998,0.5825591581151461,Left,Correct,0.0,0.0,-45,45,2002,5611,-2.5
"{'cat': 'RB', 'resp': 'reach'}",38,240,Right,64.62391490500318,79.77196148035011,3.231195745250159,1.2530550407455792,Left,Incorrect,0.0,0.0,-45,45,2002,4249,-2.7
"{'cat': 'RB', 'resp': 'reach'}",38,241,Right,62.832414885712566,83.82137856064739,3.1416207442856283,1.3166631354994942,Right,Correct,0.0,0.0,-45,45,2002,2441,-0.91
"{'cat': 'RB', 'resp': 'reach'}",38,242,Right,57.407796923125986,26.745582526941806,2.8703898461562996,0.4201186279130995,Left,Incorrect,0.0,0.0,-45,45,2001,4343,-2.68
"{'cat': 'RB', 'resp': 'reach'}",38,243,Left,35.52319820728956,47.73641081541621,1.776159910364478,0.7498417876322794,Right,Incorrect,0.0,0.0,-45,45,2002,2260,-0.97
"{'cat': 'RB', 'resp': 'reach'}",38,244,Left,44.2783202097154,36.34866927605174,2.21391601048577,0.5709635618270458,Right,Incorrect,0.0,0.0,-45,45,2012,2524,-0.94
"{'cat': 'RB', 'resp': 'reach'}",38,245,Left,46.48719490903863,19.910570424700516,2.3243597454519316,0.3127545088751067,Right,Incorrect,0.0,0.0,-45,45,2004,2896,-0.95
"{'cat': 'RB', 'resp': 'reach'}",38,246,Right,67.26349751345985,58.351599576791514,3.3631748756729927,0.9165847827783075,Left,Incorrect,0.0,0.0,-45,45,2009,1669,-2.68
"{'cat': 'RB', 'resp': 'reach'}",38,247,Right,54.04256116358929,30.228345267552747,2.7021280581794644,0.47482573711359743,Left,Incorrect,0.0,0.0,-45,45,2001,4930,-2.59
"{'cat': 'RB', 'resp': 'reach'}",38,248,Left,37.733256561362026,19.577541300030642,1.8866628280681013,0.30752329961763514,Left,Correct,0.0,0.0,-45,45,2007,4288,-2.62
"{'cat': 'RB', 'resp': 'reach'}",38,249,Left,45.9443751860328,46.86864587281066,2.29721875930164,0.7362109677886178,Right,Incorrect,0.0,0.0,-45,45,2003,2147,-0.93
"{'cat': 'RB', 'resp': 'reach'}",38,250,Left,38.761983171794014,43.032674686552554,1.9380991585897007,0.6759556732979648,Right,Incorrect,0.0,0.0,-45,45,2013,2492,-1.0
"{'cat': 'RB', 'resp': 'reach'}",38,251,Right,66.054983519069,31.487872907808377,3.3027491759534495,0.49461035102169937,Right,Correct,0.0,0.0,-45,45,2006,3000,-0.91
"{'cat': 'RB', 'resp': 'reach'}",38,252,Right,67.28349768807786,62.16962756492978,3.364174884403893,0.9765582261719844,Right,Correct,0.0,0.0,-45,45,2003,2772,-0.97
"{'cat': 'RB', 'resp': 'reach'}",38,253,Left,45.8112690899015,60.95669225125118,2.290563454495075,0.9575054828183228,Right,Incorrect,0.0,0.0,-45,45,2005,3856,-1.03
"{'cat': 'RB', 'resp': 'reach'}",38,254,Left,44.85919744878658,55.03718592932871,2.242959872439329,0.8645220949491729,Right,Incorrect,0.0,0.0,-45,45,2012,1814,-0.89
"{'cat': 'RB', 'resp': 'reach'}",38,255,Right,67.95414983480958,72.21331067991153,3.397707491740479,1.1343240316170373,Left,Incorrect,0.0,0.0,-45,45,2001,3941,-2.69
"{'cat': 'RB', 'resp': 'reach'}",38,256,Left,31.718567704448155,38.22921370559435,1.5859283852224078,0.6005030846500472,Right,Incorrect,0.0,0.0,-45,45,2010,1490,-0.94
"{'cat': 'RB', 'resp': 'reach'}",38,257,Right,62.66849900380205,79.09327440701537,3.1334249501901024,1.2423942491272055,Right,Correct,0.0,0.0,-45,45,2004,2649,-0.91
"{'cat': 'RB', 'resp': 'reach'}",38,258,Left,47.27292645873851,58.97682925762999,2.3636463229369253,0.9264058676389497,Left,Correct,0.0,0.0,-45,45,2009,4667,-2.54
"{'cat': 'RB', 'resp': 'reach'}",38,259,Left,49.22320697463529,52.872782590852765,2.4611603487317644,0.8305237268113667,Right,Incorrect,0.0,0.0,-45,45,2004,1507,-0.95
"{'cat': 'RB', 'resp': 'reach'}",38,260,Left,36.52038535297945,13.899175507506797,1.8260192676489726,0.21832773832669264,Left,Correct,0.0,0.0,-45,45,2006,2766,-2.61
"{'cat': 'RB', 'resp': 'reach'}",38,261,Right,59.59820138486847,64.25234899854559,2.9799100692434233,1.0092735379485915,Left,Incorrect,0.0,0.0,-45,45,2002,1649,-2.68
"{'cat': 'RB', 'resp': 'reach'}",38,262,Right,53.337252454745695,44.52533802763847,2.6668626227372845,0.6994023742311564,Left,Incorrect,0.0,0.0,-45,45,2009,1753,-2.71
"{'cat': 'RB', 'resp': 'reach'}",38,263,Right,54.66312769152786,16.45615317978863,2.733156384576393,0.25849264967986135,Right,Correct,0.0,0.0,-45,45,2004,1366,-0.95
"{'cat': 'RB', 'resp': 'reach'}",38,264,Right,53.586551976482895,35.25232514639183,2.6793275988241447,0.5537422285093165,Right,Correct,0.0,0.0,-45,45,2012,3868,-0.94
"{'cat': 'RB', 'resp': 'reach'}",38,265,Right,68.55177394130743,34.41756227265212,3.4275886970653717,0.5406298039511657,Left,Incorrect,0.0,0.0,-45,45,2012,2669,-2.77
"{'cat': 'RB', 'resp': 'reach'}",38,266,Left,39.7392375616251,57.4514516272437,1.986961878081255,0.9024452918510908,Left,Correct,0.0,0.0,-45,45,2011,2909,-2.68
"{'cat': 'RB', 'resp': 'reach'}",38,267,Right,61.35231300522761,50.16910985015782,3.0676156502613803,0.7880545347119756,Right,Correct,0.0,0.0,-45,45,2009,2655,-0.9
"{'cat': 'RB', 'resp': 'reach'}",38,268,Left,42.1346002411372,55.86585683243704,2.10673001205686,0.8775388270564167,Right,Incorrect,0.0,0.0,-45,45,2009,1227,-0.91
"{'cat': 'RB', 'resp': 'reach'}",38,269,Right,57.81663658212565,77.15953732310868,2.8908318291062822,1.2120191780433283,Left,Incorrect,0.0,0.0,-45,45,2012,1570,-2.64
"{'cat': 'RB', 'resp': 'reach'}",38,270,Right,68.70791461150496,61.12158155011494,3.435395730575248,0.9600955578681527,Left,Incorrect,0.0,0.0,-45,45,2011,1759,-2.64
"{'cat': 'RB', 'resp': 'reach'}",38,271,Left,31.066469302645586,56.59050602721623,1.5533234651322794,0.888921589990157,Left,Correct,0.0,0.0,-45,45,2004,4495,-2.71
"{'cat': 'RB', 'resp': 'reach'}",38,272,Left,38.11607269621894,60.11800050791732,1.905803634810947,0.9443313437209024,Left,Correct,0.0,0.0,-45,45,2001,3114,-2.62
"{'cat': 'RB', 'resp': 'reach'}",38,273,Left,32.59421698190542,69.43519630256415,1.629710849095271,1.0906855130235036,Right,Incorrect,0.0,0.0,-45,45,2006,1306,-0.88
"{'cat': 'RB', 'resp': 'reach'}",38,274,Left,42.50495689900605,76.65462883170308,2.1252478449503025,1.2040880940066536,Left,Correct,0.0,0.0,-45,45,2005,1872,-2.62
"{'cat': 'RB', 'resp': 'reach'}",38,275,Left,48.13188545712484,35.47025123196278,2.4065942728562417,0.5571654034565928,Right,Incorrect,0.0,0.0,-45,45,2008,1460,-0.87
"{'cat': 'RB', 'resp': 'reach'}",38,276,Right,62.56574996721184,71.69247752808248,3.128287498360592,1.1261428035993764,Right,Correct,0.0,0.0,-45,45,2005,1324,-0.85
"{'cat': 'RB', 'resp': 'reach'}",38,277,Left,39.328245173580534,84.85098655665665,1.9664122586790267,1.332836180081194,Left,Correct,0.0,0.0,-45,45,2004,1851,-2.75
"{'cat': 'RB', 'resp': 'reach'}",38,278,Right,62.9263735457061,87.19679952467152,3.146318677285305,1.3696841240162498,Right,Correct,0.0,0.0,-45,45,2007,1542,-0.96
"{'cat': 'RB', 'resp': 'reach'}",38,279,Left,41.72435662804418,77.69373449905345,2.086217831402209,1.2204103276609108,Right,Incorrect,0.0,0.0,-45,45,2007,1971,-0.88
"{'cat': 'RB', 'resp': 'reach'}",38,280,Right,52.03904519768061,46.06141963793863,2.60195225988403,0.723531087742323,Right,Correct,0.0,0.0,-45,45,2006,1855,-0.91
"{'cat': 'RB', 'resp': 'reach'}",38,281,Right,54.69917210981119,73.524760436657,2.7349586054905592,1.1549242362237555,Right,Correct,0.0,0.0,-45,45,2001,1406,-0.91
"{'cat': 'RB', 'resp': 'reach'}",38,282,Left,37.93731273708997,51.11872911118277,1.8968656368544985,0.8029711191826924,Right,Incorrect,0.0,0.0,-45,45,2004,1973,-0.92
"{'cat': 'RB', 'resp': 'reach'}",38,283,Left,32.28922052378845,28.20763086502364,1.6144610261894226,0.4430844295036548,Left,Correct,0.0,0.0,-45,45,2001,2493,-2.63
"{'cat': 'RB', 'resp': 'reach'}",38,284,Left,43.148722374600936,55.56006622065049,2.157436118730047,0.87273547935879,Left,Correct,0.0,0.0,-45,45,2004,7372,-2.49
"{'cat': 'RB', 'resp': 'reach'}",38,285,Right,60.82296144591536,80.20302485838403,3.041148072295768,1.2598261684538943,Right,Correct,0.0,0.0,-45,45,2002,2079,-0.93
"{'cat': 'RB', 'resp': 'reach'}",38,286,Right,58.33442657484707,11.14553601253862,2.9167213287423532,0.17507367028655904,Right,Correct,0.0,0.0,-45,45,2009,1252,-0.9
"{'cat': 'RB', 'resp': 'reach'}",38,287,Right,65.77544469005124,46.44440636247785,3.288772234502562,0.7295470291434973,Right,Correct,0.0,0.0,-45,45,2009,1716,-0.95
"{'cat': 'RB', 'resp': 'reach'}",38,288,Right,66.54973352690935,39.36459180109226,3.327486676345467,0.6183375620693623,Right,Correct,0.0,0.0,-45,45,2007,2196,-0.87
"{'cat': 'RB', 'resp': 'reach'}",38,289,Left,34.90699340293529,40.557766336706244,1.7453496701467646,0.6370799038470387,Left,Correct,0.0,0.0,-45,45,2008,2057,-2.63
"{'cat': 'RB', 'resp': 'reach'}",38,290,Right,63.05648241956226,87.35517876179348,3.1528241209781127,1.3721719392553675,Left,Incorrect,0.0,0.0,-45,45,2001,3011,-2.51
"{'cat': 'RB', 'resp': 'reach'}",38,291,Right,64.85688034362877,25.138495837749332,3.2428440171814383,0.3948745692308544,Right,Correct,0.0,0.0,-45,45,2007,1910,-0.98
"{'cat': 'RB', 'resp': 'reach'}",38,292,Right,66.56241324945307,40.532627018687585,3.328120662472654,0.6366850163630204,Right,Correct,0.0,0.0,-45,45,2009,919,-0.87
"{'cat': 'RB', 'resp': 'reach'}",38,293,Left,39.34042773253516,33.80190945933748,1.9670213866267579,0.5309591521738097,Right,Incorrect,0.0,0.0,-45,45,2008,1311,-0.93
"{'cat': 'RB', 'resp': 'reach'}",38,294,Right,52.648318124260406,57.9348135059662,2.63241590621302,0.9100379224871905,Right,Correct,0.0,0.0,-45,45,2009,1445,-0.89
"{'cat': 'RB', 'resp': 'reach'}",38,295,Right,59.869937507546716,65.6424407685418,2.993496875377336,1.0311090484107703,Right,Correct,0.0,0.0,-45,45,2009,2131,-0.86
"{'cat': 'RB', 'resp': 'reach'}",38,296,Right,63.391426568078344,83.68505966209449,3.1695713284039173,1.3145218432482977,Right,Correct,0.0,0.0,-45,45,2006,2452,-0.89
"{'cat': 'RB', 'resp': 'reach'}",38,297,Left,37.08250411858986,75.93550827358409,1.854125205929493,1.1927921746944936,Left,Correct,0.0,0.0,-45,45,2001,2844,-2.61
"{'cat': 'RB', 'resp': 'reach'}",38,298,Right,52.16349734392207,49.80740784299217,2.6081748671961034,0.7823729328694742,Right,Correct,0.0,0.0,-45,45,2010,2400,-0.94
"{'cat': 'RB', 'resp': 'reach'}",38,299,Left,35.22755435277139,75.2395990811443,1.7613777176385697,1.1818608586618213,Right,Incorrect,0.0,0.0,-45,45,2001,6415,-0.97
"{'cat': 'RB', 'resp': 'reach'}",38,300,Right,58.88848219693147,27.499272966446682,2.9444241098465733,0.43195756965224646,Right,Correct,0.0,0.0,-45,45,2009,2032,-0.89
"{'cat': 'RB', 'resp': 'reach'}",38,301,Right,59.04174133513059,19.084306041279724,2.9520870667565293,0.29977557829071844,Right,Correct,0.0,0.0,-45,45,2013,1625,-0.9
"{'cat': 'RB', 'resp': 'reach'}",38,302,Right,61.104365854329146,88.80796578210229,3.0552182927164573,1.3949922644065311,Right,Correct,0.0,0.0,-45,45,2004,2868,-0.89
"{'cat': 'RB', 'resp': 'reach'}",38,303,Left,38.59117603408713,78.93845115240634,1.9295588017043566,1.2399622911307826,Left,Correct,0.0,0.0,-45,45,2002,1573,-2.74
"{'cat': 'RB', 'resp': 'reach'}",38,304,Right,67.52777377625914,24.837004310372144,3.3763886888129573,0.3901387513932158,Left,Incorrect,0.0,0.0,-45,45,2006,3542,-2.64
"{'cat': 'RB', 'resp': 'reach'}",38,305,Right,59.73338851874238,11.725154798351085,2.986669425937119,0.18417830088351436,Right,Correct,0.0,0.0,-45,45,2004,2379,-0.9
"{'cat': 'RB', 'resp': 'reach'}",38,306,Right,67.2701898207589,75.26970120310102,3.363509491037945,1.182333701687805,Right,Correct,0.0,0.0,-45,45,2008,2832,-0.89
"{'cat': 'RB', 'resp': 'reach'}",38,307,Right,55.09805836039646,33.44768496329206,2.754902918019823,0.5253950068013207,Right,Correct,0.0,0.0,-45,45,2012,2586,-0.89
"{'cat': 'RB', 'resp': 'reach'}",38,308,Left,47.07631108261782,38.54119058872586,2.353815554130891,0.6054036060707262,Right,Incorrect,0.0,0.0,-45,45,2012,2269,-0.9
"{'cat': 'RB', 'resp': 'reach'}",38,309,Left,43.78922486295164,30.464195536674058,2.189461243147582,0.4785304644776909,Right,Incorrect,0.0,0.0,-45,45,2003,1345,-0.97
"{'cat': 'RB', 'resp': 'reach'}",38,310,Right,60.11564883087417,40.696442236207616,3.0057824415437087,0.639258219782556,Right,Correct,0.0,0.0,-45,45,2008,3634,-0.86
"{'cat': 'RB', 'resp': 'reach'}",38,311,Left,41.14866206610885,51.69460194474296,2.0574331033054425,0.8120169084992657,Right,Incorrect,0.0,0.0,-45,45,2003,2581,-0.94
"{'cat': 'RB', 'resp': 'reach'}",38,312,Right,56.911807460343105,17.539683006194238,2.8455903730171554,0.2755126963927678,Right,Correct,0.0,0.0,-45,45,2002,2398,-0.95
"{'cat': 'RB', 'resp': 'reach'}",38,313,Right,64.78155029480281,42.82476907919267,3.2390775147401403,0.6726898996543551,Right,Correct,0.0,0.0,-45,45,2007,2813,-0.91
"{'cat': 'RB', 'resp': 'reach'}",38,314,Right,58.929261269609306,53.584677215039235,2.9464630634804654,0.8417061414187382,Right,Correct,0.0,0.0,-45,45,2004,2395,-0.9
"{'cat': 'RB', 'resp': 'reach'}",38,315,Right,57.253773224244355,11.01243874409748,2.8626886612122178,0.17298298328282125,Right,Correct,0.0,0.0,-45,45,2005,2484,-0.92
"{'cat': 'RB', 'resp': 'reach'}",38,316,Left,42.72549007294418,78.7208332143384,2.136274503647209,1.2365439565531644,Right,Incorrect,0.0,0.0,-45,45,2009,1893,-0.91
"{'cat': 'RB', 'resp': 'reach'}",38,317,Right,52.82582283471304,54.48835484853008,2.641291141735652,0.8559010764916795,Left,Incorrect,0.0,0.0,-45,45,2010,3323,-2.46
"{'cat': 'RB', 'resp': 'reach'}",38,318,Right,53.3625951226444,74.05093291562471,2.6681297561322204,1.1631893341959862,Right,Correct,0.0,0.0,-45,45,2005,2135,-1.0
"{'cat': 'RB', 'resp': 'reach'}",38,319,Right,56.9485343062129,77.34965673801454,2.847426715310645,1.2150055668291937,Left,Incorrect,0.0,0.0,-45,45,2009,1242,-2.46
"{'cat': 'RB', 'resp': 'reach'}",38,320,Left,44.49137410699443,76.48825245429677,2.2245687053497214,1.201474659981701,Right,Incorrect,0.0,0.0,-45,45,2012,2112,-0.87
"{'cat': 'RB', 'resp': 'reach'}",38,321,Left,33.56209073011489,57.35597045597977,1.6781045365057445,0.9009454771200964,Right,Incorrect,0.0,0.0,-45,45,2001,2412,-0.93
"{'cat': 'RB', 'resp': 'reach'}",38,322,Right,56.11357329490257,24.622619855116536,2.8056786647451286,0.38677120824484135,Left,Incorrect,0.0,0.0,-45,45,2002,1446,-2.62
"{'cat': 'RB', 'resp': 'reach'}",38,323,Right,52.19520535521822,47.07232032397893,2.609760267760911,0.7394102785861885,Right,Correct,0.0,0.0,-45,45,2001,1317,-0.93
"{'cat': 'RB', 'resp': 'reach'}",38,324,Right,53.87470907471824,67.15407234095966,2.6937354537359117,1.0548537016249817,Right,Correct,0.0,0.0,-45,45,2005,4114,-0.94
"{'cat': 'RB', 'resp': 'reach'}",38,325,Right,62.88954200248108,51.429695930408556,3.144477100124054,0.8078557745566418,Right,Correct,0.0,0.0,-45,45,2011,2539,-0.89
"{'cat': 'RB', 'resp': 'reach'}",38,326,Right,58.27758212381686,69.43669532891886,2.9138791061908433,1.0907090596744209,Right,Correct,0.0,0.0,-45,45,2008,2766,-0.96
"{'cat': 'RB', 'resp': 'reach'}",38,327,Right,67.69804558278545,66.51856112615516,3.3849022791392724,1.0448711148064633,Left,Incorrect,0.0,0.0,-45,45,2004,4310,-2.66
"{'cat': 'RB', 'resp': 'reach'}",38,328,Left,30.771457057274766,55.5802761654539,1.5385728528637383,0.8730529364294092,Right,Incorrect,0.0,0.0,-45,45,2006,2277,-0.97
"{'cat': 'RB', 'resp': 'reach'}",38,329,Right,63.818726601082595,32.411173161020116,3.19093633005413,0.5091135174844375,Right,Correct,0.0,0.0,-45,45,2004,2147,-0.98
"{'cat': 'RB', 'resp': 'reach'}",38,330,Left,35.77848159768357,59.02651897117632,1.7889240798841786,0.9271863918341304,Right,Incorrect,0.0,0.0,-45,45,2004,1959,-0.98
"{'cat': 'RB', 'resp': 'reach'}",38,331,Left,36.95086729669548,43.1169412528539,1.847543364834774,0.6772793294261424,Right,Incorrect,0.0,0.0,-45,45,2004,2136,-1.01
"{'cat': 'RB', 'resp': 'reach'}",38,332,Right,60.354840732288174,34.04673345160829,3.017742036614409,0.5348048384515123,Right,Correct,0.0,0.0,-45,45,2008,2034,-0.89
"{'cat': 'RB', 'resp': 'reach'}",38,333,Left,48.17095439126857,64.37836963969706,2.4085477195634284,1.0112530655508023,Left,Correct,0.0,0.0,-45,45,2009,6350,-2.48
"{'cat': 'RB', 'resp': 'reach'}",38,334,Right,63.14697499592123,46.38249140872753,3.1573487497960615,0.7285744713242507,Right,Correct,0.0,0.0,-45,45,2008,1824,-0.94
"{'cat': 'RB', 'resp': 'reach'}",38,335,Left,47.05718739130491,39.869224996572854,2.3528593695652456,0.6262643217677591,Right,Incorrect,0.0,0.0,-45,45,2005,1401,-0.9
"{'cat': 'RB', 'resp': 'reach'}",38,336,Right,64.13835729927234,77.85050055053205,3.206917864963617,1.2228728030391982,Right,Correct,0.0,0.0,-45,45,2003,2451,-1.01
"{'cat': 'RB', 'resp': 'reach'}",38,337,Left,42.02561955018096,59.13190093881657,2.1012809775090484,0.9288417279109276,Left,Correct,0.0,0.0,-45,45,2003,3425,-2.21
"{'cat': 'RB', 'resp': 'reach'}",38,338,Left,40.5981168265769,57.484763673607816,2.029905841328845,0.9029685562517585,Right,Incorrect,0.0,0.0,-45,45,2010,3373,-0.91
"{'cat': 'RB', 'resp': 'reach'}",38,339,Right,61.23047880644458,9.256828106746696,3.061523940322229,0.14540591587849466,Right,Correct,0.0,0.0,-45,45,2012,1631,-0.99
"{'cat': 'RB', 'resp': 'reach'}",38,340,Right,62.79500475356532,62.44921829887889,3.1397502376782658,0.980950027150916,Right,Correct,0.0,0.0,-45,45,2003,4783,-0.97
"{'cat': 'RB', 'resp': 'reach'}",38,341,Right,58.829956440691845,23.90801467804319,2.941497822034592,0.37554621637228724,Right,Correct,0.0,0.0,-45,45,2012,5995,-0.94
"{'cat': 'RB', 'resp': 'reach'}",38,342,Right,64.15703194954568,86.6099998759218,3.2078515974772843,1.360466696688044,Right,Correct,0.0,0.0,-45,45,2012,2551,-0.98
"{'cat': 'RB', 'resp': 'reach'}",38,343,Right,64.94305259014693,29.226802255026016,3.2471526295073465,0.45909353626155663,Right,Correct,0.0,0.0,-45,45,2002,2177,-0.96
"{'cat': 'RB', 'resp': 'reach'}",38,344,Right,50.644719879218414,54.07213570527071,2.5322359939609207,0.8493631214779441,Right,Correct,0.0,0.0,-45,45,2002,2429,-0.91
"{'cat': 'RB', 'resp': 'reach'}",38,345,Left,46.96011032540655,45.09016466882989,2.348005516270328,0.7082746503637501,Right,Incorrect,0.0,0.0,-45,45,2002,2453,-1.03
"{'cat': 'RB', 'resp': 'reach'}",38,346,Left,39.63077783273194,11.02976860121732,1.981538891636597,0.1732552000418985,Right,Incorrect,0.0,0.0,-45,45,2005,2158,-0.87
"{'cat': 'RB', 'resp': 'reach'}",38,347,Left,38.451675998806344,84.51121829882834,1.922583799940317,1.327499112767612,Right,Incorrect,0.0,0.0,-45,45,2012,2900,-0.9
"{'cat': 'RB', 'resp': 'reach'}",38,348,Right,67.3762853291195,27.612551147642126,3.3688142664559746,0.4337369391615245,Right,Correct,0.0,0.0,-45,45,2002,5107,-0.94
"{'cat': 'RB', 'resp': 'reach'}",38,349,Left,38.5206652078118,29.03176201712482,1.9260332603905903,0.4560298513688327,Left,Correct,0.0,0.0,-45,45,2008,3843,-2.64
"{'cat': 'RB', 'resp': 'reach'}",38,350,Left,35.73851171616727,57.4532913610613,1.7869255858083632,0.9024741903223203,Left,Correct,0.0,0.0,-45,45,2002,3238,-2.57
"{'cat': 'RB', 'resp': 'reach'}",38,351,Left,35.08717771013211,25.524170750290907,1.7543588855066055,0.40093273659042694,Right,Incorrect,0.0,0.0,-45,45,2001,2620,-0.92
"{'cat': 'RB', 'resp': 'reach'}",38,352,Left,33.81250025720293,56.74996385464775,1.6906250128601465,0.8914263476862383,Right,Incorrect,0.0,0.0,-45,45,2006,2149,-0.89
"{'cat': 'RB', 'resp': 'reach'}",38,353,Left,39.40794031976306,81.64740669679158,1.9703970159881528,1.2825144653164924,Right,Incorrect,0.0,0.0,-45,45,2004,1502,-0.93
"{'cat': 'RB', 'resp': 'reach'}",38,354,Left,48.53956801291311,42.00339199978902,2.4269784006456554,0.6597877386619474,Right,Incorrect,0.0,0.0,-45,45,2005,2997,-0.89
"{'cat': 'RB', 'resp': 'reach'}",38,355,Left,31.196313344436994,44.07766340159355,1.5598156672218497,0.6923703176492499,Right,Incorrect,0.0,0.0,-45,45,2006,1146,-0.9
"{'cat': 'RB', 'resp': 'reach'}",38,356,Left,40.555140376262386,9.459438911803666,2.0277570188131193,0.14858851896201913,Right,Incorrect,0.0,0.0,-45,45,2004,1239,-0.94
"{'cat': 'RB', 'resp': 'reach'}",38,357,Left,33.81380024971798,30.73363085860495,1.690690012485899,0.4827627446176694,Left,Correct,0.0,0.0,-45,45,2007,1404,-2.56
"{'cat': 'RB', 'resp': 'reach'}",38,358,Right,63.71117676087919,84.22646294461583,3.1855588380439595,1.3230261861232901,Right,Correct,0.0,0.0,-45,45,2010,2195,-0.93
"{'cat': 'RB', 'resp': 'reach'}",38,359,Right,53.32921797385894,37.261303284024535,2.666460898692947,0.5852991833013635,Left,Incorrect,0.0,0.0,-45,45,2008,6407,-2.4
"{'cat': 'RB', 'resp': 'reach'}",38,360,Right,65.46982142936086,48.22717005754953,3.2734910714680434,0.757550615781116,Right,Correct,0.0,0.0,-45,45,2012,1316,-0.93
"{'cat': 'RB', 'resp': 'reach'}",38,361,Right,59.534446924182376,25.7005422350042,2.976722346209119,0.403703173393817,Right,Correct,0.0,0.0,-45,45,2012,2219,-0.91
"{'cat': 'RB', 'resp': 'reach'}",38,362,Left,32.768166216099395,45.421610298480275,1.6384083108049696,0.7134809861396206,Right,Incorrect,0.0,0.0,-45,45,2003,4673,-0.91
"{'cat': 'RB', 'resp': 'reach'}",38,363,Right,65.74895369006717,50.52872596300759,3.2874476845033587,0.7937033714031826,Right,Correct,0.0,0.0,-45,45,2008,2944,-0.94
"{'cat': 'RB', 'resp': 'reach'}",38,364,Right,60.04441736374699,28.43011369474319,3.0022208681873495,0.44657918162063887,Right,Correct,0.0,0.0,-45,45,2002,7727,-0.96
"{'cat': 'RB', 'resp': 'reach'}",38,365,Right,64.37861102154419,25.094749056397493,3.2189305510772095,0.3941873963962888,Right,Correct,0.0,0.0,-45,45,2004,2222,-0.98
"{'cat': 'RB', 'resp': 'reach'}",38,366,Right,63.513716371371984,80.23528701179917,3.175685818568599,1.260332941174684,Left,Incorrect,0.0,0.0,-45,45,2002,2066,-2.59
"{'cat': 'RB', 'resp': 'reach'}",38,367,Left,42.62214326161295,74.81864961281633,2.1311071630806477,1.175248599875663,Right,Incorrect,0.0,0.0,-45,45,2005,2455,-1.0
"{'cat': 'RB', 'resp': 'reach'}",38,368,Left,36.3452591800749,68.68567930899063,1.8172629590037448,1.078912127619747,Right,Incorrect,0.0,0.0,-45,45,2009,2931,-0.91
"{'cat': 'RB', 'resp': 'reach'}",38,369,Left,45.896780212264645,50.903822234533095,2.294839010613232,0.7995953698582496,Right,Incorrect,0.0,0.0,-45,45,2001,1450,-0.98
"{'cat': 'RB', 'resp': 'reach'}",38,370,Left,38.906038783144766,10.367099530737072,1.9453019391572384,0.16284601862398887,Right,Incorrect,0.0,0.0,-45,45,2008,2051,-0.94
"{'cat': 'RB', 'resp': 'reach'}",38,371,Right,55.56463337970249,33.18376740029217,2.7782316689851245,0.5212493994159517,Right,Correct,0.0,0.0,-45,45,2001,1973,-0.93
"{'cat': 'RB', 'resp': 'reach'}",38,372,Left,48.168462083253615,66.28302509285155,2.4084231041626807,1.0411713234470517,Right,Incorrect,0.0,0.0,-45,45,2004,1933,-0.92
"{'cat': 'RB', 'resp': 'reach'}",38,373,Right,56.116275283788625,50.62332588842373,2.8058137641894314,0.79518934355677,Right,Correct,0.0,0.0,-45,45,2003,2900,-0.93
"{'cat': 'RB', 'resp': 'reach'}",38,374,Right,67.57656380706781,43.83690770225754,3.3788281903533908,0.6885885359675306,Right,Correct,0.0,0.0,-45,45,2005,3662,-0.93
"{'cat': 'RB', 'resp': 'reach'}",38,375,Left,31.99252047057531,42.02893547949484,1.5996260235287656,0.6601889747029019,Right,Incorrect,0.0,0.0,-45,45,2004,3701,-0.91
"{'cat': 'RB', 'resp': 'reach'}",38,376,Left,36.478966645793875,38.267038383767826,1.8239483322896939,0.6010972333054181,Right,Incorrect,0.0,0.0,-45,45,2007,2175,-0.9
"{'cat': 'RB', 'resp': 'reach'}",38,377,Right,65.73926436541127,80.35616564615862,3.2869632182705635,1.2622316983230824,Right,Correct,0.0,0.0,-45,45,2008,6332,-0.84
"{'cat': 'RB', 'resp': 'reach'}",38,378,Right,58.563782167432,14.854844723344804,2.9281891083716,0.23333935526538568,Right,Correct,0.0,0.0,-45,45,2009,2855,-0.92
"{'cat': 'RB', 'resp': 'reach'}",38,379,Left,34.982894165176845,16.15161102652585,1.7491447082588423,0.25370891272286755,Left,Correct,0.0,0.0,-45,45,2012,1367,-2.49
"{'cat': 'RB', 'resp': 'reach'}",38,380,Left,34.03157039493221,62.06237958729649,1.7015785197466105,0.9748735788787589,Left,Correct,0.0,0.0,-45,45,2003,1477,-2.52
"{'cat': 'RB', 'resp': 'reach'}",38,381,Right,52.49040236565715,50.381043056881424,2.6245201182828573,0.7913835737384487,Left,Incorrect,0.0,0.0,-45,45,2007,2187,-2.59
"{'cat': 'RB', 'resp': 'reach'}",38,382,Right,57.44709164770486,18.290761761905415,2.872354582385243,0.2873106138988158,Right,Correct,0.0,0.0,-45,45,2005,2225,-0.92
"{'cat': 'RB', 'resp': 'reach'}",38,383,Right,66.3696933023994,64.0982675567063,3.31848466511997,1.0068532323199075,Right,Correct,0.0,0.0,-45,45,2008,2457,-0.98
"{'cat': 'RB', 'resp': 'reach'}",38,384,Left,35.71653484952129,31.012118899315812,1.7858267424760643,0.48713722453171876,Right,Incorrect,0.0,0.0,-45,45,2003,2457,-0.92
"{'cat': 'RB', 'resp': 'reach'}",38,385,Right,52.97465740016516,49.26617676091792,2.6487328700082577,0.7738712949127797,Right,Correct,0.0,0.0,-45,45,2012,2656,-0.98
"{'cat': 'RB', 'resp': 'reach'}",38,386,Left,43.087372192033804,59.70130265203638,2.1543686096016903,0.9377858691068917,Left,Correct,0.0,0.0,-45,45,2007,2624,-2.73
"{'cat': 'RB', 'resp': 'reach'}",38,387,Right,60.02508230966483,53.3212693748296,3.0012541154832415,0.8375685407402355,Right,Correct,0.0,0.0,-45,45,2003,3083,-0.86
"{'cat': 'RB', 'resp': 'reach'}",38,388,Left,31.9835337520038,66.47722533139468,1.59917668760019,1.044221813660714,Right,Incorrect,0.0,0.0,-45,45,2003,3883,-0.92
"{'cat': 'RB', 'resp': 'reach'}",38,389,Right,56.79381274974644,25.97326877339747,2.839690637487322,0.40798715184109335,Right,Correct,0.0,0.0,-45,45,2009,1562,-0.97
"{'cat': 'RB', 'resp': 'reach'}",38,390,Left,36.06447312089711,35.59741640418568,1.8032236560448556,0.5591629093108327,Right,Incorrect,0.0,0.0,-45,45,2004,1939,-1.03
"{'cat': 'RB', 'resp': 'reach'}",38,391,Left,45.96766042398433,28.521213193288524,2.2983830211992164,0.44801016919751757,Right,Incorrect,0.0,0.0,-45,45,2005,2684,-0.93
"{'cat': 'RB', 'resp': 'reach'}",38,392,Left,45.68124373306446,79.68697179263079,2.284062186653223,1.2517200258527295,Right,Incorrect,0.0,0.0,-45,45,2007,2319,-1.04
"{'cat': 'RB', 'resp': 'reach'}",38,393,Left,44.8374928697637,28.534235817882628,2.241874643488185,0.448214728106294,Right,Incorrect,0.0,0.0,-45,45,2005,2364,-0.89
"{'cat': 'RB', 'resp': 'reach'}",38,394,Right,63.36947216088737,64.93296487613844,3.1684736080443683,1.0199646271534029,Right,Correct,0.0,0.0,-45,45,2008,2105,-0.92
"{'cat': 'RB', 'resp': 'reach'}",38,395,Left,41.71106567595164,9.828389899570098,2.085553283797582,0.15438398752552773,Left,Correct,0.0,0.0,-45,45,2002,5885,-2.51
"{'cat': 'RB', 'resp': 'reach'}",38,396,Left,38.17900522042875,36.69999142349521,1.9089502610214373,0.5764821172143049,Right,Incorrect,0.0,0.0,-45,45,2004,3391,-0.91
"{'cat': 'RB', 'resp': 'reach'}",38,397,Right,55.1379420432577,29.22458987443627,2.756897102162885,0.45905878426851815,Right,Correct,0.0,0.0,-45,45,2006,3290,-0.97
"{'cat': 'RB', 'resp': 'reach'}",38,398,Left,48.318364702897505,34.124127143776725,2.415918235144875,0.5360205357252651,Left,Correct,0.0,0.0,-45,45,2004,3153,-2.53
"{'cat': 'RB', 'resp': 'reach'}",38,399,Right,57.06615957005153,73.5291445127906,2.853307978502577,1.1549931011306258,Right,Correct,0.0,0.0,-45,45,2005,1416,-0.97
