condition,subject,trial,cat,x,y,xt,yt,resp,fb,rotation,su,target_angle_left,target_angle_right,rt,mt,ep
"{'cat': 'II', 'resp': 'button'}",59,0,Left,54.64314350061879,82.95282917255481,2.73215717503094,1.3030199936149365,Right,Incorrect,0.0,0.0,-45,45,3455,-1,-1
"{'cat': 'II', 'resp': 'button'}",59,1,Left,31.922207269860646,41.65566006771036,1.5961103634930323,0.6543255782457628,Left,Correct,0.0,0.0,-45,45,2127,-1,-1
"{'cat': 'II', 'resp': 'button'}",59,2,Left,41.20505327876508,50.89268520894209,2.060252663938254,0.7994204298693519,Left,Correct,0.0,0.0,-45,45,1100,-1,-1
"{'cat': 'II', 'resp': 'button'}",59,3,Right,61.17041696371033,38.552203646485005,3.0585208481855166,0.6055765987774747,Left,Incorrect,0.0,0.0,-45,45,1819,-1,-1
"{'cat': 'II', 'resp': 'button'}",59,4,Left,63.399912395821005,87.86338936256132,3.16999561979105,1.3801548927046112,Left,Correct,0.0,0.0,-45,45,1418,-1,-1
"{'cat': 'II', 'resp': 'button'}",59,5,Right,49.115295786558534,23.42765404317272,2.455764789327927,0.36800072916437315,Right,Correct,0.0,0.0,-45,45,1598,-1,-1
"{'cat': 'II', 'resp': 'button'}",59,6,Left,14.690772267648626,42.62988075486128,0.7345386133824313,0.6696286010144056,Left,Correct,0.0,0.0,-45,45,2788,-1,-1
"{'cat': 'II', 'resp': 'button'}",59,7,Right,68.75567585803681,41.61459492649586,3.43778379290184,0.6536805285159722,Left,Incorrect,0.0,0.0,-45,45,4028,-1,-1
"{'cat': 'II', 'resp': 'button'}",59,8,Right,77.41259612418483,59.130548201478135,3.8706298062092412,0.9288204791625044,Right,Correct,0.0,0.0,-45,45,2458,-1,-1
"{'cat': 'II', 'resp': 'button'}",59,9,Left,43.898617670773554,68.20358081454877,2.1949308835386776,1.071339342177521,Left,Correct,0.0,0.0,-45,45,1163,-1,-1
"{'cat': 'II', 'resp': 'button'}",59,10,Left,54.99274490199553,82.39404404421028,2.7496372450997764,1.2942426173442243,Right,Incorrect,0.0,0.0,-45,45,1180,-1,-1
"{'cat': 'II', 'resp': 'button'}",59,11,Left,68.45842259813503,84.75008312272497,3.4229211299067517,1.3312511926473856,Right,Incorrect,0.0,0.0,-45,45,3927,-1,-1
"{'cat': 'II', 'resp': 'button'}",59,12,Right,51.19493770601861,41.47515559522018,2.5597468853009304,0.6514902206221866,Left,Incorrect,0.0,0.0,-45,45,2558,-1,-1
"{'cat': 'II', 'resp': 'button'}",59,13,Right,36.43812388470165,18.406276858684905,1.8219061942350827,0.28912512079592156,Left,Incorrect,0.0,0.0,-45,45,1855,-1,-1
"{'cat': 'II', 'resp': 'button'}",59,14,Left,19.875378404224495,34.0097474827317,0.9937689202112248,0.5342238642109692,Right,Incorrect,0.0,0.0,-45,45,2131,-1,-1
"{'cat': 'II', 'resp': 'button'}",59,15,Right,42.56743537490047,23.786000686864615,2.1283717687450237,0.37362962508067826,Left,Incorrect,0.0,0.0,-45,45,1510,-1,-1
"{'cat': 'II', 'resp': 'button'}",59,16,Left,23.308699648224316,36.18248134713116,1.1654349824112158,0.5683530879439849,Right,Incorrect,0.0,0.0,-45,45,1329,-1,-1
"{'cat': 'II', 'resp': 'button'}",59,17,Right,80.11049696040592,60.16829180824924,4.005524848020297,0.9451213176192136,Left,Incorrect,0.0,0.0,-45,45,1259,-1,-1
"{'cat': 'II', 'resp': 'button'}",59,18,Right,73.0153658505144,54.9337675147573,3.65076829252572,0.8628976022918556,Right,Correct,0.0,0.0,-45,45,1298,-1,-1
"{'cat': 'II', 'resp': 'button'}",59,19,Right,56.86271288613416,30.108799222216998,2.8431356443067077,0.472947912224635,Right,Correct,0.0,0.0,-45,45,2337,-1,-1
"{'cat': 'II', 'resp': 'button'}",59,20,Right,51.60933905536959,30.789074153838932,2.580466952768479,0.4836336458626589,Left,Incorrect,0.0,0.0,-45,45,2255,-1,-1
"{'cat': 'II', 'resp': 'button'}",59,21,Right,34.75175377220157,18.32843192968978,1.7375876886100783,0.28790233551067007,Left,Incorrect,0.0,0.0,-45,45,1247,-1,-1
"{'cat': 'II', 'resp': 'button'}",59,22,Left,38.536878468932564,65.67154394615896,1.9268439234466284,1.0315662000557613,Left,Correct,0.0,0.0,-45,45,1388,-1,-1
"{'cat': 'II', 'resp': 'button'}",59,23,Right,70.31042050636059,41.07814815719172,3.515521025318029,0.645254042368533,Right,Correct,0.0,0.0,-45,45,3921,-1,-1
"{'cat': 'II', 'resp': 'button'}",59,24,Left,53.06339882446838,67.68532033125209,2.653169941223419,1.063198525542667,Left,Correct,0.0,0.0,-45,45,1406,-1,-1
"{'cat': 'II', 'resp': 'button'}",59,25,Left,59.230282526188226,76.49747237513918,2.9615141263094116,1.201619486159627,Left,Correct,0.0,0.0,-45,45,1042,-1,-1
"{'cat': 'II', 'resp': 'button'}",59,26,Right,55.230972581992795,45.04551516929553,2.76154862909964,0.7075732976651321,Left,Incorrect,0.0,0.0,-45,45,2766,-1,-1
"{'cat': 'II', 'resp': 'button'}",59,27,Left,57.9606928780419,74.3401256444963,2.8980346439020948,1.1677319629584588,Left,Correct,0.0,0.0,-45,45,1057,-1,-1
"{'cat': 'II', 'resp': 'button'}",59,28,Right,70.53771281786678,38.009529058394094,3.526885640893339,0.5970522862812933,Right,Correct,0.0,0.0,-45,45,1608,-1,-1
"{'cat': 'II', 'resp': 'button'}",59,29,Right,77.35320692270544,48.33019173572004,3.8676603461352723,0.7591688765176211,Left,Incorrect,0.0,0.0,-45,45,2723,-1,-1
"{'cat': 'II', 'resp': 'button'}",59,30,Right,56.757549577573144,27.729740019793915,2.8378774788786574,0.4355777376606973,Left,Incorrect,0.0,0.0,-45,45,1174,-1,-1
"{'cat': 'II', 'resp': 'button'}",59,31,Right,75.69071593562897,60.09979885453843,3.784535796781449,0.9440454328182109,Left,Incorrect,0.0,0.0,-45,45,1400,-1,-1
"{'cat': 'II', 'resp': 'button'}",59,32,Right,85.4589430064776,56.53267117895692,4.27294715032388,0.8880131223180924,Right,Correct,0.0,0.0,-45,45,836,-1,-1
"{'cat': 'II', 'resp': 'button'}",59,33,Right,45.57986962084177,34.119251155108,2.2789934810420887,0.5359439438743618,Left,Incorrect,0.0,0.0,-45,45,771,-1,-1
"{'cat': 'II', 'resp': 'button'}",59,34,Left,12.125631944173971,38.56466816732964,0.6062815972086986,0.6057723910130548,Left,Correct,0.0,0.0,-45,45,917,-1,-1
"{'cat': 'II', 'resp': 'button'}",59,35,Left,51.30684734189546,80.3546628349058,2.5653423670947735,1.2622080922191241,Left,Correct,0.0,0.0,-45,45,1030,-1,-1
"{'cat': 'II', 'resp': 'button'}",59,36,Left,25.293231368408545,50.43213928599266,1.2646615684204272,0.7921861914284588,Left,Correct,0.0,0.0,-45,45,3176,-1,-1
"{'cat': 'II', 'resp': 'button'}",59,37,Right,54.21712322817392,34.853357015210484,2.710856161408696,0.5474752517596377,Right,Correct,0.0,0.0,-45,45,1141,-1,-1
"{'cat': 'II', 'resp': 'button'}",59,38,Right,71.21299023555186,41.34986399971947,3.5606495117775925,0.6495221448422787,Right,Correct,0.0,0.0,-45,45,2215,-1,-1
"{'cat': 'II', 'resp': 'button'}",59,39,Left,16.717439298928568,46.6773743846159,0.8358719649464283,0.7332064822778487,Left,Correct,0.0,0.0,-45,45,1040,-1,-1
"{'cat': 'II', 'resp': 'button'}",59,40,Right,75.26875782918363,45.74900518481843,3.7634378914591817,0.7186236929883347,Left,Incorrect,0.0,0.0,-45,45,1070,-1,-1
"{'cat': 'II', 'resp': 'button'}",59,41,Right,64.28458702202637,48.87275056842403,3.2142293511013182,0.7676913707324367,Right,Correct,0.0,0.0,-45,45,432,-1,-1
"{'cat': 'II', 'resp': 'button'}",59,42,Right,61.59265053321953,33.06979938525922,3.0796325266609768,0.5194591940220932,Left,Incorrect,0.0,0.0,-45,45,863,-1,-1
"{'cat': 'II', 'resp': 'button'}",59,43,Left,42.5789505032331,68.88396555798529,2.128947525161655,1.0820268007354947,Right,Incorrect,0.0,0.0,-45,45,434,-1,-1
"{'cat': 'II', 'resp': 'button'}",59,44,Right,33.316162185802796,16.946199830898863,1.6658081092901398,0.2661902844750823,Left,Incorrect,0.0,0.0,-45,45,340,-1,-1
"{'cat': 'II', 'resp': 'button'}",59,45,Right,86.62682817764299,67.0598743428771,4.33134140888215,1.0533740429311866,Right,Correct,0.0,0.0,-45,45,2126,-1,-1
"{'cat': 'II', 'resp': 'button'}",59,46,Right,54.9098965771417,23.77066213925712,2.745494828857085,0.373388687738276,Left,Incorrect,0.0,0.0,-45,45,1469,-1,-1
"{'cat': 'II', 'resp': 'button'}",59,47,Right,71.22572665358696,51.06933566012646,3.561286332679348,0.8021952486678227,Right,Correct,0.0,0.0,-45,45,1888,-1,-1
"{'cat': 'II', 'resp': 'button'}",59,48,Right,59.702330125131226,36.00645297702526,2.985116506256561,0.5655880407722444,Right,Correct,0.0,0.0,-45,45,1064,-1,-1
"{'cat': 'II', 'resp': 'button'}",59,49,Left,40.98246888997296,61.24724194545659,2.049123444498648,0.9620694267424152,Right,Incorrect,0.0,0.0,-45,45,1073,-1,-1
"{'cat': 'II', 'resp': 'button'}",59,50,Right,44.832105869365435,31.660492270065724,2.2416052934682718,0.49732184962337456,Right,Correct,0.0,0.0,-45,45,841,-1,-1
"{'cat': 'II', 'resp': 'button'}",59,51,Right,79.65439493454002,64.16726272045567,3.9827197467270015,1.0079370058177486,Left,Incorrect,0.0,0.0,-45,45,630,-1,-1
"{'cat': 'II', 'resp': 'button'}",59,52,Left,46.25315208459379,55.78429146607372,2.31265760422969,0.876257601277645,Right,Incorrect,0.0,0.0,-45,45,935,-1,-1
"{'cat': 'II', 'resp': 'button'}",59,53,Left,38.49197947559427,70.43278226224028,1.9245989737797133,1.1063555566347176,Left,Correct,0.0,0.0,-45,45,2194,-1,-1
"{'cat': 'II', 'resp': 'button'}",59,54,Left,45.36909525904209,52.298118321614545,2.268454762952105,0.82149692157877,Left,Correct,0.0,0.0,-45,45,2310,-1,-1
"{'cat': 'II', 'resp': 'button'}",59,55,Left,45.75032697522411,64.50412426948917,2.287516348761206,1.0132284146563513,Left,Correct,0.0,0.0,-45,45,1382,-1,-1
"{'cat': 'II', 'resp': 'button'}",59,56,Left,28.839661776509857,38.777056647391234,1.4419830888254928,0.6091085814563978,Left,Correct,0.0,0.0,-45,45,942,-1,-1
"{'cat': 'II', 'resp': 'button'}",59,57,Left,26.870362266666234,59.34370617772151,1.3435181133333116,0.9321687568236057,Left,Correct,0.0,0.0,-45,45,1124,-1,-1
"{'cat': 'II', 'resp': 'button'}",59,58,Right,67.35402009759004,52.273840852181046,3.3677010048795015,0.8211155719806699,Left,Incorrect,0.0,0.0,-45,45,1069,-1,-1
"{'cat': 'II', 'resp': 'button'}",59,59,Left,28.989913544691838,45.48224046258517,1.4494956772345917,0.71443336253031,Left,Correct,0.0,0.0,-45,45,1164,-1,-1
"{'cat': 'II', 'resp': 'button'}",59,60,Right,75.03882348594593,49.90121312713115,3.7519411742972966,0.7838464228270687,Left,Incorrect,0.0,0.0,-45,45,1290,-1,-1
"{'cat': 'II', 'resp': 'button'}",59,61,Right,67.23502873534606,39.56167380135037,3.361751436767303,0.6214333188901906,Right,Correct,0.0,0.0,-45,45,386,-1,-1
"{'cat': 'II', 'resp': 'button'}",59,62,Left,15.135118810312377,33.422859740320206,0.7567559405156189,0.5250050531107601,Left,Correct,0.0,0.0,-45,45,1238,-1,-1
"{'cat': 'II', 'resp': 'button'}",59,63,Left,30.685724386234376,63.50449104561185,1.5342862193117188,0.997526212694265,Right,Incorrect,0.0,0.0,-45,45,1484,-1,-1
"{'cat': 'II', 'resp': 'button'}",59,64,Right,60.6889552071707,32.033280456789164,3.0344477603585354,0.5031775927671517,Left,Incorrect,0.0,0.0,-45,45,887,-1,-1
"{'cat': 'II', 'resp': 'button'}",59,65,Right,44.628598279754435,34.844149135442976,2.231429913987722,0.547330614722474,Left,Incorrect,0.0,0.0,-45,45,457,-1,-1
"{'cat': 'II', 'resp': 'button'}",59,66,Left,68.01599606061376,83.69332693584887,3.400799803030688,1.314651705280758,Right,Incorrect,0.0,0.0,-45,45,1677,-1,-1
"{'cat': 'II', 'resp': 'button'}",59,67,Right,54.17130015310936,37.89858589054681,2.708565007655468,0.5953095950759183,Left,Incorrect,0.0,0.0,-45,45,466,-1,-1
"{'cat': 'II', 'resp': 'button'}",59,68,Right,63.11115612470414,32.11636126362988,3.155557806235207,0.5044826230292772,Right,Correct,0.0,0.0,-45,45,830,-1,-1
"{'cat': 'II', 'resp': 'button'}",59,69,Right,62.186536826718495,38.97569044612115,3.1093268413359247,0.6122287138706205,Right,Correct,0.0,0.0,-45,45,1450,-1,-1
"{'cat': 'II', 'resp': 'button'}",59,70,Right,53.067405637403134,36.917571933054184,2.6533702818701568,0.5798998638662788,Right,Correct,0.0,0.0,-45,45,1335,-1,-1
"{'cat': 'II', 'resp': 'button'}",59,71,Left,25.552268319182044,40.79636899245888,1.2776134159591022,0.6408278655992362,Left,Correct,0.0,0.0,-45,45,1610,-1,-1
"{'cat': 'II', 'resp': 'button'}",59,72,Right,52.07859740565816,34.23221964331284,2.603929870282908,0.5377184487375192,Left,Incorrect,0.0,0.0,-45,45,2195,-1,-1
"{'cat': 'II', 'resp': 'button'}",59,73,Right,32.23022237431072,11.082127522810971,1.6115111187155362,0.174077652059041,Left,Incorrect,0.0,0.0,-45,45,1525,-1,-1
"{'cat': 'II', 'resp': 'button'}",59,74,Left,37.1721157313583,59.045401020651006,1.858605786567915,0.9274829903737023,Left,Correct,0.0,0.0,-45,45,1699,-1,-1
"{'cat': 'II', 'resp': 'button'}",59,75,Left,23.76172008976913,44.04245765065297,1.1880860044884565,0.6918173070066547,Right,Incorrect,0.0,0.0,-45,45,2076,-1,-1
"{'cat': 'II', 'resp': 'button'}",59,76,Left,34.21225535898664,52.33864604777527,1.7106127679493317,0.8221335296126363,Left,Correct,0.0,0.0,-45,45,2386,-1,-1
"{'cat': 'II', 'resp': 'button'}",59,77,Left,63.86235924205067,73.90513584576013,3.1931179621025336,1.1608991591779785,Right,Incorrect,0.0,0.0,-45,45,897,-1,-1
"{'cat': 'II', 'resp': 'button'}",59,78,Right,85.18351276339307,59.753808985678546,4.259175638169654,0.9386106366670773,Left,Incorrect,0.0,0.0,-45,45,854,-1,-1
"{'cat': 'II', 'resp': 'button'}",59,79,Left,55.22433783096902,84.91769853383738,2.761216891548451,1.3338840893682813,Right,Incorrect,0.0,0.0,-45,45,1513,-1,-1
"{'cat': 'II', 'resp': 'button'}",59,80,Right,72.57023555076114,47.80692650099813,3.628511777538057,0.7509494454312146,Left,Incorrect,0.0,0.0,-45,45,1393,-1,-1
"{'cat': 'II', 'resp': 'button'}",59,81,Right,36.38998872507123,11.643691556551389,1.8194994362535613,0.1828986792736367,Left,Incorrect,0.0,0.0,-45,45,1432,-1,-1
"{'cat': 'II', 'resp': 'button'}",59,82,Right,79.41135608197773,64.30361121637759,3.970567804098886,1.0100787629833303,Right,Correct,0.0,0.0,-45,45,2461,-1,-1
"{'cat': 'II', 'resp': 'button'}",59,83,Right,51.60710386306157,27.927391425146467,2.5803551931530784,0.4386824386758336,Right,Correct,0.0,0.0,-45,45,1480,-1,-1
"{'cat': 'II', 'resp': 'button'}",59,84,Right,75.7101646624907,54.188724236261386,3.785508233124535,0.8511944898402098,Right,Correct,0.0,0.0,-45,45,1376,-1,-1
"{'cat': 'II', 'resp': 'button'}",59,85,Right,59.03410373687344,50.49882919205057,2.951705186843672,0.7932337540231594,Right,Correct,0.0,0.0,-45,45,1952,-1,-1
"{'cat': 'II', 'resp': 'button'}",59,86,Left,33.73975451017711,43.12476778456578,1.6869877255088555,0.6774022682987882,Left,Correct,0.0,0.0,-45,45,1196,-1,-1
"{'cat': 'II', 'resp': 'button'}",59,87,Left,46.385705434404485,73.6915698110858,2.3192852717202244,1.1575444717500327,Right,Incorrect,0.0,0.0,-45,45,5505,-1,-1
"{'cat': 'II', 'resp': 'button'}",59,88,Right,53.926086230367,43.003833903764416,2.6963043115183503,0.6755026433413098,Left,Incorrect,0.0,0.0,-45,45,1258,-1,-1
"{'cat': 'II', 'resp': 'button'}",59,89,Right,59.28717126428597,41.284968188728556,2.9643585632142986,0.6485027638269897,Right,Correct,0.0,0.0,-45,45,1086,-1,-1
"{'cat': 'II', 'resp': 'button'}",59,90,Left,55.96861171860757,79.48201604944656,2.798430585930378,1.2485005885672367,Left,Correct,0.0,0.0,-45,45,1757,-1,-1
"{'cat': 'II', 'resp': 'button'}",59,91,Left,41.26514786915797,67.32920976715128,2.0632573934578984,1.0576047538824431,Right,Incorrect,0.0,0.0,-45,45,952,-1,-1
"{'cat': 'II', 'resp': 'button'}",59,92,Right,71.10998662401921,52.84304344931358,3.5554993312009606,0.8300565854684488,Left,Incorrect,0.0,0.0,-45,45,1375,-1,-1
"{'cat': 'II', 'resp': 'button'}",59,93,Right,39.29671843685766,17.899669206711483,1.9648359218428828,0.28116734640746116,Left,Incorrect,0.0,0.0,-45,45,1964,-1,-1
"{'cat': 'II', 'resp': 'button'}",59,94,Right,78.27421940264142,46.74891214051171,3.9137109701320707,0.7343301947197315,Right,Correct,0.0,0.0,-45,45,562,-1,-1
"{'cat': 'II', 'resp': 'button'}",59,95,Right,85.99626213985619,58.53279234932486,4.29981310699281,0.9194309521936792,Left,Incorrect,0.0,0.0,-45,45,842,-1,-1
"{'cat': 'II', 'resp': 'button'}",59,96,Right,77.28763925654872,54.96297057979923,3.8643819628274354,0.8633563229648461,Right,Correct,0.0,0.0,-45,45,2020,-1,-1
"{'cat': 'II', 'resp': 'button'}",59,97,Right,41.712073368666196,20.179246106171195,2.08560366843331,0.31697485661063934,Right,Correct,0.0,0.0,-45,45,2283,-1,-1
"{'cat': 'II', 'resp': 'button'}",59,98,Right,69.79182391783625,37.01646229875598,3.489591195891813,0.5814532300982767,Left,Incorrect,0.0,0.0,-45,45,2055,-1,-1
"{'cat': 'II', 'resp': 'button'}",59,99,Right,47.85789719112713,21.800222477679807,2.3928948595563564,0.34243709391250976,Right,Correct,0.0,0.0,-45,45,715,-1,-1
"{'cat': 'II', 'resp': 'button'}",59,100,Right,61.49126077340405,42.77975817903022,3.0745630386702025,0.671982870087946,Right,Correct,0.0,0.0,-45,45,735,-1,-1
"{'cat': 'II', 'resp': 'button'}",59,101,Left,31.28266452675733,61.890760991364964,1.5641332263378667,0.9721778002777697,Right,Incorrect,0.0,0.0,-45,45,835,-1,-1
"{'cat': 'II', 'resp': 'button'}",59,102,Left,58.89841611353605,86.11728654188057,2.944920805676803,1.352727173735296,Left,Correct,0.0,0.0,-45,45,4990,-1,-1
"{'cat': 'II', 'resp': 'button'}",59,103,Right,68.56522633762187,51.360790767837955,3.4282613168810934,0.806773414794011,Right,Correct,0.0,0.0,-45,45,872,-1,-1
"{'cat': 'II', 'resp': 'button'}",59,104,Right,73.70924699938354,63.01727965935195,3.685462349969177,0.989873114135168,Left,Incorrect,0.0,0.0,-45,45,388,-1,-1
"{'cat': 'II', 'resp': 'button'}",59,105,Right,50.97553162065209,41.010355082064194,2.5487765810326044,0.6441891512346085,Right,Correct,0.0,0.0,-45,45,607,-1,-1
"{'cat': 'II', 'resp': 'button'}",59,106,Right,46.894420417469604,33.98673369140511,2.34472102087348,0.533862364422155,Left,Incorrect,0.0,0.0,-45,45,554,-1,-1
"{'cat': 'II', 'resp': 'button'}",59,107,Right,63.21620264939852,32.19074470280412,3.160810132469926,0.5056510353595699,Right,Correct,0.0,0.0,-45,45,865,-1,-1
"{'cat': 'II', 'resp': 'button'}",59,108,Left,54.242884304301256,65.98551818311036,2.7121442152150625,1.036498095836876,Left,Correct,0.0,0.0,-45,45,1112,-1,-1
"{'cat': 'II', 'resp': 'button'}",59,109,Left,46.70538262002281,72.43678803823502,2.3352691310011404,1.1378344057528007,Left,Correct,0.0,0.0,-45,45,3067,-1,-1
"{'cat': 'II', 'resp': 'button'}",59,110,Right,35.7654341840139,16.195799785855815,1.7882717092006948,0.25440302813127885,Right,Correct,0.0,0.0,-45,45,2362,-1,-1
"{'cat': 'II', 'resp': 'button'}",59,111,Right,49.37829922789367,41.84023863370196,2.4689149613946837,0.6572249315804096,Left,Incorrect,0.0,0.0,-45,45,1559,-1,-1
"{'cat': 'II', 'resp': 'button'}",59,112,Left,13.304901304382547,36.46319275801528,0.6652450652191274,0.5727624924750468,Left,Correct,0.0,0.0,-45,45,1364,-1,-1
"{'cat': 'II', 'resp': 'button'}",59,113,Left,30.51542180843972,58.441101494684354,1.525771090421986,0.9179906756169791,Left,Correct,0.0,0.0,-45,45,1213,-1,-1
"{'cat': 'II', 'resp': 'button'}",59,114,Right,50.28030406964264,33.75033521672365,2.5140152034821317,0.5301490258652595,Left,Incorrect,0.0,0.0,-45,45,1151,-1,-1
"{'cat': 'II', 'resp': 'button'}",59,115,Left,29.510048781249097,46.758599937022545,1.475502439062455,0.7344823702714709,Left,Correct,0.0,0.0,-45,45,2203,-1,-1
"{'cat': 'II', 'resp': 'button'}",59,116,Right,58.651099819281704,48.92787162815327,2.932554990964085,0.7685572103139537,Right,Correct,0.0,0.0,-45,45,1598,-1,-1
"{'cat': 'II', 'resp': 'button'}",59,117,Left,52.479169262275256,61.34076841438225,2.6239584631137625,0.9635385370808803,Right,Incorrect,0.0,0.0,-45,45,1193,-1,-1
"{'cat': 'II', 'resp': 'button'}",59,118,Left,37.13117405923328,55.40722649892228,1.856558702961664,0.8703346786239998,Left,Correct,0.0,0.0,-45,45,998,-1,-1
"{'cat': 'II', 'resp': 'button'}",59,119,Left,44.882206148322794,71.10896727969693,2.2441103074161397,1.1169770460512642,Right,Incorrect,0.0,0.0,-45,45,665,-1,-1
"{'cat': 'II', 'resp': 'button'}",59,120,Left,50.29808896346517,65.71937046943954,2.5149044481732585,1.0323174573266864,Left,Correct,0.0,0.0,-45,45,496,-1,-1
"{'cat': 'II', 'resp': 'button'}",59,121,Right,35.96076643464972,23.65760153481579,1.798038321732486,0.3716127359166595,Left,Incorrect,0.0,0.0,-45,45,268,-1,-1
"{'cat': 'II', 'resp': 'button'}",59,122,Right,35.981654803993166,13.153110512126155,1.7990827401996583,0.20660857678375102,Left,Incorrect,0.0,0.0,-45,45,1914,-1,-1
"{'cat': 'II', 'resp': 'button'}",59,123,Right,64.60904215883167,46.31207987571762,3.2304521079415838,0.7274684495500908,Right,Correct,0.0,0.0,-45,45,2810,-1,-1
"{'cat': 'II', 'resp': 'button'}",59,124,Right,36.50740866635889,15.221018486851094,1.8253704333179446,0.2390911992922291,Right,Correct,0.0,0.0,-45,45,1436,-1,-1
"{'cat': 'II', 'resp': 'button'}",59,125,Left,49.116260094834495,60.438079508621264,2.455813004741725,0.949359132906802,Left,Correct,0.0,0.0,-45,45,963,-1,-1
"{'cat': 'II', 'resp': 'button'}",59,126,Left,25.589625465697242,57.89132991590397,1.2794812732848622,0.9093548838517346,Left,Correct,0.0,0.0,-45,45,2392,-1,-1
"{'cat': 'II', 'resp': 'button'}",59,127,Right,52.96884444352063,25.27828766534286,2.6484422221760315,0.397070414123853,Right,Correct,0.0,0.0,-45,45,1367,-1,-1
"{'cat': 'II', 'resp': 'button'}",59,128,Left,57.43018039006081,72.95336255420207,2.8715090195030406,1.1459487392747696,Left,Correct,0.0,0.0,-45,45,702,-1,-1
"{'cat': 'II', 'resp': 'button'}",59,129,Left,18.833020137492593,34.62718844272568,0.9416510068746297,0.543922604130682,Left,Correct,0.0,0.0,-45,45,720,-1,-1
"{'cat': 'II', 'resp': 'button'}",59,130,Left,24.86380255930364,48.19600732217939,1.243190127965182,0.7570611126785932,Left,Correct,0.0,0.0,-45,45,1030,-1,-1
"{'cat': 'II', 'resp': 'button'}",59,131,Left,63.454967873732244,77.63009816607172,3.172748393686612,1.2194107304799269,Right,Incorrect,0.0,0.0,-45,45,820,-1,-1
"{'cat': 'II', 'resp': 'button'}",59,132,Left,48.890709963473114,60.15742361248177,2.444535498173656,0.9449506003993093,Left,Correct,0.0,0.0,-45,45,1002,-1,-1
"{'cat': 'II', 'resp': 'button'}",59,133,Left,64.48832656799263,83.31406692821541,3.2244163283996317,1.3086943030118494,Left,Correct,0.0,0.0,-45,45,3139,-1,-1
"{'cat': 'II', 'resp': 'button'}",59,134,Right,83.34366961930472,62.940828097805664,4.167183480965236,0.9886722158146215,Left,Incorrect,0.0,0.0,-45,45,1063,-1,-1
"{'cat': 'II', 'resp': 'button'}",59,135,Left,19.34154745952753,45.950621949161196,0.9670773729763765,0.7217906817168337,Left,Correct,0.0,0.0,-45,45,946,-1,-1
"{'cat': 'II', 'resp': 'button'}",59,136,Right,58.72294708196048,51.633698997818065,2.936147354098024,0.8110602472460594,Right,Correct,0.0,0.0,-45,45,2314,-1,-1
"{'cat': 'II', 'resp': 'button'}",59,137,Left,68.83642868603984,82.38257703716407,3.4418214343019917,1.2940624940187493,Left,Correct,0.0,0.0,-45,45,1593,-1,-1
"{'cat': 'II', 'resp': 'button'}",59,138,Left,19.15315984449716,32.15198835132938,0.9576579922248581,0.5050422520142048,Left,Correct,0.0,0.0,-45,45,1049,-1,-1
"{'cat': 'II', 'resp': 'button'}",59,139,Left,65.95070084548325,84.25213023126678,3.2975350422741627,1.3234293669191908,Left,Correct,0.0,0.0,-45,45,1129,-1,-1
"{'cat': 'II', 'resp': 'button'}",59,140,Left,39.463494990470394,49.15028793663204,1.9731747495235197,0.7720509175177312,Left,Correct,0.0,0.0,-45,45,844,-1,-1
"{'cat': 'II', 'resp': 'button'}",59,141,Right,56.31425117647002,33.1778601406652,2.815712558823501,0.5211566083987171,Left,Incorrect,0.0,0.0,-45,45,848,-1,-1
"{'cat': 'II', 'resp': 'button'}",59,142,Left,21.74294041350638,40.177908177361076,1.0871470206753189,0.6311131058330142,Right,Incorrect,0.0,0.0,-45,45,1370,-1,-1
"{'cat': 'II', 'resp': 'button'}",59,143,Right,67.90823163997052,56.8950938478552,3.395411581998526,0.8937060442886188,Left,Incorrect,0.0,0.0,-45,45,380,-1,-1
"{'cat': 'II', 'resp': 'button'}",59,144,Left,37.672719770329536,54.08868863390032,1.8836359885164768,0.8496231342728349,Left,Correct,0.0,0.0,-45,45,847,-1,-1
"{'cat': 'II', 'resp': 'button'}",59,145,Left,42.22560136441373,73.72958844542416,2.1112800682206863,1.158141667061717,Left,Correct,0.0,0.0,-45,45,1904,-1,-1
"{'cat': 'II', 'resp': 'button'}",59,146,Left,44.49685990169318,64.5124569702184,2.224842995084659,1.0133593044133289,Left,Correct,0.0,0.0,-45,45,3072,-1,-1
"{'cat': 'II', 'resp': 'button'}",59,147,Left,29.552043202785697,58.72526546821272,1.4776021601392848,0.9224543128752373,Right,Incorrect,0.0,0.0,-45,45,3631,-1,-1
"{'cat': 'II', 'resp': 'button'}",59,148,Left,40.83792585570964,63.62607566808588,2.041896292785482,0.9994360594780345,Left,Correct,0.0,0.0,-45,45,1846,-1,-1
"{'cat': 'II', 'resp': 'button'}",59,149,Right,69.3897744802783,47.44987325456661,3.4694887240139156,0.7453408661515664,Left,Incorrect,0.0,0.0,-45,45,2813,-1,-1
"{'cat': 'II', 'resp': 'button'}",59,150,Left,20.34765830347433,45.88309817819703,1.0173829151737166,0.720730020802815,Left,Correct,0.0,0.0,-45,45,946,-1,-1
"{'cat': 'II', 'resp': 'button'}",59,151,Right,52.23990237430398,26.563210103146698,2.6119951187151993,0.41725392857903926,Left,Incorrect,0.0,0.0,-45,45,990,-1,-1
"{'cat': 'II', 'resp': 'button'}",59,152,Right,42.97768725227642,31.05793640456899,2.148884362613821,0.48785692422126464,Left,Incorrect,0.0,0.0,-45,45,1311,-1,-1
"{'cat': 'II', 'resp': 'button'}",59,153,Right,82.4941180656746,58.29067227291944,4.124705903283729,0.9156277389270697,Right,Correct,0.0,0.0,-45,45,874,-1,-1
"{'cat': 'II', 'resp': 'button'}",59,154,Left,45.46218534554004,70.50965493199465,2.273109267277002,1.1075630697075285,Left,Correct,0.0,0.0,-45,45,826,-1,-1
"{'cat': 'II', 'resp': 'button'}",59,155,Left,37.40309575635182,57.63967342478968,1.870154787817591,0.9054018729331703,Left,Correct,0.0,0.0,-45,45,910,-1,-1
"{'cat': 'II', 'resp': 'button'}",59,156,Right,56.735103114432434,34.16459235999039,2.8367551557216215,0.5366561618551788,Left,Incorrect,0.0,0.0,-45,45,1313,-1,-1
"{'cat': 'II', 'resp': 'button'}",59,157,Right,53.69034503508507,43.581300458213896,2.684517251754254,0.6845734667670713,Right,Correct,0.0,0.0,-45,45,488,-1,-1
"{'cat': 'II', 'resp': 'button'}",59,158,Left,23.358431043260037,34.23620415486816,1.167921552163002,0.5377810372986708,Left,Correct,0.0,0.0,-45,45,746,-1,-1
"{'cat': 'II', 'resp': 'button'}",59,159,Right,86.69051825053312,63.491390811013986,4.334525912526655,0.9973204346904001,Right,Correct,0.0,0.0,-45,45,917,-1,-1
"{'cat': 'II', 'resp': 'button'}",59,160,Left,54.69999322557831,74.89931826175936,2.7349996612789154,1.1765157400501354,Left,Correct,0.0,0.0,-45,45,1080,-1,-1
"{'cat': 'II', 'resp': 'button'}",59,161,Left,34.37556145242755,50.93371627199472,1.7187780726213773,0.8000649443006277,Left,Correct,0.0,0.0,-45,45,3465,-1,-1
"{'cat': 'II', 'resp': 'button'}",59,162,Left,12.8891416450215,36.88807518662004,0.6444570822510749,0.5794365300567673,Left,Correct,0.0,0.0,-45,45,1007,-1,-1
"{'cat': 'II', 'resp': 'button'}",59,163,Right,73.62068374612946,51.34996721810786,3.6810341873064725,0.8066033988724217,Left,Incorrect,0.0,0.0,-45,45,1031,-1,-1
"{'cat': 'II', 'resp': 'button'}",59,164,Right,51.46712047141739,20.546388894062083,2.5733560235708692,0.3227419220369218,Left,Incorrect,0.0,0.0,-45,45,6767,-1,-1
"{'cat': 'II', 'resp': 'button'}",59,165,Right,42.46502740777701,20.729796273730038,2.1232513703888505,0.32562287841981674,Right,Correct,0.0,0.0,-45,45,1029,-1,-1
"{'cat': 'II', 'resp': 'button'}",59,166,Right,74.03831932847024,60.675750235664026,3.701915966423512,0.9530924559570563,Left,Incorrect,0.0,0.0,-45,45,1361,-1,-1
"{'cat': 'II', 'resp': 'button'}",59,167,Left,55.13013442446071,83.62979661212972,2.7565067212230354,1.3136537732893765,Right,Incorrect,0.0,0.0,-45,45,584,-1,-1
"{'cat': 'II', 'resp': 'button'}",59,168,Right,84.42433332433285,66.87992636270202,4.221216666216643,1.050547426668455,Left,Incorrect,0.0,0.0,-45,45,450,-1,-1
"{'cat': 'II', 'resp': 'button'}",59,169,Left,20.546968600218424,33.22518104534417,1.0273484300109212,0.5218999234312205,Right,Incorrect,0.0,0.0,-45,45,561,-1,-1
"{'cat': 'II', 'resp': 'button'}",59,170,Right,61.067565599848734,39.74718002534499,3.053378279992437,0.624347243842674,Left,Incorrect,0.0,0.0,-45,45,865,-1,-1
"{'cat': 'II', 'resp': 'button'}",59,171,Right,35.78553074307883,22.579349332105743,1.7892765371539414,0.354675589922905,Right,Correct,0.0,0.0,-45,45,3381,-1,-1
"{'cat': 'II', 'resp': 'button'}",59,172,Left,44.21840507412998,63.77544867209102,2.210920253706499,1.0017824051381703,Left,Correct,0.0,0.0,-45,45,7338,-1,-1
"{'cat': 'II', 'resp': 'button'}",59,173,Right,45.33628448443265,36.61890262187421,2.266814224221633,0.5752083772970003,Right,Correct,0.0,0.0,-45,45,1947,-1,-1
"{'cat': 'II', 'resp': 'button'}",59,174,Left,34.76756911327536,47.49594187140079,1.7383784556637678,0.7460645102926029,Left,Correct,0.0,0.0,-45,45,1253,-1,-1
"{'cat': 'II', 'resp': 'button'}",59,175,Left,37.504872995641044,55.46742552212425,1.8752436497820524,0.8712802826692227,Right,Incorrect,0.0,0.0,-45,45,949,-1,-1
"{'cat': 'II', 'resp': 'button'}",59,176,Left,61.332029951094896,78.61043870628865,3.066601497554745,1.2348098836757357,Left,Correct,0.0,0.0,-45,45,601,-1,-1
"{'cat': 'II', 'resp': 'button'}",59,177,Left,61.48318656481429,84.05500958986238,3.0741593282407145,1.3203330031246563,Right,Incorrect,0.0,0.0,-45,45,409,-1,-1
"{'cat': 'II', 'resp': 'button'}",59,178,Right,68.80862688994323,48.88503666523073,3.4404313444971617,0.7678843602897825,Left,Incorrect,0.0,0.0,-45,45,438,-1,-1
"{'cat': 'II', 'resp': 'button'}",59,179,Left,43.18271748691001,56.89593638285249,2.1591358743455005,0.8937192787974081,Right,Incorrect,0.0,0.0,-45,45,846,-1,-1
"{'cat': 'II', 'resp': 'button'}",59,180,Left,38.40995359617129,47.59629667122345,1.9204976798085647,0.7476408798019795,Right,Incorrect,0.0,0.0,-45,45,1142,-1,-1
"{'cat': 'II', 'resp': 'button'}",59,181,Left,65.69551688409165,87.56669285169451,3.2847758442045825,1.3754943948101865,Left,Correct,0.0,0.0,-45,45,979,-1,-1
"{'cat': 'II', 'resp': 'button'}",59,182,Left,30.006904709035062,61.48736348809709,1.5003452354517532,0.9658412471140555,Left,Correct,0.0,0.0,-45,45,951,-1,-1
"{'cat': 'II', 'resp': 'button'}",59,183,Right,72.21121238439619,39.25948497840941,3.610560619219809,0.6166865479594492,Left,Incorrect,0.0,0.0,-45,45,943,-1,-1
"{'cat': 'II', 'resp': 'button'}",59,184,Right,62.53915369638256,50.45604790512287,3.126957684819128,0.7925617471395434,Left,Incorrect,0.0,0.0,-45,45,1784,-1,-1
"{'cat': 'II', 'resp': 'button'}",59,185,Left,42.344485484192596,49.36067950885037,2.11722427420963,0.7753557406060227,Left,Correct,0.0,0.0,-45,45,2257,-1,-1
"{'cat': 'II', 'resp': 'button'}",59,186,Left,57.75597752982072,85.49476008936176,2.8877988764910363,1.342948551085804,Right,Incorrect,0.0,0.0,-45,45,1287,-1,-1
"{'cat': 'II', 'resp': 'button'}",59,187,Left,41.62412998369298,53.507551394099075,2.081206499184649,0.8404946518563998,Left,Correct,0.0,0.0,-45,45,942,-1,-1
"{'cat': 'II', 'resp': 'button'}",59,188,Left,34.22418646877717,50.77125070021095,1.7112093234388583,0.797512941066742,Left,Correct,0.0,0.0,-45,45,836,-1,-1
"{'cat': 'II', 'resp': 'button'}",59,189,Left,65.23216844491856,81.26454519267892,3.261608422245928,1.2765004908731792,Right,Incorrect,0.0,0.0,-45,45,453,-1,-1
"{'cat': 'II', 'resp': 'button'}",59,190,Right,50.643813307321466,23.209505818284583,2.5321906653660733,0.364574064860862,Left,Incorrect,0.0,0.0,-45,45,1068,-1,-1
"{'cat': 'II', 'resp': 'button'}",59,191,Left,52.489142110921264,76.16191943432551,2.624457105546063,1.1963486328908735,Right,Incorrect,0.0,0.0,-45,45,852,-1,-1
"{'cat': 'II', 'resp': 'button'}",59,192,Left,64.54300982564641,84.0309850654242,3.2271504912823206,1.3199556267772516,Left,Correct,0.0,0.0,-45,45,429,-1,-1
"{'cat': 'II', 'resp': 'button'}",59,193,Right,48.08700604377567,26.583386808663796,2.4043503021887833,0.41757086352816997,Left,Incorrect,0.0,0.0,-45,45,703,-1,-1
"{'cat': 'II', 'resp': 'button'}",59,194,Left,25.653111222806004,53.638513424848014,1.2826555611403,0.8425517986249,Left,Correct,0.0,0.0,-45,45,807,-1,-1
"{'cat': 'II', 'resp': 'button'}",59,195,Left,13.896144100274018,38.48266311031486,0.6948072050137009,0.6044842585896805,Left,Correct,0.0,0.0,-45,45,909,-1,-1
"{'cat': 'II', 'resp': 'button'}",59,196,Right,42.508266091122,31.312796450048225,2.1254133045561003,0.49186025645412024,Left,Incorrect,0.0,0.0,-45,45,589,-1,-1
"{'cat': 'II', 'resp': 'button'}",59,197,Right,31.007034165075467,17.166944913133257,1.5503517082537734,0.26965774011840055,Left,Incorrect,0.0,0.0,-45,45,1205,-1,-1
"{'cat': 'II', 'resp': 'button'}",59,198,Left,61.18142643275741,81.14708920980561,3.059071321637871,1.2746554966086043,Left,Correct,0.0,0.0,-45,45,2015,-1,-1
"{'cat': 'II', 'resp': 'button'}",59,199,Left,43.43807765651796,74.78030210710432,2.171903882825898,1.1746462386645213,Left,Correct,0.0,0.0,-45,45,4192,-1,-1
"{'cat': 'II', 'resp': 'button'}",59,200,Left,40.2382763457543,72.24600604258814,2.0119138172877147,1.1348376091729935,Left,Correct,0.0,0.0,-45,45,1379,-1,-1
"{'cat': 'II', 'resp': 'button'}",59,201,Left,44.54722007028692,58.60397977115176,2.227361003514346,0.9205491616008761,Right,Incorrect,0.0,0.0,-45,45,1002,-1,-1
"{'cat': 'II', 'resp': 'button'}",59,202,Right,59.63361644672441,50.40382422532414,2.9816808223362203,0.7917414194955479,Right,Correct,0.0,0.0,-45,45,969,-1,-1
"{'cat': 'II', 'resp': 'button'}",59,203,Left,43.41016925206389,52.04929475962209,2.1705084626031943,0.8175884102067924,Left,Correct,0.0,0.0,-45,45,690,-1,-1
"{'cat': 'II', 'resp': 'button'}",59,204,Left,27.698380767220186,60.41604160087507,1.3849190383610093,0.9490129622614221,Right,Incorrect,0.0,0.0,-45,45,1911,-1,-1
"{'cat': 'II', 'resp': 'button'}",59,205,Left,32.492144878181364,64.46354182710685,1.6246072439090682,1.012590947142086,Left,Correct,0.0,0.0,-45,45,3385,-1,-1
"{'cat': 'II', 'resp': 'button'}",59,206,Right,39.297691977816,21.8903564093208,1.9648845988908,0.3438529143999223,Right,Correct,0.0,0.0,-45,45,980,-1,-1
"{'cat': 'II', 'resp': 'button'}",59,207,Left,53.04574832751371,70.31517183963065,2.6522874163756853,1.1045081364364377,Left,Correct,0.0,0.0,-45,45,629,-1,-1
"{'cat': 'II', 'resp': 'button'}",59,208,Right,40.719802033279066,30.11434943396354,2.0359901016639532,0.47303509474687905,Left,Incorrect,0.0,0.0,-45,45,689,-1,-1
"{'cat': 'II', 'resp': 'button'}",59,209,Left,18.836420877552374,43.703439324714154,0.9418210438776187,0.6864920195956462,Left,Correct,0.0,0.0,-45,45,842,-1,-1
"{'cat': 'II', 'resp': 'button'}",59,210,Left,27.308811407712863,47.82995170137375,1.3654405703856431,0.7513111244329521,Left,Correct,0.0,0.0,-45,45,1642,-1,-1
"{'cat': 'II', 'resp': 'button'}",59,211,Left,20.05321686865827,51.31689109968749,1.0026608434329136,0.8060838404192283,Left,Correct,0.0,0.0,-45,45,870,-1,-1
"{'cat': 'II', 'resp': 'button'}",59,212,Right,81.17482444593873,50.924914904465076,4.058741222296936,0.7999266927427641,Right,Correct,0.0,0.0,-45,45,716,-1,-1
"{'cat': 'II', 'resp': 'button'}",59,213,Right,72.39347854532981,55.960157711563895,3.6196739272664904,0.8790201018018767,Right,Correct,0.0,0.0,-45,45,663,-1,-1
"{'cat': 'II', 'resp': 'button'}",59,214,Right,84.76326195982064,65.30612672476695,4.238163097991031,1.0258262397646596,Left,Incorrect,0.0,0.0,-45,45,701,-1,-1
"{'cat': 'II', 'resp': 'button'}",59,215,Left,16.813927929405736,37.09088964686558,0.8406963964702868,0.5826223321485131,Right,Incorrect,0.0,0.0,-45,45,1820,-1,-1
"{'cat': 'II', 'resp': 'button'}",59,216,Right,48.41735722534232,33.85875020280012,2.420867861267116,0.5318520044842439,Left,Incorrect,0.0,0.0,-45,45,1957,-1,-1
"{'cat': 'II', 'resp': 'button'}",59,217,Left,26.906278857802576,43.92909731605894,1.3453139428901288,0.6900366470348094,Right,Incorrect,0.0,0.0,-45,45,5473,-1,-1
"{'cat': 'II', 'resp': 'button'}",59,218,Right,66.70760494999607,44.173111661297476,3.335380247499803,0.6938696154066688,Left,Incorrect,0.0,0.0,-45,45,1476,-1,-1
"{'cat': 'II', 'resp': 'button'}",59,219,Right,43.2818236938629,23.65518347388869,2.1640911846931448,0.371574753104437,Right,Correct,0.0,0.0,-45,45,355,-1,-1
"{'cat': 'II', 'resp': 'button'}",59,220,Left,24.466456864091604,53.06816804084011,1.2233228432045804,0.8335928342828597,Left,Correct,0.0,0.0,-45,45,385,-1,-1
"{'cat': 'II', 'resp': 'button'}",59,221,Left,28.633627037856602,57.19062853517226,1.4316813518928302,0.8983482923013998,Right,Incorrect,0.0,0.0,-45,45,674,-1,-1
"{'cat': 'II', 'resp': 'button'}",59,222,Left,26.821015437486043,54.68749377817792,1.3410507718743023,0.8590291434838063,Right,Incorrect,0.0,0.0,-45,45,644,-1,-1
"{'cat': 'II', 'resp': 'button'}",59,223,Left,50.17362869921841,70.44338578650255,2.5086814349609203,1.1065221164043402,Right,Incorrect,0.0,0.0,-45,45,1055,-1,-1
"{'cat': 'II', 'resp': 'button'}",59,224,Left,40.714781688450124,47.936700524719484,2.0357390844225063,0.7529879310289636,Left,Correct,0.0,0.0,-45,45,477,-1,-1
"{'cat': 'II', 'resp': 'button'}",59,225,Right,79.18836576924758,56.08668177813381,3.959418288462379,0.8810075371920685,Left,Incorrect,0.0,0.0,-45,45,989,-1,-1
"{'cat': 'II', 'resp': 'button'}",59,226,Right,47.08093575683324,31.860224593461552,2.354046787841662,0.5004592376226983,Right,Correct,0.0,0.0,-45,45,1854,-1,-1
"{'cat': 'II', 'resp': 'button'}",59,227,Left,34.93524381909477,61.038702701341386,1.7467621909547386,0.9587936999559279,Left,Correct,0.0,0.0,-45,45,962,-1,-1
"{'cat': 'II', 'resp': 'button'}",59,228,Left,62.21695885669486,80.243015188411,3.1108479428347433,1.260454335089031,Left,Correct,0.0,0.0,-45,45,1279,-1,-1
"{'cat': 'II', 'resp': 'button'}",59,229,Left,38.202125544421456,68.23449465930021,1.9101062772210726,1.0718249357153475,Left,Correct,0.0,0.0,-45,45,2933,-1,-1
"{'cat': 'II', 'resp': 'button'}",59,230,Left,19.321555963226405,47.960796297270065,0.9660777981613202,0.753366426539101,Left,Correct,0.0,0.0,-45,45,1208,-1,-1
"{'cat': 'II', 'resp': 'button'}",59,231,Left,65.33304976709381,83.62326529752227,3.2666524883546906,1.3135511796394312,Left,Correct,0.0,0.0,-45,45,1915,-1,-1
"{'cat': 'II', 'resp': 'button'}",59,232,Right,54.608630647876886,44.99562569112402,2.7304315323938444,0.7067896355745569,Left,Incorrect,0.0,0.0,-45,45,1843,-1,-1
"{'cat': 'II', 'resp': 'button'}",59,233,Right,58.63665789837607,33.485893863162616,2.931832894918804,0.525995190796996,Right,Correct,0.0,0.0,-45,45,3921,-1,-1
"{'cat': 'II', 'resp': 'button'}",59,234,Left,66.568362685904,78.44725672024552,3.3284181342952,1.2322466270329793,Left,Correct,0.0,0.0,-45,45,2324,-1,-1
"{'cat': 'II', 'resp': 'button'}",59,235,Left,28.09529954738416,40.00997212752459,1.4047649773692081,0.6284751725308182,Right,Incorrect,0.0,0.0,-45,45,1248,-1,-1
"{'cat': 'II', 'resp': 'button'}",59,236,Left,51.32182688668511,74.90868842174953,2.5660913443342555,1.1766629261790758,Left,Correct,0.0,0.0,-45,45,702,-1,-1
"{'cat': 'II', 'resp': 'button'}",59,237,Left,21.424934620421745,35.71428142166641,1.0712467310210871,0.5609986207127282,Left,Correct,0.0,0.0,-45,45,947,-1,-1
"{'cat': 'II', 'resp': 'button'}",59,238,Right,70.85478432760152,48.97149168014694,3.542739216380076,0.7692423924884164,Left,Incorrect,0.0,0.0,-45,45,2628,-1,-1
"{'cat': 'II', 'resp': 'button'}",59,239,Left,69.13870964119488,85.66903995066195,3.4569354820597438,1.3456861327454503,Left,Correct,0.0,0.0,-45,45,1800,-1,-1
"{'cat': 'II', 'resp': 'button'}",59,240,Right,82.69728633879618,59.28600992582976,4.134864316939809,0.9312624662181916,Left,Incorrect,0.0,0.0,-45,45,780,-1,-1
"{'cat': 'II', 'resp': 'button'}",59,241,Right,68.84272281615891,37.694599024215556,3.442136140807946,0.5921053768724428,Right,Correct,0.0,0.0,-45,45,3179,-1,-1
"{'cat': 'II', 'resp': 'button'}",59,242,Left,23.586405678369953,46.357314725642354,1.1793202839184977,0.7281789969111397,Left,Correct,0.0,0.0,-45,45,1360,-1,-1
"{'cat': 'II', 'resp': 'button'}",59,243,Left,61.70457584467101,83.80989275888425,3.0852287922335506,1.3164827169472957,Left,Correct,0.0,0.0,-45,45,1369,-1,-1
"{'cat': 'II', 'resp': 'button'}",59,244,Right,74.38026574604942,42.966306761818124,3.719013287302471,0.6749131683740663,Left,Incorrect,0.0,0.0,-45,45,797,-1,-1
"{'cat': 'II', 'resp': 'button'}",59,245,Left,34.76968223617853,48.51960762094498,1.7384841118089267,0.7621442142851005,Left,Correct,0.0,0.0,-45,45,390,-1,-1
"{'cat': 'II', 'resp': 'button'}",59,246,Left,59.6592253789554,72.04698597860602,2.98296126894777,1.1317114093183775,Left,Correct,0.0,0.0,-45,45,706,-1,-1
"{'cat': 'II', 'resp': 'button'}",59,247,Left,63.052950125175016,82.9096003573386,3.152647506258751,1.3023409569734032,Left,Correct,0.0,0.0,-45,45,755,-1,-1
"{'cat': 'II', 'resp': 'button'}",59,248,Right,36.94642941063479,22.469812810838118,1.8473214705317396,0.3529549942703343,Left,Incorrect,0.0,0.0,-45,45,388,-1,-1
"{'cat': 'II', 'resp': 'button'}",59,249,Right,58.71759132796996,39.47645876847351,2.9358795663984982,0.6200947642838838,Left,Incorrect,0.0,0.0,-45,45,360,-1,-1
"{'cat': 'II', 'resp': 'button'}",59,250,Right,80.96031774527152,51.789320962719856,4.048015887263577,0.813504751354423,Left,Incorrect,0.0,0.0,-45,45,519,-1,-1
"{'cat': 'II', 'resp': 'button'}",59,251,Right,50.15147202356539,39.49665085213304,2.5075736011782697,0.620411940792311,Right,Correct,0.0,0.0,-45,45,355,-1,-1
"{'cat': 'II', 'resp': 'button'}",59,252,Right,84.7191496617716,56.57369538346951,4.23595748308858,0.8886575290156731,Left,Incorrect,0.0,0.0,-45,45,2061,-1,-1
"{'cat': 'II', 'resp': 'button'}",59,253,Right,69.04930445432558,56.63992028785515,3.452465222716279,0.889697787381186,Right,Correct,0.0,0.0,-45,45,821,-1,-1
"{'cat': 'II', 'resp': 'button'}",59,254,Left,53.14755796503972,83.3711873699886,2.657377898251986,1.3095915488130718,Left,Correct,0.0,0.0,-45,45,1113,-1,-1
"{'cat': 'II', 'resp': 'button'}",59,255,Left,60.54972229709098,85.3549142623189,3.0274861148545487,1.3407518579714384,Left,Correct,0.0,0.0,-45,45,1052,-1,-1
"{'cat': 'II', 'resp': 'button'}",59,256,Left,66.00876690051994,81.71171389362692,3.3004383450259973,1.2835246004022471,Left,Correct,0.0,0.0,-45,45,3776,-1,-1
"{'cat': 'II', 'resp': 'button'}",59,257,Right,67.26145976443142,43.4575787637006,3.363072988221571,0.682630050934208,Right,Correct,0.0,0.0,-45,45,1115,-1,-1
"{'cat': 'II', 'resp': 'button'}",59,258,Right,56.015392501731235,32.59967056660514,2.8007696250865615,0.5120744278074707,Left,Incorrect,0.0,0.0,-45,45,3520,-1,-1
"{'cat': 'II', 'resp': 'button'}",59,259,Left,37.71683930718396,70.87568199231836,1.885841965359198,1.1133126093261687,Right,Incorrect,0.0,0.0,-45,45,740,-1,-1
"{'cat': 'II', 'resp': 'button'}",59,260,Right,62.80849640601195,34.05930401185214,3.140424820300597,0.5350022963500802,Left,Incorrect,0.0,0.0,-45,45,938,-1,-1
"{'cat': 'II', 'resp': 'button'}",59,261,Left,64.69830060179103,88.34703927009735,3.2349150300895517,1.387752047686734,Right,Incorrect,0.0,0.0,-45,45,888,-1,-1
"{'cat': 'II', 'resp': 'button'}",59,262,Right,43.47903526171827,16.141300117522533,2.1739517630859138,0.2535469493429843,Left,Incorrect,0.0,0.0,-45,45,993,-1,-1
"{'cat': 'II', 'resp': 'button'}",59,263,Left,56.51236768074228,76.45616239408574,2.825618384037114,1.20097059049464,Left,Correct,0.0,0.0,-45,45,582,-1,-1
"{'cat': 'II', 'resp': 'button'}",59,264,Left,19.77713369327674,47.49453088732124,0.9888566846638369,0.7460423466065096,Left,Correct,0.0,0.0,-45,45,797,-1,-1
"{'cat': 'II', 'resp': 'button'}",59,265,Left,52.93047092328685,68.61699142533107,2.6465235461643424,1.0778331808662693,Left,Correct,0.0,0.0,-45,45,840,-1,-1
"{'cat': 'II', 'resp': 'button'}",59,266,Right,75.29221567936138,48.584882142725924,3.764610783968069,0.7631695440755684,Left,Incorrect,0.0,0.0,-45,45,841,-1,-1
"{'cat': 'II', 'resp': 'button'}",59,267,Left,32.176404105880046,54.085514149742046,1.6088202052940022,0.8495732695922821,Left,Correct,0.0,0.0,-45,45,718,-1,-1
"{'cat': 'II', 'resp': 'button'}",59,268,Right,67.18060955607851,55.89371270821479,3.359030477803925,0.8779763861299302,Left,Incorrect,0.0,0.0,-45,45,759,-1,-1
"{'cat': 'II', 'resp': 'button'}",59,269,Left,66.11767701719681,84.259986608052,3.3058838508598405,1.3235527745971527,Left,Correct,0.0,0.0,-45,45,1503,-1,-1
"{'cat': 'II', 'resp': 'button'}",59,270,Right,72.16889738076013,43.050073221002194,3.6084448690380064,0.6762289688380159,Right,Correct,0.0,0.0,-45,45,1620,-1,-1
"{'cat': 'II', 'resp': 'button'}",59,271,Left,47.38189798276501,65.80785325702858,2.3690948991382506,1.0337073417039806,Left,Correct,0.0,0.0,-45,45,1256,-1,-1
"{'cat': 'II', 'resp': 'button'}",59,272,Left,29.993768087235317,52.4168429615249,1.4996884043617658,0.8233618438614823,Right,Incorrect,0.0,0.0,-45,45,712,-1,-1
"{'cat': 'II', 'resp': 'button'}",59,273,Right,56.7173526851704,47.43236738906,2.83586763425852,0.7450658846592149,Left,Incorrect,0.0,0.0,-45,45,817,-1,-1
"{'cat': 'II', 'resp': 'button'}",59,274,Right,79.0570945745399,51.32287455284183,3.9528547287269955,0.8061778282815922,Left,Incorrect,0.0,0.0,-45,45,503,-1,-1
"{'cat': 'II', 'resp': 'button'}",59,275,Right,78.83411840299797,52.5240868112065,3.9417059201498987,0.8250464263129943,Right,Correct,0.0,0.0,-45,45,959,-1,-1
"{'cat': 'II', 'resp': 'button'}",59,276,Right,68.35120393602466,49.148861502149074,3.417560196801233,0.7720285111372688,Right,Correct,0.0,0.0,-45,45,1246,-1,-1
"{'cat': 'II', 'resp': 'button'}",59,277,Right,70.76925704326358,40.199290586699355,3.5384628521631787,0.6314489799334801,Right,Correct,0.0,0.0,-45,45,1823,-1,-1
"{'cat': 'II', 'resp': 'button'}",59,278,Left,24.418281016870345,40.56918607046775,1.2209140508435172,0.6372592846054943,Right,Incorrect,0.0,0.0,-45,45,1252,-1,-1
"{'cat': 'II', 'resp': 'button'}",59,279,Left,28.744813514566623,52.76737108181284,1.4372406757283311,0.8288679266993486,Left,Correct,0.0,0.0,-45,45,885,-1,-1
"{'cat': 'II', 'resp': 'button'}",59,280,Right,44.87874782803058,34.89320280702051,2.2439373914015293,0.5481011479937719,Left,Incorrect,0.0,0.0,-45,45,919,-1,-1
"{'cat': 'II', 'resp': 'button'}",59,281,Right,82.36034580693908,63.94230705685883,4.1180172903469545,1.0044034105170525,Right,Correct,0.0,0.0,-45,45,1395,-1,-1
"{'cat': 'II', 'resp': 'button'}",59,282,Right,40.61227466968468,28.882467274869708,2.030613733484234,0.45368473504139145,Right,Correct,0.0,0.0,-45,45,2051,-1,-1
"{'cat': 'II', 'resp': 'button'}",59,283,Right,56.26884587709625,24.71293976838504,2.8134422938548123,0.3881899501248275,Right,Correct,0.0,0.0,-45,45,1068,-1,-1
"{'cat': 'II', 'resp': 'button'}",59,284,Right,57.501742126236024,45.98316900743539,2.8750871063118013,0.7223019297126844,Left,Incorrect,0.0,0.0,-45,45,646,-1,-1
"{'cat': 'II', 'resp': 'button'}",59,285,Left,16.106937658829796,36.665950400341885,0.8053468829414898,0.575947402073009,Left,Correct,0.0,0.0,-45,45,857,-1,-1
"{'cat': 'II', 'resp': 'button'}",59,286,Left,13.659819667840644,39.84463818471679,0.6829909833920322,0.6258781130302481,Left,Correct,0.0,0.0,-45,45,939,-1,-1
"{'cat': 'II', 'resp': 'button'}",59,287,Right,72.15718160291188,48.20791406342102,3.6078590801455936,0.7572481433326578,Left,Incorrect,0.0,0.0,-45,45,867,-1,-1
"{'cat': 'II', 'resp': 'button'}",59,288,Left,55.873195899157565,79.80969290434223,2.793659794957878,1.2536477245676951,Left,Correct,0.0,0.0,-45,45,1030,-1,-1
"{'cat': 'II', 'resp': 'button'}",59,289,Right,57.08290162118156,39.922228818903434,2.8541450810590785,0.6270969038619888,Left,Incorrect,0.0,0.0,-45,45,870,-1,-1
"{'cat': 'II', 'resp': 'button'}",59,290,Right,65.87264282188632,53.51424630113962,3.2936321410943155,0.840599815210275,Right,Correct,0.0,0.0,-45,45,636,-1,-1
"{'cat': 'II', 'resp': 'button'}",59,291,Left,62.41590768773388,88.44502382239763,3.120795384386694,1.3892911854350931,Left,Correct,0.0,0.0,-45,45,891,-1,-1
"{'cat': 'II', 'resp': 'button'}",59,292,Right,57.86145497557169,35.332376025543454,2.8930727487785846,0.5549996647785973,Right,Correct,0.0,0.0,-45,45,505,-1,-1
"{'cat': 'II', 'resp': 'button'}",59,293,Right,57.113208361858554,36.39530269390056,2.8556604180929277,0.571696077841674,Left,Incorrect,0.0,0.0,-45,45,371,-1,-1
"{'cat': 'II', 'resp': 'button'}",59,294,Left,16.234340960964897,40.8221352624157,0.8117170480482448,0.6412326012212699,Right,Incorrect,0.0,0.0,-45,45,559,-1,-1
"{'cat': 'II', 'resp': 'button'}",59,295,Right,41.39479559232077,32.83667547996167,2.0697397796160386,0.5157972922807984,Left,Incorrect,0.0,0.0,-45,45,489,-1,-1
"{'cat': 'II', 'resp': 'button'}",59,296,Right,79.36915302273057,48.67976796806741,3.9684576511365286,0.7646600071346815,Left,Incorrect,0.0,0.0,-45,45,1069,-1,-1
"{'cat': 'II', 'resp': 'button'}",59,297,Left,57.11852099869598,76.19925769842837,2.8559260499347987,1.1969351409718902,Left,Correct,0.0,0.0,-45,45,1571,-1,-1
"{'cat': 'II', 'resp': 'button'}",59,298,Left,59.23226652511556,68.42289344296648,2.9616133262557782,1.0747842968889036,Left,Correct,0.0,0.0,-45,45,752,-1,-1
"{'cat': 'II', 'resp': 'button'}",59,299,Left,26.395849480005992,58.06734635633293,1.3197924740002998,0.912119743632548,Left,Correct,0.0,0.0,-45,45,760,-1,-1
"{'cat': 'II', 'resp': 'button'}",59,300,Right,56.08773278759681,31.075660140119172,2.8043866393798407,0.48813532800825776,Right,Correct,0.0,0.0,-45,45,835,-1,-1
"{'cat': 'II', 'resp': 'button'}",59,301,Right,89.92888995116384,66.8204885779351,4.496444497558192,1.0496137801286078,Left,Incorrect,0.0,0.0,-45,45,644,-1,-1
"{'cat': 'II', 'resp': 'button'}",59,302,Left,61.96044997222987,70.94204468390083,3.0980224986114933,1.1143550320479085,Left,Correct,0.0,0.0,-45,45,1054,-1,-1
"{'cat': 'II', 'resp': 'button'}",59,303,Right,85.25745878605149,66.76898060112771,4.262872939302574,1.048804694720911,Left,Incorrect,0.0,0.0,-45,45,707,-1,-1
"{'cat': 'II', 'resp': 'button'}",59,304,Right,83.22246449500949,61.67538183406742,4.161123224750474,0.9687946323862581,Left,Incorrect,0.0,0.0,-45,45,711,-1,-1
"{'cat': 'II', 'resp': 'button'}",59,305,Right,77.37900218667265,47.919992416643964,3.8689501093336327,0.7527254806810363,Right,Correct,0.0,0.0,-45,45,941,-1,-1
"{'cat': 'II', 'resp': 'button'}",59,306,Right,56.411894263409074,45.110955514063676,2.820594713170454,0.7086012321969921,Left,Incorrect,0.0,0.0,-45,45,481,-1,-1
"{'cat': 'II', 'resp': 'button'}",59,307,Right,65.27284772817895,31.875771487742277,3.263642386408947,0.5007034476669906,Right,Correct,0.0,0.0,-45,45,358,-1,-1
"{'cat': 'II', 'resp': 'button'}",59,308,Left,16.8772251405767,47.07497471357526,0.8438612570288351,0.7394519736404666,Right,Incorrect,0.0,0.0,-45,45,244,-1,-1
"{'cat': 'II', 'resp': 'button'}",59,309,Right,74.66900010618977,62.5025346395549,3.7334500053094883,0.9817875182718361,Left,Incorrect,0.0,0.0,-45,45,444,-1,-1
"{'cat': 'II', 'resp': 'button'}",59,310,Left,15.668778317529327,35.6805746893439,0.7834389158764664,0.5604691565995235,Right,Incorrect,0.0,0.0,-45,45,767,-1,-1
"{'cat': 'II', 'resp': 'button'}",59,311,Left,28.941446491121994,39.42924759448598,1.4470723245561,0.6193531728970509,Left,Correct,0.0,0.0,-45,45,740,-1,-1
"{'cat': 'II', 'resp': 'button'}",59,312,Right,57.817994195741385,28.169322443621326,2.8908997097870692,0.44248268222741416,Right,Correct,0.0,0.0,-45,45,859,-1,-1
"{'cat': 'II', 'resp': 'button'}",59,313,Left,46.24740120355705,54.4209064539489,2.3123700601778525,0.8548415995871161,Left,Correct,0.0,0.0,-45,45,1502,-1,-1
"{'cat': 'II', 'resp': 'button'}",59,314,Left,31.293187678113114,53.24850003669983,1.5646593839056555,0.8364254826498599,Left,Correct,0.0,0.0,-45,45,1000,-1,-1
"{'cat': 'II', 'resp': 'button'}",59,315,Right,47.26838454125002,40.04278866668537,2.363419227062501,0.6289906535225369,Left,Incorrect,0.0,0.0,-45,45,2270,-1,-1
"{'cat': 'II', 'resp': 'button'}",59,316,Left,48.77698814721643,66.9827492412669,2.4388494073608213,1.0521625646680568,Left,Correct,0.0,0.0,-45,45,1175,-1,-1
"{'cat': 'II', 'resp': 'button'}",59,317,Right,83.8192036148908,64.00475858425777,4.19096018074454,1.0053843968154623,Right,Correct,0.0,0.0,-45,45,1515,-1,-1
"{'cat': 'II', 'resp': 'button'}",59,318,Right,56.26987834758741,30.644834238898206,2.81349391737937,0.48136793057699784,Right,Correct,0.0,0.0,-45,45,1146,-1,-1
"{'cat': 'II', 'resp': 'button'}",59,319,Right,41.5297878783978,30.203172650999758,2.07648939391989,0.474430326577425,Right,Correct,0.0,0.0,-45,45,1008,-1,-1
"{'cat': 'II', 'resp': 'button'}",59,320,Left,43.244882018976085,67.72045628973221,2.1622441009488043,1.063750439887857,Left,Correct,0.0,0.0,-45,45,648,-1,-1
"{'cat': 'II', 'resp': 'button'}",59,321,Left,32.168849461521084,44.54919012744364,1.6084424730760543,0.6997770421387594,Left,Correct,0.0,0.0,-45,45,1270,-1,-1
"{'cat': 'II', 'resp': 'button'}",59,322,Right,47.182807984591385,28.513211958581927,2.3591403992295694,0.4478844860966481,Right,Correct,0.0,0.0,-45,45,948,-1,-1
"{'cat': 'II', 'resp': 'button'}",59,323,Right,82.31125588728088,54.73085875197204,4.115562794364044,0.8597103188992801,Left,Incorrect,0.0,0.0,-45,45,981,-1,-1
"{'cat': 'II', 'resp': 'button'}",59,324,Left,60.936615990771145,78.92707318388857,3.046830799538557,1.2397835664192414,Left,Correct,0.0,0.0,-45,45,730,-1,-1
"{'cat': 'II', 'resp': 'button'}",59,325,Left,24.007891722010463,45.01708529211887,1.2003945861005232,0.7071267221987289,Left,Correct,0.0,0.0,-45,45,856,-1,-1
"{'cat': 'II', 'resp': 'button'}",59,326,Left,32.367622904524886,52.00003954036854,1.6183811452262444,0.8168147110320029,Left,Correct,0.0,0.0,-45,45,512,-1,-1
"{'cat': 'II', 'resp': 'button'}",59,327,Right,58.31892260722275,37.796593180194705,2.9159461303611374,0.5937074973281088,Right,Correct,0.0,0.0,-45,45,786,-1,-1
"{'cat': 'II', 'resp': 'button'}",59,328,Left,48.81248061776319,74.08124081333295,2.4406240308881597,1.1636654095399157,Left,Correct,0.0,0.0,-45,45,687,-1,-1
"{'cat': 'II', 'resp': 'button'}",59,329,Right,70.67970677556916,52.09078363693975,3.533985338778458,0.8182401159677266,Left,Incorrect,0.0,0.0,-45,45,877,-1,-1
"{'cat': 'II', 'resp': 'button'}",59,330,Left,34.67460587147395,55.283847216094244,1.7337302935736973,0.868396641381311,Right,Incorrect,0.0,0.0,-45,45,536,-1,-1
"{'cat': 'II', 'resp': 'button'}",59,331,Left,29.91107531760408,49.15739764972513,1.495553765880204,0.7721625966298431,Left,Correct,0.0,0.0,-45,45,476,-1,-1
"{'cat': 'II', 'resp': 'button'}",59,332,Left,59.320442026439444,77.26717827099328,2.9660221013219723,1.2137099980988268,Left,Correct,0.0,0.0,-45,45,516,-1,-1
"{'cat': 'II', 'resp': 'button'}",59,333,Left,44.399926166264336,57.42063109135801,2.219996308313217,0.9019611640055001,Left,Correct,0.0,0.0,-45,45,755,-1,-1
"{'cat': 'II', 'resp': 'button'}",59,334,Left,63.43889738249078,86.30188949121568,3.171944869124539,1.3556269100826066,Left,Correct,0.0,0.0,-45,45,709,-1,-1
"{'cat': 'II', 'resp': 'button'}",59,335,Right,49.9268750657443,26.676631013475387,2.496343753287215,0.41903554007229954,Left,Incorrect,0.0,0.0,-45,45,609,-1,-1
"{'cat': 'II', 'resp': 'button'}",59,336,Left,55.80919841780309,69.50328520095728,2.7904599208901546,1.091755050938418,Left,Correct,0.0,0.0,-45,45,486,-1,-1
"{'cat': 'II', 'resp': 'button'}",59,337,Right,75.72875412816691,49.348832760440686,3.7864377064083454,0.7751696523171588,Left,Incorrect,0.0,0.0,-45,45,577,-1,-1
"{'cat': 'II', 'resp': 'button'}",59,338,Left,68.53355035915516,82.59822237018236,3.4266775179577578,1.2974498429887051,Right,Incorrect,0.0,0.0,-45,45,273,-1,-1
"{'cat': 'II', 'resp': 'button'}",59,339,Right,36.91812958278315,16.378450163828596,1.8459064791391575,0.2572720935593523,113,Incorrect,0.0,0.0,-45,45,321,-1,-1
"{'cat': 'II', 'resp': 'button'}",59,340,Right,41.107865913718626,27.710718377046753,2.0553932956859313,0.43527894639512876,Right,Correct,0.0,0.0,-45,45,276,-1,-1
"{'cat': 'II', 'resp': 'button'}",59,341,Left,18.3535884058742,37.55586693104822,0.91767942029371,0.5899261782488847,Left,Correct,0.0,0.0,-45,45,232,-1,-1
"{'cat': 'II', 'resp': 'button'}",59,342,Right,61.737928069921665,52.959848885800284,3.0868964034960835,0.8318913609742788,Right,Correct,0.0,0.0,-45,45,123,-1,-1
"{'cat': 'II', 'resp': 'button'}",59,343,Left,56.219788288492836,79.38699379567083,2.810989414424642,1.2470079824952898,Left,Correct,0.0,0.0,-45,45,202,-1,-1
"{'cat': 'II', 'resp': 'button'}",59,344,Right,42.36613538703352,15.684304226849068,2.118306769351676,0.24636847467868186,Right,Correct,0.0,0.0,-45,45,272,-1,-1
"{'cat': 'II', 'resp': 'button'}",59,345,Left,36.19594092509707,56.128665140306616,1.8097970462548534,0.8816670103029439,Left,Correct,0.0,0.0,-45,45,259,-1,-1
"{'cat': 'II', 'resp': 'button'}",59,346,Left,45.601430122596284,71.11914041268824,2.2800715061298145,1.1171368452506119,Right,Incorrect,0.0,0.0,-45,45,210,-1,-1
"{'cat': 'II', 'resp': 'button'}",59,347,Right,53.481889883544,44.806862672139616,2.6740944941772,0.7038245530060028,Left,Incorrect,0.0,0.0,-45,45,364,-1,-1
"{'cat': 'II', 'resp': 'button'}",59,348,Right,61.27060303310691,35.71759013598359,3.0635301516553453,0.5610505938756865,Right,Correct,0.0,0.0,-45,45,578,-1,-1
"{'cat': 'II', 'resp': 'button'}",59,349,Right,70.71879691589422,51.90647256165626,3.535939845794711,0.8153449643672974,Left,Incorrect,0.0,0.0,-45,45,511,-1,-1
"{'cat': 'II', 'resp': 'button'}",59,350,Right,32.83895038500037,13.084392004109791,1.6419475192500186,0.20552914898400176,Right,Correct,0.0,0.0,-45,45,352,-1,-1
"{'cat': 'II', 'resp': 'button'}",59,351,Right,70.16086786449803,53.32948930172419,3.5080433932249013,0.837697659049961,Left,Incorrect,0.0,0.0,-45,45,989,-1,-1
"{'cat': 'II', 'resp': 'button'}",59,352,Left,63.166583807982974,79.06053341878312,3.158329190399149,1.2418799548866968,Left,Correct,0.0,0.0,-45,45,1535,-1,-1
"{'cat': 'II', 'resp': 'button'}",59,353,Left,33.777538892535446,50.22733416469103,1.6888769446267724,0.7889691201059648,Left,Correct,0.0,0.0,-45,45,629,-1,-1
"{'cat': 'II', 'resp': 'button'}",59,354,Right,44.8780811526435,20.677251654789853,2.243904057632175,0.32479750947557595,Left,Incorrect,0.0,0.0,-45,45,1155,-1,-1
"{'cat': 'II', 'resp': 'button'}",59,355,Left,38.199453529286586,69.35695857974086,1.9099726764643292,1.0894565577472273,Right,Incorrect,0.0,0.0,-45,45,290,-1,-1
"{'cat': 'II', 'resp': 'button'}",59,356,Right,73.84625020527494,61.82256178682559,3.692312510263747,0.9711065296779616,Left,Incorrect,0.0,0.0,-45,45,297,-1,-1
"{'cat': 'II', 'resp': 'button'}",59,357,Left,35.19381333938477,57.271672131530316,1.7596906669692385,0.8996213221360947,Left,Correct,0.0,0.0,-45,45,329,-1,-1
"{'cat': 'II', 'resp': 'button'}",59,358,Right,43.74314454804743,21.4702042516766,2.1871572274023716,0.3372531797406977,Left,Incorrect,0.0,0.0,-45,45,339,-1,-1
"{'cat': 'II', 'resp': 'button'}",59,359,Right,40.41788668441155,30.679483768787904,2.020894334220577,0.4819122041197569,Left,Incorrect,0.0,0.0,-45,45,501,-1,-1
"{'cat': 'II', 'resp': 'button'}",59,360,Left,23.04056448563856,50.02565172824069,1.152028224281928,0.7858010998024124,Left,Correct,0.0,0.0,-45,45,368,-1,-1
"{'cat': 'II', 'resp': 'button'}",59,361,Left,48.95981204853166,57.92583802517926,2.447990602426583,0.9098969359646774,Right,Incorrect,0.0,0.0,-45,45,427,-1,-1
"{'cat': 'II', 'resp': 'button'}",59,362,Left,68.08468745511841,80.87834814661905,3.4042343727559206,1.2704341218594803,Left,Correct,0.0,0.0,-45,45,123,-1,-1
"{'cat': 'II', 'resp': 'button'}",59,363,Left,65.91871242899174,79.54067010303751,3.295935621449587,1.2494219242865596,Left,Correct,0.0,0.0,-45,45,322,-1,-1
"{'cat': 'II', 'resp': 'button'}",59,364,Left,58.69229277864828,67.86028262595477,2.934614638932414,1.0659468268411327,Left,Correct,0.0,0.0,-45,45,311,-1,-1
"{'cat': 'II', 'resp': 'button'}",59,365,Left,54.319727967486045,82.79074773861767,2.7159863983743024,1.3004740244042352,Left,Correct,0.0,0.0,-45,45,238,-1,-1
"{'cat': 'II', 'resp': 'button'}",59,366,Right,34.25832956082022,21.527293501659557,1.712916478041011,0.3381499355824248,Left,Incorrect,0.0,0.0,-45,45,305,-1,-1
"{'cat': 'II', 'resp': 'button'}",59,367,Left,18.967612127871007,46.61732394113092,0.9483806063935504,0.7322632121173624,Right,Incorrect,0.0,0.0,-45,45,238,-1,-1
"{'cat': 'II', 'resp': 'button'}",59,368,Left,61.782079289322034,81.10418403966548,3.0891039644661014,1.273981543772038,Left,Correct,0.0,0.0,-45,45,248,-1,-1
"{'cat': 'II', 'resp': 'button'}",59,369,Right,45.876421636818485,37.46971610755464,2.293821081840924,0.5885729242779439,Right,Correct,0.0,0.0,-45,45,418,-1,-1
"{'cat': 'II', 'resp': 'button'}",59,370,Left,14.220836747524416,35.18857426222644,0.7110418373762208,0.5527408319625472,Left,Correct,0.0,0.0,-45,45,87,-1,-1
"{'cat': 'II', 'resp': 'button'}",59,371,Right,68.66110973527978,59.832544586362644,3.4330554867639886,0.9398474125905032,Right,Correct,0.0,0.0,-45,45,250,-1,-1
"{'cat': 'II', 'resp': 'button'}",59,372,Right,62.04372405270279,33.38173916601349,3.10218620263514,0.5243591326399932,Left,Incorrect,0.0,0.0,-45,45,236,-1,-1
"{'cat': 'II', 'resp': 'button'}",59,373,Left,35.36121480306385,60.940211992138416,1.7680607401531927,0.9572466115135332,Right,Incorrect,0.0,0.0,-45,45,254,-1,-1
"{'cat': 'II', 'resp': 'button'}",59,374,Left,45.15965946077027,55.09665563363663,2.257982973038514,0.8654562428799977,Left,Correct,0.0,0.0,-45,45,265,-1,-1
"{'cat': 'II', 'resp': 'button'}",59,375,Right,38.4912365402386,20.56131857516096,1.9245618270119302,0.3229764369192252,Right,Correct,0.0,0.0,-45,45,301,-1,-1
"{'cat': 'II', 'resp': 'button'}",59,376,Right,53.833825231322734,45.091517405455576,2.691691261566137,0.7082958991009776,Left,Incorrect,0.0,0.0,-45,45,210,-1,-1
"{'cat': 'II', 'resp': 'button'}",59,377,Right,43.44862873175579,33.742256001985574,2.1724314365877895,0.53002211785692,Right,Correct,0.0,0.0,-45,45,492,-1,-1
"{'cat': 'II', 'resp': 'button'}",59,378,Left,16.038800347583024,34.75513781174506,0.8019400173791511,0.5459324281193956,Left,Correct,0.0,0.0,-45,45,324,-1,-1
"{'cat': 'II', 'resp': 'button'}",59,379,Left,29.82518729164954,50.22961120564972,1.491259364582477,0.7890048877817035,Right,Incorrect,0.0,0.0,-45,45,276,-1,-1
"{'cat': 'II', 'resp': 'button'}",59,380,Right,67.60107413165304,43.34261486678131,3.3800537065826517,0.6808242022642597,Left,Incorrect,0.0,0.0,-45,45,203,-1,-1
"{'cat': 'II', 'resp': 'button'}",59,381,Left,42.678487239925914,72.29359022343077,2.1339243619962955,1.135585059737805,Right,Incorrect,0.0,0.0,-45,45,213,-1,-1
"{'cat': 'II', 'resp': 'button'}",59,382,Left,38.96598658315439,69.27627090210026,1.9482993291577195,1.0881891186706727,Left,Correct,0.0,0.0,-45,45,375,-1,-1
"{'cat': 'II', 'resp': 'button'}",59,383,Right,33.45630148895371,11.001253246069492,1.6728150744476857,0.1728072818906639,Right,Correct,0.0,0.0,-45,45,270,-1,-1
"{'cat': 'II', 'resp': 'button'}",59,384,Left,58.0865838160205,83.47866316975717,2.9043291908010254,1.3112797747280296,Left,Correct,0.0,0.0,-45,45,446,-1,-1
"{'cat': 'II', 'resp': 'button'}",59,385,Right,77.84316116948739,49.21246063307182,3.8921580584743696,0.7730275239496768,Left,Incorrect,0.0,0.0,-45,45,860,-1,-1
"{'cat': 'II', 'resp': 'button'}",59,386,Left,53.42344518606042,69.98476402542354,2.6711722593030207,1.0993181026274292,Right,Incorrect,0.0,0.0,-45,45,423,-1,-1
"{'cat': 'II', 'resp': 'button'}",59,387,Right,66.58198348390356,55.18837153837356,3.329099174195178,0.8668969129426919,Right,Correct,0.0,0.0,-45,45,217,-1,-1
"{'cat': 'II', 'resp': 'button'}",59,388,Right,58.98252229111907,27.53943928587389,2.9491261145559533,0.4325885007224178,Left,Incorrect,0.0,0.0,-45,45,246,-1,-1
"{'cat': 'II', 'resp': 'button'}",59,389,Left,50.398068296573015,75.25173945034125,2.5199034148286508,1.1820515591352263,Left,Correct,0.0,0.0,-45,45,290,-1,-1
"{'cat': 'II', 'resp': 'button'}",59,390,Right,89.13357448300472,65.38752686139304,4.456678724150236,1.0271048701207883,Right,Correct,0.0,0.0,-45,45,276,-1,-1
"{'cat': 'II', 'resp': 'button'}",59,391,Right,70.53606364266628,49.96551296508372,3.5268031821333135,0.7848564423197628,Left,Incorrect,0.0,0.0,-45,45,1209,-1,-1
"{'cat': 'II', 'resp': 'button'}",59,392,Right,69.20031765209303,49.061378413440394,3.4600158826046514,0.770654329993266,Left,Incorrect,0.0,0.0,-45,45,220,-1,-1
"{'cat': 'II', 'resp': 'button'}",59,393,Left,20.948135807259973,38.097094357793786,1.0474067903629987,0.5984277587878106,Left,Correct,0.0,0.0,-45,45,281,-1,-1
"{'cat': 'II', 'resp': 'button'}",59,394,Right,56.81392587037087,30.469441171149924,2.8406962935185436,0.4786128627113549,Right,Correct,0.0,0.0,-45,45,702,-1,-1
"{'cat': 'II', 'resp': 'button'}",59,395,Right,47.75142635801842,25.148616944034544,2.387571317900921,0.39503355119661365,Left,Incorrect,0.0,0.0,-45,45,848,-1,-1
"{'cat': 'II', 'resp': 'button'}",59,396,Left,51.532662616505554,79.80582284996666,2.576633130825278,1.2535869338957184,Left,Correct,0.0,0.0,-45,45,591,-1,-1
"{'cat': 'II', 'resp': 'button'}",59,397,Right,60.588221959919345,51.44973198681349,3.0294110979959674,0.8081705001946852,Right,Correct,0.0,0.0,-45,45,1025,-1,-1
"{'cat': 'II', 'resp': 'button'}",59,398,Right,63.33015602358182,42.904520698958876,3.1665078011790913,0.6739426351682022,Right,Correct,0.0,0.0,-45,45,898,-1,-1
"{'cat': 'II', 'resp': 'button'}",59,399,Right,69.4977549793365,39.291271569087584,3.4748877489668253,0.6171858505582354,Right,Correct,0.0,0.0,-45,45,1659,-1,-1
