condition,subject,trial,cat,x,y,xt,yt,resp,fb,rotation,su,target_angle_left,target_angle_right,rt,mt,ep
"{'cat': 'RB', 'resp': 'reach'}",26,0,Right,63.956915944422505,37.042238644104486,3.1978457972211256,0.581858123984193,Right,Correct,0.0,0.0,-45,45,2004,1241,-0.75
"{'cat': 'RB', 'resp': 'reach'}",26,1,Left,47.93793088513601,60.69558009550206,2.3968965442568004,0.9534039426670008,Right,Incorrect,0.0,0.0,-45,45,2004,917,-0.78
"{'cat': 'RB', 'resp': 'reach'}",26,2,Left,46.8703262990364,63.1828706471959,2.34351631495182,0.9924742112897239,Right,Incorrect,0.0,0.0,-45,45,2012,7021,-0.8
"{'cat': 'RB', 'resp': 'reach'}",26,3,Left,42.45582793257211,57.13661210605144,2.1227913966286054,0.8974998042169042,Left,Correct,0.0,0.0,-45,45,2004,1563,-2.46
"{'cat': 'RB', 'resp': 'reach'}",26,4,Left,43.87918185133212,78.1962776147224,2.1939590925666064,1.2283042564623996,Left,Correct,0.0,0.0,-45,45,2016,3129,-2.59
"{'cat': 'RB', 'resp': 'reach'}",26,5,Left,35.69152651254617,28.346811529444263,1.7845763256273086,0.4452706742679827,Right,Incorrect,0.0,0.0,-45,45,2004,3262,-0.82
"{'cat': 'RB', 'resp': 'reach'}",26,6,Right,58.76297983633734,69.64722093088932,2.9381489918168664,1.0940159880971358,Right,Correct,0.0,0.0,-45,45,2017,2025,-0.82
"{'cat': 'RB', 'resp': 'reach'}",26,7,Right,62.42247750945892,69.08839960497154,3.121123875472946,1.0852380432362727,Right,Correct,0.0,0.0,-45,45,2004,1613,-0.84
"{'cat': 'RB', 'resp': 'reach'}",26,8,Left,40.675187246089344,64.16243296279706,2.033759362304467,1.007861140161854,Left,Correct,0.0,0.0,-45,45,2017,1841,-2.5
"{'cat': 'RB', 'resp': 'reach'}",26,9,Right,53.207620147140204,32.618857561170536,2.6603810073570107,0.5123758164133261,Left,Incorrect,0.0,0.0,-45,45,2004,2216,-2.5
"{'cat': 'RB', 'resp': 'reach'}",26,10,Right,56.70929779645454,23.57072459787688,2.835464889822727,0.37024807618239114,Right,Correct,0.0,0.0,-45,45,2017,1679,-0.78
"{'cat': 'RB', 'resp': 'reach'}",26,11,Left,45.73004344705632,82.39957168525667,2.286502172352816,1.2943294453267395,Left,Correct,0.0,0.0,-45,45,2009,4250,-2.51
"{'cat': 'RB', 'resp': 'reach'}",26,12,Left,38.014600265413236,71.19459836887803,1.9007300132706617,1.1183221360547155,Right,Incorrect,0.0,0.0,-45,45,2004,2458,-0.81
"{'cat': 'RB', 'resp': 'reach'}",26,13,Right,60.70251662410455,61.243503141369295,3.035125831205227,0.9620106977451459,Left,Incorrect,0.0,0.0,-45,45,2004,4533,-2.6
"{'cat': 'RB', 'resp': 'reach'}",26,14,Left,34.79337932665306,78.4265694315734,1.739668966332653,1.2319216718624042,Right,Incorrect,0.0,0.0,-45,45,2004,1230,-0.79
"{'cat': 'RB', 'resp': 'reach'}",26,15,Left,47.60828988134026,64.07945901996563,2.380414494067013,1.0065577885156611,Right,Incorrect,0.0,0.0,-45,45,2004,2404,-0.8
"{'cat': 'RB', 'resp': 'reach'}",26,16,Left,47.8622839120415,47.37831865440534,2.393114195602075,0.7442168891205804,Left,Correct,0.0,0.0,-45,45,2017,603,-2.55
"{'cat': 'RB', 'resp': 'reach'}",26,17,Left,38.64260580225547,58.049509578131726,1.9321302901127735,0.9118395641757449,Right,Incorrect,0.0,0.0,-45,45,2008,988,-0.78
"{'cat': 'RB', 'resp': 'reach'}",26,18,Left,44.07633931256574,21.401570631809715,2.2038169656282873,0.3361750853608823,Right,Incorrect,0.0,0.0,-45,45,2004,1833,-0.86
"{'cat': 'RB', 'resp': 'reach'}",26,19,Left,48.48252229236417,43.23123122091996,2.4241261146182085,0.6790745920464192,Left,Correct,0.0,0.0,-45,45,2012,1121,-2.53
"{'cat': 'RB', 'resp': 'reach'}",26,20,Left,37.881043261571016,89.45767279307725,1.894052163078551,1.405197838269855,Right,Incorrect,0.0,0.0,-45,45,2013,1170,-0.85
"{'cat': 'RB', 'resp': 'reach'}",26,21,Right,62.83164857221437,89.242982468524,3.1415824286107186,1.4018254905377885,Right,Correct,0.0,0.0,-45,45,2008,2213,-0.84
"{'cat': 'RB', 'resp': 'reach'}",26,22,Right,60.46943448348395,69.64327935247069,3.0234717241741977,1.0939540739281182,Right,Correct,0.0,0.0,-45,45,2013,896,-0.81
"{'cat': 'RB', 'resp': 'reach'}",26,23,Right,52.664497551650605,38.97482198596755,2.6332248775825304,0.612215072130428,Right,Correct,0.0,0.0,-45,45,2013,1575,-0.86
"{'cat': 'RB', 'resp': 'reach'}",26,24,Left,43.71603656911798,58.86800413065936,2.185801828455899,0.9246964465418652,Right,Incorrect,0.0,0.0,-45,45,2013,1000,-0.88
"{'cat': 'RB', 'resp': 'reach'}",26,25,Left,43.51869735552355,69.76382220057192,2.1759348677761774,1.0958475565583063,Left,Correct,0.0,0.0,-45,45,2009,2154,-2.56
"{'cat': 'RB', 'resp': 'reach'}",26,26,Right,62.226751167683474,47.6143746652139,3.1113375583841734,0.7479248482675397,Right,Correct,0.0,0.0,-45,45,2004,1058,-0.88
"{'cat': 'RB', 'resp': 'reach'}",26,27,Right,64.97328743912473,40.13002149951489,3.2486643719562367,0.6303609036563821,Left,Incorrect,0.0,0.0,-45,45,2004,1384,-2.54
"{'cat': 'RB', 'resp': 'reach'}",26,28,Left,35.47516032516119,21.47277442901854,1.7737580162580597,0.337293551991977,Right,Incorrect,0.0,0.0,-45,45,2004,1054,-0.86
"{'cat': 'RB', 'resp': 'reach'}",26,29,Left,35.37366091719664,84.20114415140527,1.768683045859832,1.3226284794495498,Left,Correct,0.0,0.0,-45,45,2004,1388,-2.56
"{'cat': 'RB', 'resp': 'reach'}",26,30,Right,64.66737474511787,58.04530874212688,3.2333687372558932,0.9117735775980862,Right,Correct,0.0,0.0,-45,45,2004,1171,-0.82
"{'cat': 'RB', 'resp': 'reach'}",26,31,Left,44.67991051520165,66.26654188129814,2.2339955257600823,1.0409124057654326,Right,Incorrect,0.0,0.0,-45,45,2004,1058,-0.81
"{'cat': 'RB', 'resp': 'reach'}",26,32,Left,46.33265200108179,70.14612875505696,2.3166326000540893,1.1018528138732537,Right,Incorrect,0.0,0.0,-45,45,2004,1329,-0.86
"{'cat': 'RB', 'resp': 'reach'}",26,33,Left,45.3783067550032,66.22600707028762,2.26891533775016,1.0402756864430065,Left,Correct,0.0,0.0,-45,45,2004,2467,-2.59
"{'cat': 'RB', 'resp': 'reach'}",26,34,Right,55.090980783382584,66.3248024665183,2.754549039169129,1.0418275608980405,Right,Correct,0.0,0.0,-45,45,2009,1691,-0.83
"{'cat': 'RB', 'resp': 'reach'}",26,35,Left,43.399399683391074,64.15612473798947,2.1699699841695534,1.0077620507982905,Left,Correct,0.0,0.0,-45,45,2004,1741,-2.49
"{'cat': 'RB', 'resp': 'reach'}",26,36,Right,63.00404243628565,70.10202430185097,3.1502021218142824,1.1011600227423408,Right,Correct,0.0,0.0,-45,45,2004,867,-0.81
"{'cat': 'RB', 'resp': 'reach'}",26,37,Right,64.28777650752536,82.67623661978391,3.214388825376268,1.2986752879558228,Right,Correct,0.0,0.0,-45,45,2005,950,-0.84
"{'cat': 'RB', 'resp': 'reach'}",26,38,Right,67.7665532158203,58.095993000308994,3.3883276607910147,0.912569724063874,Right,Correct,0.0,0.0,-45,45,2004,1266,-0.84
"{'cat': 'RB', 'resp': 'reach'}",26,39,Right,63.22407324377551,51.851786839159516,3.161203662188775,0.8144859630470374,Right,Correct,0.0,0.0,-45,45,2017,908,-0.91
"{'cat': 'RB', 'resp': 'reach'}",26,40,Right,52.41635284455942,31.862213458139657,2.620817642227971,0.5004904786360069,Right,Correct,0.0,0.0,-45,45,2013,1625,-0.83
"{'cat': 'RB', 'resp': 'reach'}",26,41,Left,32.242121619583116,45.23955313930967,1.6121060809791559,0.7106212389707015,Left,Correct,0.0,0.0,-45,45,2004,879,-2.61
"{'cat': 'RB', 'resp': 'reach'}",26,42,Right,64.4187184313615,39.78152657046852,3.220935921568075,0.6248867581118553,Right,Correct,0.0,0.0,-45,45,2016,642,-0.86
"{'cat': 'RB', 'resp': 'reach'}",26,43,Left,33.00992590323999,30.070502250314707,1.6504962951619995,0.4723463447967201,Left,Correct,0.0,0.0,-45,45,2004,796,-2.58
"{'cat': 'RB', 'resp': 'reach'}",26,44,Right,62.13143788690001,57.47206602748568,3.1065718943450005,0.9027691020928827,Right,Correct,0.0,0.0,-45,45,2004,646,-0.8
"{'cat': 'RB', 'resp': 'reach'}",26,45,Left,38.19250463647868,65.52456462076027,1.909625231823934,1.0292574542112507,Left,Correct,0.0,0.0,-45,45,2004,745,-2.61
"{'cat': 'RB', 'resp': 'reach'}",26,46,Right,68.098966573407,54.39338571780777,3.4049483286703497,0.8544093048747042,Right,Correct,0.0,0.0,-45,45,2013,925,-0.93
"{'cat': 'RB', 'resp': 'reach'}",26,47,Right,55.94256661872741,33.201724084486656,2.7971283309363706,0.5215314623516929,Right,Correct,0.0,0.0,-45,45,2005,745,-0.9
"{'cat': 'RB', 'resp': 'reach'}",26,48,Right,68.61642508583718,51.76656354905882,3.430821254291859,0.8131472787365618,Right,Correct,0.0,0.0,-45,45,2004,796,-0.82
"{'cat': 'RB', 'resp': 'reach'}",26,49,Right,62.44152973595341,14.932586764644121,3.1220764867976705,0.2345605243944907,Right,Correct,0.0,0.0,-45,45,2004,900,-0.87
"{'cat': 'RB', 'resp': 'reach'}",26,50,Right,61.56005220278514,12.534551870783375,3.078002610139257,0.19689228036646622,Right,Correct,0.0,0.0,-45,45,2008,863,-0.89
"{'cat': 'RB', 'resp': 'reach'}",26,51,Right,54.12153605927996,35.975508610572675,2.706076802963998,0.5651019678006574,Right,Correct,0.0,0.0,-45,45,2004,829,-0.87
"{'cat': 'RB', 'resp': 'reach'}",26,52,Left,44.40971017121488,19.638207008591053,2.2204855085607442,0.3084762343393262,Left,Correct,0.0,0.0,-45,45,2004,954,-2.61
"{'cat': 'RB', 'resp': 'reach'}",26,53,Right,55.70277605469639,57.149958656469174,2.7851388027348194,0.8977094513406197,Right,Correct,0.0,0.0,-45,45,2004,825,-0.88
"{'cat': 'RB', 'resp': 'reach'}",26,54,Right,55.52189385726466,55.334595369595,2.776094692863233,0.8691937915124173,Right,Correct,0.0,0.0,-45,45,2005,712,-0.83
"{'cat': 'RB', 'resp': 'reach'}",26,55,Left,40.65486813890534,75.7565275719031,2.032743406945267,1.189980752406817,Left,Correct,0.0,0.0,-45,45,2004,796,-2.65
"{'cat': 'RB', 'resp': 'reach'}",26,56,Left,34.717620048298826,70.75043108811272,1.7358810024149414,1.111345172723629,Left,Correct,0.0,0.0,-45,45,2004,900,-2.52
"{'cat': 'RB', 'resp': 'reach'}",26,57,Left,38.5391682196805,55.964760716857725,1.926958410984025,0.8790924056399544,Left,Correct,0.0,0.0,-45,45,2012,838,-2.62
"{'cat': 'RB', 'resp': 'reach'}",26,58,Left,36.80539875746866,61.35039418204693,1.8402699378734328,0.9636897382857831,Left,Correct,0.0,0.0,-45,45,2017,833,-2.65
"{'cat': 'RB', 'resp': 'reach'}",26,59,Right,57.28945717160197,24.36275632005405,2.8644728585800983,0.38268928138140057,Right,Correct,0.0,0.0,-45,45,2004,604,-0.85
"{'cat': 'RB', 'resp': 'reach'}",26,60,Right,58.20536371627872,51.18238083662502,2.9102681858139356,0.8039709581478808,Right,Correct,0.0,0.0,-45,45,2017,633,-0.85
"{'cat': 'RB', 'resp': 'reach'}",26,61,Left,36.03466236216793,25.59260514834114,1.8017331181083964,0.40200770160126426,Left,Correct,0.0,0.0,-45,45,2004,834,-2.59
"{'cat': 'RB', 'resp': 'reach'}",26,62,Left,36.73259279070393,28.279532888013772,1.8366296395351966,0.44421386383967504,Left,Correct,0.0,0.0,-45,45,2008,713,-2.65
"{'cat': 'RB', 'resp': 'reach'}",26,63,Left,41.5721784471067,34.1083254936746,2.078608922355335,0.5357723239858878,Left,Correct,0.0,0.0,-45,45,2004,775,-2.59
"{'cat': 'RB', 'resp': 'reach'}",26,64,Right,53.51971182549833,24.344311851351545,2.6759855912749164,0.3823995563445247,Right,Correct,0.0,0.0,-45,45,2005,696,-0.88
"{'cat': 'RB', 'resp': 'reach'}",26,65,Right,62.77999372001296,52.10773659114233,3.1389996860006484,0.8185064123496238,Right,Correct,0.0,0.0,-45,45,2017,596,-0.82
"{'cat': 'RB', 'resp': 'reach'}",26,66,Left,43.1101823298725,66.4902567017208,2.155509116493625,1.0444265099471277,Left,Correct,0.0,0.0,-45,45,2008,704,-2.59
"{'cat': 'RB', 'resp': 'reach'}",26,67,Left,45.07262059791118,58.31219912655085,2.253631029895559,0.9159658819531865,Left,Correct,0.0,0.0,-45,45,2004,1141,-2.56
"{'cat': 'RB', 'resp': 'reach'}",26,68,Left,43.46932512180057,34.604622328401724,2.1734662560900286,0.543568136435781,Left,Correct,0.0,0.0,-45,45,2017,746,-2.63
"{'cat': 'RB', 'resp': 'reach'}",26,69,Right,56.11007057136672,41.22577934550543,2.8055035285683356,0.6475730276517684,Right,Correct,0.0,0.0,-45,45,2008,605,-0.76
"{'cat': 'RB', 'resp': 'reach'}",26,70,Right,58.35941743934059,72.59671179292349,2.917970871967029,1.1403464822171197,Right,Correct,0.0,0.0,-45,45,2012,2250,-0.9
"{'cat': 'RB', 'resp': 'reach'}",26,71,Right,56.689883072608836,82.85845805610288,2.834494153630442,1.301537615584154,Right,Correct,0.0,0.0,-45,45,2004,933,-0.83
"{'cat': 'RB', 'resp': 'reach'}",26,72,Right,61.509392873304954,54.03653000407326,3.0754696436652478,0.8488038284314049,Right,Correct,0.0,0.0,-45,45,2008,988,-0.93
"{'cat': 'RB', 'resp': 'reach'}",26,73,Left,38.90405468613568,19.054909735919495,1.945202734306784,0.2993138222059066,Left,Correct,0.0,0.0,-45,45,2008,833,-2.59
"{'cat': 'RB', 'resp': 'reach'}",26,74,Right,60.30674479241433,56.81881794087788,3.0153372396207163,0.8925079051435895,Right,Correct,0.0,0.0,-45,45,2004,763,-0.91
"{'cat': 'RB', 'resp': 'reach'}",26,75,Right,57.4648878074641,76.14245450491245,2.8732443903732054,1.1960428784946402,Right,Correct,0.0,0.0,-45,45,2004,883,-0.91
"{'cat': 'RB', 'resp': 'reach'}",26,76,Left,36.31274531528257,58.462164091994374,1.8156372657641284,0.9183215261218526,Left,Correct,0.0,0.0,-45,45,2009,683,-2.62
"{'cat': 'RB', 'resp': 'reach'}",26,77,Left,35.90069124514489,27.76850768074248,1.7950345622572446,0.43618669865486165,Left,Correct,0.0,0.0,-45,45,2004,788,-2.55
"{'cat': 'RB', 'resp': 'reach'}",26,78,Left,40.70194549492189,17.079741757453334,2.0350972747460943,0.2682879561521311,Left,Correct,0.0,0.0,-45,45,2004,1208,-2.47
"{'cat': 'RB', 'resp': 'reach'}",26,79,Left,34.19911839376835,49.20937733803955,1.7099559196884175,0.7729790916645655,Left,Correct,0.0,0.0,-45,45,2012,758,-2.56
"{'cat': 'RB', 'resp': 'reach'}",26,80,Left,36.97190748037819,48.341871084173164,1.8485953740189098,0.7593523352941164,Left,Correct,0.0,0.0,-45,45,2008,704,-2.66
"{'cat': 'RB', 'resp': 'reach'}",26,81,Left,31.643969947779198,67.16102183567494,1.5821984973889598,1.0549628640327005,Left,Correct,0.0,0.0,-45,45,2005,866,-2.43
"{'cat': 'RB', 'resp': 'reach'}",26,82,Right,64.7114812698621,60.41020873653788,3.2355740634931056,0.9489213398426666,Right,Correct,0.0,0.0,-45,45,2004,625,-0.84
"{'cat': 'RB', 'resp': 'reach'}",26,83,Right,61.012318312400204,49.15614663949401,3.05061591562001,0.7721429458070849,Right,Correct,0.0,0.0,-45,45,2005,816,-0.89
"{'cat': 'RB', 'resp': 'reach'}",26,84,Left,40.17144392796388,73.48315217164216,2.0085721963981937,1.1542706551252595,Left,Correct,0.0,0.0,-45,45,2004,866,-2.41
"{'cat': 'RB', 'resp': 'reach'}",26,85,Left,41.51573512677256,84.69495887176905,2.075786756338628,1.3303853029381967,Left,Correct,0.0,0.0,-45,45,2004,796,-2.5
"{'cat': 'RB', 'resp': 'reach'}",26,86,Left,42.55869836894474,41.81695939402036,2.1279349184472367,0.6568592621385851,Left,Correct,0.0,0.0,-45,45,2004,833,-2.47
"{'cat': 'RB', 'resp': 'reach'}",26,87,Right,54.75960713248726,52.99318488116463,2.737980356624363,0.8324150015649625,Right,Correct,0.0,0.0,-45,45,2009,675,-0.7
"{'cat': 'RB', 'resp': 'reach'}",26,88,Left,43.751477373302194,38.27787328976515,2.1875738686651096,0.6012674276108357,Left,Correct,0.0,0.0,-45,45,2004,775,-2.51
"{'cat': 'RB', 'resp': 'reach'}",26,89,Right,53.51870994161685,34.36029351764299,2.6759354970808427,0.539730228451081,Right,Correct,0.0,0.0,-45,45,2004,817,-0.86
"{'cat': 'RB', 'resp': 'reach'}",26,90,Right,58.090451459845596,35.301567012154635,2.90452257299228,0.554515717927964,Right,Correct,0.0,0.0,-45,45,2017,683,-0.81
"{'cat': 'RB', 'resp': 'reach'}",26,91,Left,39.25698681225913,87.09962829562079,1.9628493406129564,1.36815776191962,Left,Correct,0.0,0.0,-45,45,2004,867,-2.51
"{'cat': 'RB', 'resp': 'reach'}",26,92,Left,31.0942323603428,43.46291234849917,1.55471161801714,0.6827138306883103,Left,Correct,0.0,0.0,-45,45,2008,692,-2.55
"{'cat': 'RB', 'resp': 'reach'}",26,93,Left,34.36443234559165,23.977211385201674,1.7182216172795826,0.37663315570659567,Left,Correct,0.0,0.0,-45,45,2008,796,-2.31
"{'cat': 'RB', 'resp': 'reach'}",26,94,Left,43.1092738407229,85.52791420074155,2.155463692036145,1.3434693346495388,Left,Correct,0.0,0.0,-45,45,2004,737,-2.42
"{'cat': 'RB', 'resp': 'reach'}",26,95,Left,48.65193525271928,37.42699019065906,2.432596762635964,0.5879017871447587,Right,Incorrect,0.0,0.0,-45,45,2008,742,-0.8
"{'cat': 'RB', 'resp': 'reach'}",26,96,Right,55.00926693225253,48.65333374965722,2.750463346612627,0.7642447794028774,Right,Correct,0.0,0.0,-45,45,2009,775,-0.86
"{'cat': 'RB', 'resp': 'reach'}",26,97,Right,53.90075097149018,19.977260580420406,2.6950375485745095,0.3138020753914886,Right,Correct,0.0,0.0,-45,45,2004,1400,-0.86
"{'cat': 'RB', 'resp': 'reach'}",26,98,Right,59.51803633760071,61.14858938202533,2.9759018168800355,0.9605197958997481,Right,Correct,0.0,0.0,-45,45,2009,1037,-0.84
"{'cat': 'RB', 'resp': 'reach'}",26,99,Left,32.94214739473824,41.51372900668527,1.647107369736912,0.6520961303525996,Left,Correct,0.0,0.0,-45,45,2004,717,-2.49
"{'cat': 'RB', 'resp': 'reach'}",26,100,Left,42.18281678547669,46.315670408681015,2.1091408392738344,0.7275248495099922,Left,Correct,0.0,0.0,-45,45,2004,988,-2.47
"{'cat': 'RB', 'resp': 'reach'}",26,101,Right,53.497504673164315,45.18428829510767,2.6748752336582156,0.7097531408279677,Right,Correct,0.0,0.0,-45,45,2016,1413,-0.79
"{'cat': 'RB', 'resp': 'reach'}",26,102,Right,52.714771636781734,70.23388231755057,2.6357385818390866,1.1032312436095346,Right,Correct,0.0,0.0,-45,45,2017,704,-0.82
"{'cat': 'RB', 'resp': 'reach'}",26,103,Right,51.72046866393556,32.798355233212106,2.586023433196778,0.5151953592524374,Right,Correct,0.0,0.0,-45,45,2008,692,-0.78
"{'cat': 'RB', 'resp': 'reach'}",26,104,Left,45.19677131411829,72.78375554480886,2.2598385657059143,1.1432845586012343,Right,Incorrect,0.0,0.0,-45,45,2004,1266,-0.86
"{'cat': 'RB', 'resp': 'reach'}",26,105,Right,54.26290750452177,65.1861445368926,2.713145375226089,1.0239415639647211,Right,Correct,0.0,0.0,-45,45,2004,684,-0.82
"{'cat': 'RB', 'resp': 'reach'}",26,106,Left,33.45844312001372,79.30334621592621,1.672922156000686,1.2456940493852087,Left,Correct,0.0,0.0,-45,45,2005,1050,-2.51
"{'cat': 'RB', 'resp': 'reach'}",26,107,Left,35.80846391790623,28.60108701552744,1.7904231958953116,0.44926482426331715,Left,Correct,0.0,0.0,-45,45,2009,775,-2.43
"{'cat': 'RB', 'resp': 'reach'}",26,108,Left,33.54186966488794,78.71206656515967,1.677093483244397,1.236406250349882,Left,Correct,0.0,0.0,-45,45,2016,996,-2.45
"{'cat': 'RB', 'resp': 'reach'}",26,109,Left,42.385667948851605,42.84728103189465,2.1192833974425804,0.6730435165804877,Right,Incorrect,0.0,0.0,-45,45,2004,2546,-0.87
"{'cat': 'RB', 'resp': 'reach'}",26,110,Left,38.69931341605915,33.43852420460668,1.9349656708029572,0.5252511099403842,Left,Correct,0.0,0.0,-45,45,2008,1179,-2.5
"{'cat': 'RB', 'resp': 'reach'}",26,111,Left,41.475545011998385,37.07982699221296,2.0737772505999192,0.5824485603755837,Left,Correct,0.0,0.0,-45,45,2004,1350,-2.52
"{'cat': 'RB', 'resp': 'reach'}",26,112,Right,60.2278900005161,40.5066938050089,3.011394500025805,0.6362776583951357,Right,Correct,0.0,0.0,-45,45,2016,984,-0.83
"{'cat': 'RB', 'resp': 'reach'}",26,113,Left,33.87250794758833,42.40830587459914,1.6936253973794166,0.6661481109341476,Left,Correct,0.0,0.0,-45,45,2004,850,-2.39
"{'cat': 'RB', 'resp': 'reach'}",26,114,Right,53.72887529759717,33.84613523639632,2.6864437648798583,0.5316538490553466,Right,Correct,0.0,0.0,-45,45,2004,875,-0.85
"{'cat': 'RB', 'resp': 'reach'}",26,115,Right,56.19185544600843,84.95157120985564,2.8095927723004217,1.3344161601189632,Right,Correct,0.0,0.0,-45,45,2016,742,-0.93
"{'cat': 'RB', 'resp': 'reach'}",26,116,Right,64.28371930946886,47.44095605585254,3.2141859654734435,0.7452007951217128,Right,Correct,0.0,0.0,-45,45,2004,825,-0.86
"{'cat': 'RB', 'resp': 'reach'}",26,117,Left,42.830373234923854,33.88033477212093,2.1415186617461925,0.5321910541062896,Right,Incorrect,0.0,0.0,-45,45,2004,1963,-0.81
"{'cat': 'RB', 'resp': 'reach'}",26,118,Left,35.426394556290234,19.36711489325977,1.7713197278145116,0.30421792934947184,Left,Correct,0.0,0.0,-45,45,2017,1246,-2.55
"{'cat': 'RB', 'resp': 'reach'}",26,119,Right,59.93502600836246,30.683862470067883,2.9967513004181234,0.48198098459862415,Right,Correct,0.0,0.0,-45,45,2004,746,-0.77
"{'cat': 'RB', 'resp': 'reach'}",26,120,Right,65.35643278060863,65.56834278197792,3.2678216390304318,1.0299451199595957,Right,Correct,0.0,0.0,-45,45,2004,867,-0.82
"{'cat': 'RB', 'resp': 'reach'}",26,121,Right,60.921010194215484,29.850783699234054,3.0460505097107737,0.4688950138670583,Right,Correct,0.0,0.0,-45,45,2016,1238,-0.84
"{'cat': 'RB', 'resp': 'reach'}",26,122,Right,65.47411498308844,80.97834733630907,3.273705749154422,1.2720049054579559,Right,Correct,0.0,0.0,-45,45,2008,904,-0.88
"{'cat': 'RB', 'resp': 'reach'}",26,123,Right,57.92663651206897,78.15574150713492,2.8963318256034483,1.2276675167733897,Right,Correct,0.0,0.0,-45,45,2004,767,-0.85
"{'cat': 'RB', 'resp': 'reach'}",26,124,Left,46.854663740560966,31.88476209437045,2.342733187028048,0.5008446717856625,Left,Correct,0.0,0.0,-45,45,2005,1037,-2.49
"{'cat': 'RB', 'resp': 'reach'}",26,125,Right,51.36944850804936,47.19639036575613,2.568472425402468,0.7413591662450776,Left,Incorrect,0.0,0.0,-45,45,2004,1125,-2.58
"{'cat': 'RB', 'resp': 'reach'}",26,126,Right,59.73242763306091,45.231834704276835,2.9866213816530456,0.7104999980767198,Right,Correct,0.0,0.0,-45,45,2004,738,-0.79
"{'cat': 'RB', 'resp': 'reach'}",26,127,Right,65.49598926924928,61.902450550322726,3.2747994634624638,0.9723614194404967,Right,Correct,0.0,0.0,-45,45,2012,667,-0.82
"{'cat': 'RB', 'resp': 'reach'}",26,128,Left,30.891195339941063,54.72005409710099,1.5445597669970532,0.8595405997774427,Left,Correct,0.0,0.0,-45,45,2008,934,-2.54
"{'cat': 'RB', 'resp': 'reach'}",26,129,Right,53.39410640749667,60.989871958355316,2.6697053203748333,0.958026668438756,Left,Incorrect,0.0,0.0,-45,45,2008,1691,-2.51
"{'cat': 'RB', 'resp': 'reach'}",26,130,Right,57.5950796171706,36.46651172265648,2.87975398085853,0.5728146266497183,Right,Correct,0.0,0.0,-45,45,2016,763,-0.79
"{'cat': 'RB', 'resp': 'reach'}",26,131,Left,45.77104595431298,46.395727646222554,2.2885522977156487,0.7287823856566281,Left,Correct,0.0,0.0,-45,45,2008,1308,-2.44
"{'cat': 'RB', 'resp': 'reach'}",26,132,Right,53.59060129805815,51.76746382734441,2.6795300649029072,0.8131614202748026,Right,Correct,0.0,0.0,-45,45,2004,1421,-0.79
"{'cat': 'RB', 'resp': 'reach'}",26,133,Left,43.8121871015197,35.75910147774152,2.190609355075985,0.5617026525072233,Left,Correct,0.0,0.0,-45,45,2004,1158,-2.38
"{'cat': 'RB', 'resp': 'reach'}",26,134,Right,54.727165927676495,48.254649487636485,2.7363582963838247,0.7579822616595462,Right,Correct,0.0,0.0,-45,45,2008,692,-0.79
"{'cat': 'RB', 'resp': 'reach'}",26,135,Right,61.98557143595987,23.718568455867423,3.0992785717979934,0.37257040207309855,Right,Correct,0.0,0.0,-45,45,2013,658,-0.85
"{'cat': 'RB', 'resp': 'reach'}",26,136,Right,65.32945076470648,27.65494031312465,3.266472538235324,0.43440278661588305,Right,Correct,0.0,0.0,-45,45,2012,929,-0.9
"{'cat': 'RB', 'resp': 'reach'}",26,137,Right,64.25184984548156,67.25504599141932,3.212592492274078,1.0564397920174329,Right,Correct,0.0,0.0,-45,45,2012,867,-0.85
"{'cat': 'RB', 'resp': 'reach'}",26,138,Left,44.500815223974286,20.41141666522824,2.225040761198714,0.32062178322420665,Left,Correct,0.0,0.0,-45,45,2004,1017,-2.44
"{'cat': 'RB', 'resp': 'reach'}",26,139,Left,38.72207655012913,67.42877396865171,1.9361038275064566,1.0591687047024145,Left,Correct,0.0,0.0,-45,45,2016,884,-2.47
"{'cat': 'RB', 'resp': 'reach'}",26,140,Left,33.47968258903017,22.61694099690176,1.6739841294515085,0.3552660784127019,Left,Correct,0.0,0.0,-45,45,2004,796,-2.5
"{'cat': 'RB', 'resp': 'reach'}",26,141,Left,39.73531862490723,54.729151490601495,1.9867659312453614,0.8596835013003826,Left,Correct,0.0,0.0,-45,45,2004,767,-2.32
"{'cat': 'RB', 'resp': 'reach'}",26,142,Left,40.56932130431196,72.25488319495851,2.028466065215598,1.1349770511563513,Left,Correct,0.0,0.0,-45,45,2009,2921,-2.43
"{'cat': 'RB', 'resp': 'reach'}",26,143,Left,36.99152030017943,53.980031599058066,1.8495760150089717,0.8479163535607285,Left,Correct,0.0,0.0,-45,45,2004,734,-2.57
"{'cat': 'RB', 'resp': 'reach'}",26,144,Right,64.36276462180881,17.548488247935943,3.2181382310904407,0.27565100880661186,Right,Correct,0.0,0.0,-45,45,2004,725,-0.8
"{'cat': 'RB', 'resp': 'reach'}",26,145,Right,54.54688299272679,48.143186820248516,2.7273441496363398,0.7562314101744684,Right,Correct,0.0,0.0,-45,45,2004,846,-0.85
"{'cat': 'RB', 'resp': 'reach'}",26,146,Right,67.12348477902898,58.39639306621906,3.3561742389514495,0.9172883972648788,Right,Correct,0.0,0.0,-45,45,2008,654,-0.83
"{'cat': 'RB', 'resp': 'reach'}",26,147,Right,57.508556966448936,41.01851266101558,2.875427848322447,0.6443172901851324,Right,Correct,0.0,0.0,-45,45,2004,729,-0.83
"{'cat': 'RB', 'resp': 'reach'}",26,148,Left,43.447025964718215,70.53938027771287,2.172351298235911,1.1080299943461975,Left,Correct,0.0,0.0,-45,45,2004,816,-2.49
"{'cat': 'RB', 'resp': 'reach'}",26,149,Right,63.55736260009028,12.48358107381069,3.177868130004514,0.19609163295988122,Right,Correct,0.0,0.0,-45,45,2004,692,-0.83
"{'cat': 'RB', 'resp': 'reach'}",26,150,Left,34.01835381670534,46.51937719009271,1.7009176908352672,0.7307246681498394,Left,Correct,0.0,0.0,-45,45,2013,937,-2.46
"{'cat': 'RB', 'resp': 'reach'}",26,151,Right,63.26006983804792,63.179940792465366,3.163003491902396,0.9924281892392364,Right,Correct,0.0,0.0,-45,45,2004,1129,-0.81
"{'cat': 'RB', 'resp': 'reach'}",26,152,Right,50.64060090248293,45.31165901730429,2.5320300451241464,0.7117538754536443,Right,Correct,0.0,0.0,-45,45,2004,1575,-0.79
"{'cat': 'RB', 'resp': 'reach'}",26,153,Left,45.27975974215251,57.98145388385518,2.2639879871076256,0.9107705478298742,Left,Correct,0.0,0.0,-45,45,2012,1392,-2.56
"{'cat': 'RB', 'resp': 'reach'}",26,154,Left,37.46440629169116,54.18079488227513,1.873220314584558,0.851069935839055,Left,Correct,0.0,0.0,-45,45,2004,829,-2.56
"{'cat': 'RB', 'resp': 'reach'}",26,155,Right,64.70072783017342,48.39323481730928,3.2350363915086713,0.7601591549275231,Right,Correct,0.0,0.0,-45,45,2005,987,-0.81
"{'cat': 'RB', 'resp': 'reach'}",26,156,Left,42.25083240102611,82.79412168506114,2.1125416200513056,1.3005270222310374,Left,Correct,0.0,0.0,-45,45,2012,858,-2.53
"{'cat': 'RB', 'resp': 'reach'}",26,157,Left,35.42521051075204,66.58353740875216,1.771260525537602,1.0458917598667847,Left,Correct,0.0,0.0,-45,45,2004,930,-2.51
"{'cat': 'RB', 'resp': 'reach'}",26,158,Right,56.045613906838426,15.998057296086039,2.802280695341921,0.25129689636546243,Right,Correct,0.0,0.0,-45,45,2004,738,-0.76
"{'cat': 'RB', 'resp': 'reach'}",26,159,Left,45.422029661118714,17.20496708119137,2.2711014830559355,0.2702549909376252,Right,Incorrect,0.0,0.0,-45,45,2004,1213,-0.8
"{'cat': 'RB', 'resp': 'reach'}",26,160,Left,39.45502302912867,51.30741521393833,1.9727511514564333,0.8059349935539492,Left,Correct,0.0,0.0,-45,45,2005,946,-2.44
"{'cat': 'RB', 'resp': 'reach'}",26,161,Right,62.66022734152654,73.112166080136,3.1330113670763273,1.1484432192269605,Right,Correct,0.0,0.0,-45,45,2013,866,-0.78
"{'cat': 'RB', 'resp': 'reach'}",26,162,Left,43.939019562188165,50.30144133723746,2.196950978109408,0.7901331928502157,Left,Correct,0.0,0.0,-45,45,2017,733,-2.48
"{'cat': 'RB', 'resp': 'reach'}",26,163,Left,35.418646957640036,35.70275981921597,1.7709323478820016,0.5608176398046487,Left,Correct,0.0,0.0,-45,45,2004,954,-2.43
"{'cat': 'RB', 'resp': 'reach'}",26,164,Right,55.90712896774037,53.65294578105941,2.7953564483870186,0.8427785015461386,Right,Correct,0.0,0.0,-45,45,2009,604,-0.83
"{'cat': 'RB', 'resp': 'reach'}",26,165,Left,39.44190422410788,57.96113731571934,1.972095211205394,0.9104514159238657,Left,Correct,0.0,0.0,-45,45,2012,846,-2.37
"{'cat': 'RB', 'resp': 'reach'}",26,166,Left,38.5504681155432,62.68269420509712,1.9275234057771597,0.9846174581097431,Left,Correct,0.0,0.0,-45,45,2004,875,-2.47
"{'cat': 'RB', 'resp': 'reach'}",26,167,Left,43.39073950431307,27.168435241649686,2.1695369752156535,0.42676078282348345,Left,Correct,0.0,0.0,-45,45,2013,1158,-2.44
"{'cat': 'RB', 'resp': 'reach'}",26,168,Left,36.25413745937208,63.01669762594784,1.8127068729686042,0.9898639715758356,Left,Correct,0.0,0.0,-45,45,2004,884,-2.52
"{'cat': 'RB', 'resp': 'reach'}",26,169,Right,56.172350215567135,65.12204801445371,2.8086175107783564,1.0229347381446479,Right,Correct,0.0,0.0,-45,45,2013,679,-0.76
"{'cat': 'RB', 'resp': 'reach'}",26,170,Left,37.75178586149346,21.576495707914024,1.887589293074673,0.33892280203097197,Left,Correct,0.0,0.0,-45,45,2012,950,-2.43
"{'cat': 'RB', 'resp': 'reach'}",26,171,Right,54.35118162669832,49.89305855635891,2.717559081334916,0.7837183311289125,Right,Correct,0.0,0.0,-45,45,2013,708,-0.8
"{'cat': 'RB', 'resp': 'reach'}",26,172,Right,53.7255292897253,50.56166123642444,2.686276464486265,0.7942207174682342,Right,Correct,0.0,0.0,-45,45,2008,692,-0.8
"{'cat': 'RB', 'resp': 'reach'}",26,173,Right,67.9090150068692,51.40816915783435,3.3954507503434597,0.807517632803769,Right,Correct,0.0,0.0,-45,45,2013,675,-0.84
"{'cat': 'RB', 'resp': 'reach'}",26,174,Right,60.550113353899135,41.93293161126036,3.0275056676949568,0.6586809494670938,Right,Correct,0.0,0.0,-45,45,2008,675,-0.78
"{'cat': 'RB', 'resp': 'reach'}",26,175,Left,40.7670218802354,52.19527237129293,2.03835109401177,0.8198814211688609,Left,Correct,0.0,0.0,-45,45,2004,879,-2.46
"{'cat': 'RB', 'resp': 'reach'}",26,176,Right,64.15937216539474,38.37815653913243,3.2079686082697374,0.6028426732082875,Right,Correct,0.0,0.0,-45,45,2005,725,-0.81
"{'cat': 'RB', 'resp': 'reach'}",26,177,Left,43.50605677502054,35.06590734608074,2.175302838751027,0.5508139845495381,Left,Correct,0.0,0.0,-45,45,2004,966,-2.4
"{'cat': 'RB', 'resp': 'reach'}",26,178,Right,56.552531248107385,56.030533617140534,2.827626562405369,0.8801255639416232,Right,Correct,0.0,0.0,-45,45,2004,637,-0.76
"{'cat': 'RB', 'resp': 'reach'}",26,179,Right,68.24450602034685,51.88162923938767,3.4122253010173424,0.8149547263736484,Right,Correct,0.0,0.0,-45,45,2004,613,-0.79
"{'cat': 'RB', 'resp': 'reach'}",26,180,Left,47.858157358072724,46.1386361588536,2.392907867903636,0.7247440020165342,Left,Correct,0.0,0.0,-45,45,2013,1092,-2.43
"{'cat': 'RB', 'resp': 'reach'}",26,181,Left,36.40683541527206,22.734162374370232,1.8203417707636032,0.3571073875041951,Left,Correct,0.0,0.0,-45,45,2013,929,-2.47
"{'cat': 'RB', 'resp': 'reach'}",26,182,Left,34.75187964919039,69.87074462381403,1.7375939824595195,1.0975270900551135,Left,Correct,0.0,0.0,-45,45,2005,783,-2.43
"{'cat': 'RB', 'resp': 'reach'}",26,183,Left,38.055797087064725,30.732286783670588,1.9027898543532362,0.48274163193797104,Left,Correct,0.0,0.0,-45,45,2009,916,-2.42
"{'cat': 'RB', 'resp': 'reach'}",26,184,Right,54.302293431059006,59.05084505260649,2.71511467155295,0.9275685050276886,Right,Correct,0.0,0.0,-45,45,2013,604,-0.8
"{'cat': 'RB', 'resp': 'reach'}",26,185,Right,65.4360049250468,40.01013811598614,3.27180024625234,0.6284777798714751,Right,Correct,0.0,0.0,-45,45,2009,675,-0.8
"{'cat': 'RB', 'resp': 'reach'}",26,186,Left,42.05275593007415,64.0582714363373,2.1026377965037075,1.0062249747302907,Left,Correct,0.0,0.0,-45,45,2017,937,-2.53
"{'cat': 'RB', 'resp': 'reach'}",26,187,Left,43.81665833232468,49.13475981650865,2.190832916616234,0.7718070023772128,Left,Correct,0.0,0.0,-45,45,2008,846,-2.61
"{'cat': 'RB', 'resp': 'reach'}",26,188,Left,43.56831924437439,30.794039244845045,2.1784159622187196,0.4837116373298049,Left,Correct,0.0,0.0,-45,45,2017,1108,-2.53
"{'cat': 'RB', 'resp': 'reach'}",26,189,Left,48.845285858128,62.83828227707512,2.4422642929064,0.9870614298293046,Left,Correct,0.0,0.0,-45,45,2004,887,-2.41
"{'cat': 'RB', 'resp': 'reach'}",26,190,Right,69.29785181659169,48.29328927971404,3.4648925908295842,0.7585892140941817,Right,Correct,0.0,0.0,-45,45,2004,712,-0.82
"{'cat': 'RB', 'resp': 'reach'}",26,191,Right,64.55855527972446,22.730572201217758,3.2279277639862234,0.3570509931961904,Right,Correct,0.0,0.0,-45,45,2004,642,-0.79
"{'cat': 'RB', 'resp': 'reach'}",26,192,Left,47.82987456898375,55.92370864716395,2.3914937284491873,0.8784475612371313,Left,Correct,0.0,0.0,-45,45,2004,917,-2.41
"{'cat': 'RB', 'resp': 'reach'}",26,193,Left,40.602242611535225,77.48969284045256,2.0301121305767613,1.2172052487824767,Left,Correct,0.0,0.0,-45,45,2008,938,-2.52
"{'cat': 'RB', 'resp': 'reach'}",26,194,Left,45.40275358991208,70.69041783850159,2.2701376794956043,1.1104024868031472,Left,Correct,0.0,0.0,-45,45,2004,1004,-2.54
"{'cat': 'RB', 'resp': 'reach'}",26,195,Left,41.203595942553854,30.36089687886627,2.0601797971276925,0.4769078529552178,Left,Correct,0.0,0.0,-45,45,2013,1142,-2.44
"{'cat': 'RB', 'resp': 'reach'}",26,196,Right,60.18505194717992,50.70491216837724,3.009252597358996,0.7964708978454482,Right,Correct,0.0,0.0,-45,45,2017,762,-0.82
"{'cat': 'RB', 'resp': 'reach'}",26,197,Left,44.2224455037788,54.79114041979919,2.21112227518894,0.8606572211232396,Left,Correct,0.0,0.0,-45,45,2008,1779,-2.5
"{'cat': 'RB', 'resp': 'reach'}",26,198,Right,54.29191153475137,55.98059221345173,2.714595576737569,0.8793410862069295,Right,Correct,0.0,0.0,-45,45,2004,796,-0.82
"{'cat': 'RB', 'resp': 'reach'}",26,199,Left,48.90547132939196,39.787880644194544,2.4452735664695977,0.6249865676685455,Right,Incorrect,0.0,0.0,-45,45,2016,1417,-0.84
"{'cat': 'RB', 'resp': 'reach'}",26,200,Left,43.805993607724,17.218526145355177,2.1902996803862,0.27046797621945806,Left,Correct,0.0,0.0,-45,45,2017,1229,-2.46
"{'cat': 'RB', 'resp': 'reach'}",26,201,Right,56.126554979863194,70.19225526350212,2.8063277489931595,1.1025773673735888,Right,Correct,0.0,0.0,-45,45,2012,929,-0.8
"{'cat': 'RB', 'resp': 'reach'}",26,202,Right,57.07060744000994,61.79338419778661,2.853530372000497,0.9706482091810901,Right,Correct,0.0,0.0,-45,45,2004,675,-0.8
"{'cat': 'RB', 'resp': 'reach'}",26,203,Left,31.295883896576942,36.8772402200182,1.564794194828847,0.5792663347993761,Left,Correct,0.0,0.0,-45,45,2004,988,-2.58
"{'cat': 'RB', 'resp': 'reach'}",26,204,Right,65.53748580999711,47.94296333052399,3.2768742904998556,0.7530863069524951,Right,Correct,0.0,0.0,-45,45,2012,725,-0.83
"{'cat': 'RB', 'resp': 'reach'}",26,205,Left,40.71056288733248,87.69207256909397,2.035528144366624,1.3774638548056433,Left,Correct,0.0,0.0,-45,45,2012,829,-2.59
"{'cat': 'RB', 'resp': 'reach'}",26,206,Left,38.513864710693035,48.25025124445399,1.9256932355346519,0.7579131742171923,Left,Correct,0.0,0.0,-45,45,2017,987,-2.54
"{'cat': 'RB', 'resp': 'reach'}",26,207,Left,40.01804115636482,40.53050558360744,2.0009020578182413,0.6366516929387062,Left,Correct,0.0,0.0,-45,45,2005,1099,-2.52
"{'cat': 'RB', 'resp': 'reach'}",26,208,Right,55.05953321679894,72.88454449043353,2.752976660839947,1.144867747656922,Right,Correct,0.0,0.0,-45,45,2004,604,-0.75
"{'cat': 'RB', 'resp': 'reach'}",26,209,Left,39.987813292368706,9.559719571373755,1.9993906646184354,0.15016372387903176,Left,Correct,0.0,0.0,-45,45,2004,1367,-2.4
"{'cat': 'RB', 'resp': 'reach'}",26,210,Left,46.006603876744606,46.64307363849121,2.3003301938372305,0.7326676874176586,Left,Correct,0.0,0.0,-45,45,2004,1209,-2.52
"{'cat': 'RB', 'resp': 'reach'}",26,211,Right,62.79201661282384,37.91312762301365,3.139600830641192,0.5955380160753596,Right,Correct,0.0,0.0,-45,45,2004,879,-0.82
"{'cat': 'RB', 'resp': 'reach'}",26,212,Left,43.205648722144055,69.62626179572027,2.160282436107203,1.0936867627717723,Left,Correct,0.0,0.0,-45,45,2004,1038,-2.62
"{'cat': 'RB', 'resp': 'reach'}",26,213,Right,52.0201811737301,64.63503568155554,2.601009058686505,1.0152847663084452,Right,Correct,0.0,0.0,-45,45,2004,617,-0.69
"{'cat': 'RB', 'resp': 'reach'}",26,214,Right,64.70475378368724,28.105849372363167,3.2352376891843617,0.4414856495555871,Right,Correct,0.0,0.0,-45,45,2009,641,-0.76
"{'cat': 'RB', 'resp': 'reach'}",26,215,Right,60.04032033137923,55.57004978756543,3.002016016568961,0.8728923008611732,Right,Correct,0.0,0.0,-45,45,2004,867,-0.78
"{'cat': 'RB', 'resp': 'reach'}",26,216,Left,43.650023311214404,16.3124885119613,2.18250116556072,0.25623597035472756,Left,Correct,0.0,0.0,-45,45,2004,875,-2.46
"{'cat': 'RB', 'resp': 'reach'}",26,217,Right,60.38124445896127,62.314511305885986,3.0190622229480635,0.9788340546530476,Right,Correct,0.0,0.0,-45,45,2017,675,-0.76
"{'cat': 'RB', 'resp': 'reach'}",26,218,Right,61.58320922333995,41.30531389949687,3.079160461166998,0.6488223535043988,Right,Correct,0.0,0.0,-45,45,2004,763,-0.74
"{'cat': 'RB', 'resp': 'reach'}",26,219,Right,53.854230423755425,59.762395496146894,2.6927115211877712,0.9387455132581142,Left,Incorrect,0.0,0.0,-45,45,2008,1225,-2.41
"{'cat': 'RB', 'resp': 'reach'}",26,220,Right,64.05686165374863,56.955776620302174,3.2028430826874312,0.8946592470492131,Right,Correct,0.0,0.0,-45,45,2004,625,-0.73
"{'cat': 'RB', 'resp': 'reach'}",26,221,Right,51.36337725952389,38.031540113471166,2.568168862976194,0.5973980351259327,Right,Correct,0.0,0.0,-45,45,2004,1492,-0.74
"{'cat': 'RB', 'resp': 'reach'}",26,222,Right,67.5395152093492,26.76917532653954,3.37697576046746,0.42048922274256884,Right,Correct,0.0,0.0,-45,45,2004,696,-0.78
"{'cat': 'RB', 'resp': 'reach'}",26,223,Left,39.869553465335485,31.83759364854072,1.9934776732667743,0.500103751571163,Left,Correct,0.0,0.0,-45,45,2004,987,-2.45
"{'cat': 'RB', 'resp': 'reach'}",26,224,Right,53.5888828036236,47.438581827891305,2.6794441401811797,0.745163500836108,Right,Correct,0.0,0.0,-45,45,2008,1158,-0.74
"{'cat': 'RB', 'resp': 'reach'}",26,225,Right,64.47714780645335,82.40101646724386,3.2238573903226673,1.2943521399091245,Right,Correct,0.0,0.0,-45,45,2004,937,-0.83
"{'cat': 'RB', 'resp': 'reach'}",26,226,Right,53.51107456892012,72.41274916308552,2.675553728446006,1.1374568039849495,Right,Correct,0.0,0.0,-45,45,2008,1067,-0.79
"{'cat': 'RB', 'resp': 'reach'}",26,227,Right,62.765768818666245,85.65243119222293,3.1382884409333123,1.345425242977964,Right,Correct,0.0,0.0,-45,45,2004,1025,-0.86
"{'cat': 'RB', 'resp': 'reach'}",26,228,Left,48.43110037130951,65.47569118205477,2.421555018565476,1.0284897520312863,Left,Correct,0.0,0.0,-45,45,2004,2337,-2.42
"{'cat': 'RB', 'resp': 'reach'}",26,229,Right,57.5748718786615,88.31342383341432,2.8787435939330748,1.3872240176420807,Right,Correct,0.0,0.0,-45,45,2005,866,-0.81
"{'cat': 'RB', 'resp': 'reach'}",26,230,Left,33.952286865344774,66.29609759652372,1.6976143432672388,1.0413766658545542,Left,Correct,0.0,0.0,-45,45,2008,1046,-2.56
"{'cat': 'RB', 'resp': 'reach'}",26,231,Left,48.499658226713734,65.1618207938,2.424982911335687,1.0235594875016836,Right,Incorrect,0.0,0.0,-45,45,2012,1625,-0.73
"{'cat': 'RB', 'resp': 'reach'}",26,232,Right,55.37472069092428,70.57044526892071,2.768736034546214,1.1085179620870094,Right,Correct,0.0,0.0,-45,45,2004,625,-0.76
"{'cat': 'RB', 'resp': 'reach'}",26,233,Right,57.52333995181597,74.12812807552427,2.8761669975907984,1.1644019129321517,Right,Correct,0.0,0.0,-45,45,2004,684,-0.71
"{'cat': 'RB', 'resp': 'reach'}",26,234,Right,64.77936043502712,18.80336100369124,3.2389680217513557,0.295362503959966,Right,Correct,0.0,0.0,-45,45,2004,808,-0.83
"{'cat': 'RB', 'resp': 'reach'}",26,235,Right,61.74497444094603,19.937194004826488,3.0872487220473017,0.3131727110937868,Right,Correct,0.0,0.0,-45,45,2004,796,-0.77
"{'cat': 'RB', 'resp': 'reach'}",26,236,Right,59.287925274148925,32.13832049090877,2.9643962637074464,0.5048275577647665,Right,Correct,0.0,0.0,-45,45,2004,866,-0.79
"{'cat': 'RB', 'resp': 'reach'}",26,237,Left,37.31532053302139,56.23278461117335,1.8657660266510698,0.8833025151267969,Left,Correct,0.0,0.0,-45,45,2012,830,-2.53
"{'cat': 'RB', 'resp': 'reach'}",26,238,Left,36.713729627552944,86.22653098112136,1.835686481377647,1.3544431813741178,Left,Correct,0.0,0.0,-45,45,2008,1017,-2.43
"{'cat': 'RB', 'resp': 'reach'}",26,239,Right,63.708047499162966,12.765120950755147,3.1854023749581484,0.2005140510053876,Right,Correct,0.0,0.0,-45,45,2004,938,-0.75
"{'cat': 'RB', 'resp': 'reach'}",26,240,Left,41.8710269773373,40.32165861722691,2.093551348866865,0.6333711324621781,Left,Correct,0.0,0.0,-45,45,2004,1109,-2.4
"{'cat': 'RB', 'resp': 'reach'}",26,241,Left,45.697914655601046,49.386066474128604,2.2848957327800523,0.775754518124098,Left,Correct,0.0,0.0,-45,45,2008,1258,-2.43
"{'cat': 'RB', 'resp': 'reach'}",26,242,Left,37.692975041464486,45.14023985199559,1.8846487520732242,0.7090612295015527,Left,Correct,0.0,0.0,-45,45,2013,929,-2.42
"{'cat': 'RB', 'resp': 'reach'}",26,243,Right,62.46006290189487,19.51543921508679,3.1230031450947435,0.3065478023484741,Right,Correct,0.0,0.0,-45,45,2004,817,-0.71
"{'cat': 'RB', 'resp': 'reach'}",26,244,Left,40.028189949173345,14.524276310481419,2.0014094974586674,0.22814679877858346,Left,Correct,0.0,0.0,-45,45,2012,1029,-2.47
"{'cat': 'RB', 'resp': 'reach'}",26,245,Right,59.57558994817851,55.09727692754108,2.978779497408926,0.8654660021418275,Right,Correct,0.0,0.0,-45,45,2004,717,-0.77
"{'cat': 'RB', 'resp': 'reach'}",26,246,Right,63.57239741085924,30.51824706987508,3.178619870542962,0.47937950397578893,Right,Correct,0.0,0.0,-45,45,2009,795,-0.75
"{'cat': 'RB', 'resp': 'reach'}",26,247,Right,54.423653859634754,68.81062816818078,2.721182692981738,1.0808748197102782,Right,Correct,0.0,0.0,-45,45,2004,1088,-0.84
"{'cat': 'RB', 'resp': 'reach'}",26,248,Right,64.3212685981372,78.1745356988369,3.2160634299068596,1.2279627352462952,Right,Correct,0.0,0.0,-45,45,2004,834,-0.76
"{'cat': 'RB', 'resp': 'reach'}",26,249,Left,34.93269365956366,19.753009368947172,1.746634682978183,0.31027954559887394,Left,Correct,0.0,0.0,-45,45,2005,1087,-2.52
"{'cat': 'RB', 'resp': 'reach'}",26,250,Left,47.17503127278715,74.98465970802789,2.3587515636393577,1.177856280353355,Right,Incorrect,0.0,0.0,-45,45,2013,1042,-0.72
"{'cat': 'RB', 'resp': 'reach'}",26,251,Right,53.801388558361595,51.468628599317476,2.69006942791808,0.8084673274897866,Right,Correct,0.0,0.0,-45,45,2004,883,-0.81
"{'cat': 'RB', 'resp': 'reach'}",26,252,Right,69.19755141754158,56.73650115950461,3.459877570877079,0.8912148761654425,Right,Correct,0.0,0.0,-45,45,2004,733,-0.81
"{'cat': 'RB', 'resp': 'reach'}",26,253,Right,52.448578756173596,43.88433629887434,2.62242893780868,0.6893335426210376,Right,Correct,0.0,0.0,-45,45,2004,696,-0.82
"{'cat': 'RB', 'resp': 'reach'}",26,254,Right,61.04593131558587,82.32932166046584,3.0522965657792933,1.2932259605177525,Right,Correct,0.0,0.0,-45,45,2013,725,-0.82
"{'cat': 'RB', 'resp': 'reach'}",26,255,Right,52.78548253583903,70.03066352631305,2.6392741267919515,1.1000390903014186,Left,Incorrect,0.0,0.0,-45,45,2013,1249,-2.51
"{'cat': 'RB', 'resp': 'reach'}",26,256,Left,45.5316980061552,60.45667456055362,2.27658490030776,0.949651223299521,Right,Incorrect,0.0,0.0,-45,45,2004,2279,-0.8
"{'cat': 'RB', 'resp': 'reach'}",26,257,Right,66.89066795896879,48.4588355782604,3.3445333979484393,0.7611896092708927,Right,Correct,0.0,0.0,-45,45,2004,605,-0.82
"{'cat': 'RB', 'resp': 'reach'}",26,258,Right,57.827347914048175,13.526088315391888,2.891367395702409,0.21246729841720952,Right,Correct,0.0,0.0,-45,45,2004,812,-0.8
"{'cat': 'RB', 'resp': 'reach'}",26,259,Right,60.30367126930857,75.34592549149286,3.015183563465429,1.1835310300099897,Right,Correct,0.0,0.0,-45,45,2004,783,-0.9
"{'cat': 'RB', 'resp': 'reach'}",26,260,Left,41.29210393905487,25.42362648120311,2.0646051969527432,0.3993533909047931,Left,Correct,0.0,0.0,-45,45,2004,1038,-2.51
"{'cat': 'RB', 'resp': 'reach'}",26,261,Left,32.15077955011301,45.0439821307428,1.6075389775056506,0.7075492167518576,Left,Correct,0.0,0.0,-45,45,2017,784,-2.42
"{'cat': 'RB', 'resp': 'reach'}",26,262,Right,68.20322886412494,54.885060504543496,3.410161443206247,0.8621325143645258,Right,Correct,0.0,0.0,-45,45,2004,604,-0.74
"{'cat': 'RB', 'resp': 'reach'}",26,263,Right,60.674101775076664,58.490721843517804,3.0337050887538335,0.9187701102337977,Right,Correct,0.0,0.0,-45,45,2009,741,-0.72
"{'cat': 'RB', 'resp': 'reach'}",26,264,Right,59.076771189238244,22.592718725973963,2.953838559461912,0.3548855958707018,Right,Correct,0.0,0.0,-45,45,2016,621,-0.74
"{'cat': 'RB', 'resp': 'reach'}",26,265,Right,60.65743257019547,90.43016473611338,3.032871628509773,1.4204737059894428,Right,Correct,0.0,0.0,-45,45,2004,646,-0.8
"{'cat': 'RB', 'resp': 'reach'}",26,266,Left,40.95144237862696,33.84928823597347,2.0475721189313476,0.5317033762568882,Left,Correct,0.0,0.0,-45,45,2004,1021,-2.42
"{'cat': 'RB', 'resp': 'reach'}",26,267,Right,65.24921430321972,53.12101570067366,3.262460715160986,0.8344229633823221,Right,Correct,0.0,0.0,-45,45,2004,666,-0.78
"{'cat': 'RB', 'resp': 'reach'}",26,268,Right,62.72872095946369,35.606046651207876,3.1364360479731848,0.5592984729140507,Right,Correct,0.0,0.0,-45,45,2017,554,-0.71
"{'cat': 'RB', 'resp': 'reach'}",26,269,Left,35.7189547542546,65.13354985740916,1.7859477377127297,1.0231154086713057,Left,Correct,0.0,0.0,-45,45,2004,867,-2.44
"{'cat': 'RB', 'resp': 'reach'}",26,270,Left,45.78611855817093,18.402546708692647,2.289305927908546,0.28906652773685926,Right,Incorrect,0.0,0.0,-45,45,2004,796,-0.84
"{'cat': 'RB', 'resp': 'reach'}",26,271,Left,42.45808541842608,78.2777283228333,2.122904270921304,1.2295836811935539,Left,Correct,0.0,0.0,-45,45,2004,1292,-2.47
"{'cat': 'RB', 'resp': 'reach'}",26,272,Left,48.656926463155976,63.024502615055425,2.432846323157799,0.9899865720580441,Right,Incorrect,0.0,0.0,-45,45,2004,1267,-0.78
"{'cat': 'RB', 'resp': 'reach'}",26,273,Right,51.04414536531335,39.16524416567209,2.552207268265667,0.6152062167346298,Right,Correct,0.0,0.0,-45,45,2017,1608,-0.76
"{'cat': 'RB', 'resp': 'reach'}",26,274,Left,44.52348001045033,80.97027906328736,2.2261740005225166,1.2718781693216952,Left,Correct,0.0,0.0,-45,45,2008,1088,-2.29
"{'cat': 'RB', 'resp': 'reach'}",26,275,Left,36.88286655151152,80.24102836081775,1.8441433275755759,1.2604231260741765,Left,Correct,0.0,0.0,-45,45,2012,987,-2.46
"{'cat': 'RB', 'resp': 'reach'}",26,276,Left,46.99089722271625,31.287235592514303,2.3495448611358127,0.49145874744288015,Right,Incorrect,0.0,0.0,-45,45,2004,1542,-0.84
"{'cat': 'RB', 'resp': 'reach'}",26,277,Left,40.20728775164672,67.06570724353791,2.010364387582336,1.0534656659205124,Left,Correct,0.0,0.0,-45,45,2004,1263,-2.45
"{'cat': 'RB', 'resp': 'reach'}",26,278,Right,60.16863715021059,53.4985117477951,3.0084318575105296,0.8403526574243015,Right,Correct,0.0,0.0,-45,45,2004,604,-0.8
"{'cat': 'RB', 'resp': 'reach'}",26,279,Right,60.90064104937335,19.772390335512686,3.0450320524686676,0.31058398110978236,Right,Correct,0.0,0.0,-45,45,2004,1087,-0.8
"{'cat': 'RB', 'resp': 'reach'}",26,280,Left,38.545754334816934,70.93266746768184,1.9272877167408466,1.1142077350799848,Left,Correct,0.0,0.0,-45,45,2008,1088,-2.38
"{'cat': 'RB', 'resp': 'reach'}",26,281,Right,51.33390967538037,34.749196754730114,2.5666954837690183,0.5458391062140321,Right,Correct,0.0,0.0,-45,45,2004,754,-0.8
"{'cat': 'RB', 'resp': 'reach'}",26,282,Right,66.88477149267865,57.50472326099535,3.3442385746339323,0.9032820807172854,Right,Correct,0.0,0.0,-45,45,2012,775,-0.78
"{'cat': 'RB', 'resp': 'reach'}",26,283,Left,35.81504166790714,51.435145274494005,1.790752083395357,0.8079413726533706,Left,Correct,0.0,0.0,-45,45,2004,988,-2.4
"{'cat': 'RB', 'resp': 'reach'}",26,284,Right,59.71565610045979,39.15309412188557,2.985782805022989,0.6150153642931271,Right,Correct,0.0,0.0,-45,45,2004,692,-0.8
"{'cat': 'RB', 'resp': 'reach'}",26,285,Left,45.28191125495599,44.48919806492513,2.2640955627477997,0.6988346890243501,Right,Incorrect,0.0,0.0,-45,45,2004,2025,-0.82
"{'cat': 'RB', 'resp': 'reach'}",26,286,Right,51.80067083203468,46.568626863299386,2.5900335416017346,0.7314982802075283,Right,Correct,0.0,0.0,-45,45,2004,746,-0.82
"{'cat': 'RB', 'resp': 'reach'}",26,287,Left,42.185202691957414,42.012395163530975,2.1092601345978705,0.6599291600273014,Left,Correct,0.0,0.0,-45,45,2012,1534,-2.41
"{'cat': 'RB', 'resp': 'reach'}",26,288,Right,58.63900169984714,45.24807334026833,2.931950084992357,0.7107550739743957,Right,Correct,0.0,0.0,-45,45,2005,829,-0.72
"{'cat': 'RB', 'resp': 'reach'}",26,289,Left,46.783917758405615,66.42323683131218,2.3391958879202805,1.0433737642845267,Left,Correct,0.0,0.0,-45,45,2016,1509,-2.47
"{'cat': 'RB', 'resp': 'reach'}",26,290,Right,57.4611533274527,15.735535677079127,2.873057666372635,0.24717321641705942,Right,Correct,0.0,0.0,-45,45,2004,704,-0.87
"{'cat': 'RB', 'resp': 'reach'}",26,291,Left,37.43610952046332,47.83774926892631,1.8718054760231662,0.7514336083376472,Left,Correct,0.0,0.0,-45,45,2009,966,-2.46
"{'cat': 'RB', 'resp': 'reach'}",26,292,Left,42.309256442941226,67.09955946328401,2.1154628221470615,1.0539974153448226,Left,Correct,0.0,0.0,-45,45,2012,967,-2.54
"{'cat': 'RB', 'resp': 'reach'}",26,293,Left,43.94135447541417,28.58024956906018,2.197067723770709,0.44893751041961155,Left,Correct,0.0,0.0,-45,45,2004,1329,-2.48
"{'cat': 'RB', 'resp': 'reach'}",26,294,Left,40.06111511889879,31.29451456586935,2.0030557559449393,0.49157308528896965,Left,Correct,0.0,0.0,-45,45,2008,1005,-2.32
"{'cat': 'RB', 'resp': 'reach'}",26,295,Left,40.30007814790601,9.054170832180809,2.0150039073953003,0.14222258285363104,Left,Correct,0.0,0.0,-45,45,2016,1854,-2.52
"{'cat': 'RB', 'resp': 'reach'}",26,296,Right,56.54992393592738,80.85476289727261,2.827496196796369,1.2700636456290808,Right,Correct,0.0,0.0,-45,45,2003,655,-0.79
"{'cat': 'RB', 'resp': 'reach'}",26,297,Right,65.93027377435043,20.68734768508691,3.2965136887175213,0.32495609754863425,Right,Correct,0.0,0.0,-45,45,2008,613,-0.76
"{'cat': 'RB', 'resp': 'reach'}",26,298,Right,56.53132526282733,15.047003226676303,2.8265662631413666,0.23635777397734092,Right,Correct,0.0,0.0,-45,45,2004,642,-0.76
"{'cat': 'RB', 'resp': 'reach'}",26,299,Right,67.26454513255383,69.07261121529329,3.3632272566276917,1.0849900397911467,Right,Correct,0.0,0.0,-45,45,2013,929,-0.81
"{'cat': 'RB', 'resp': 'reach'}",26,300,Left,42.040503372585945,14.098640307053678,2.102025168629297,0.2214609240712239,Left,Correct,0.0,0.0,-45,45,2004,988,-2.43
"{'cat': 'RB', 'resp': 'reach'}",26,301,Left,40.36689992828854,52.59653966661088,2.018344996414427,0.8261845131043444,Left,Correct,0.0,0.0,-45,45,2004,966,-2.35
"{'cat': 'RB', 'resp': 'reach'}",26,302,Left,39.65785009005363,79.708397189974,1.9828925045026813,1.252056575207198,Left,Correct,0.0,0.0,-45,45,2009,1016,-2.51
"{'cat': 'RB', 'resp': 'reach'}",26,303,Left,41.70509196553804,55.953199196566175,2.0852545982769017,0.8789107977038929,Left,Correct,0.0,0.0,-45,45,2012,950,-2.51
"{'cat': 'RB', 'resp': 'reach'}",26,304,Right,64.5039098967237,43.788436825652056,3.225195494836185,0.6878271572182463,Right,Correct,0.0,0.0,-45,45,2009,662,-0.81
"{'cat': 'RB', 'resp': 'reach'}",26,305,Right,51.2121345059261,50.98591790174593,2.5606067252963047,0.8008849255832868,Right,Correct,0.0,0.0,-45,45,2004,796,-0.76
"{'cat': 'RB', 'resp': 'reach'}",26,306,Right,66.26140817576251,28.53249529028937,3.3130704087881258,0.4481873879627922,Right,Correct,0.0,0.0,-45,45,2013,708,-0.7
"{'cat': 'RB', 'resp': 'reach'}",26,307,Right,64.58183542796104,61.679508884984585,3.229091771398052,0.9688594599504696,Right,Correct,0.0,0.0,-45,45,2008,692,-0.75
"{'cat': 'RB', 'resp': 'reach'}",26,308,Right,66.23511319293175,53.008892632388445,3.3117556596465874,0.8326617383442082,Right,Correct,0.0,0.0,-45,45,2004,675,-0.8
"{'cat': 'RB', 'resp': 'reach'}",26,309,Left,37.88552597329419,38.94118188207669,1.8942762986647097,0.6116866546141804,Left,Correct,0.0,0.0,-45,45,2016,1025,-2.36
"{'cat': 'RB', 'resp': 'reach'}",26,310,Right,53.71348840542414,79.71594079385878,2.685674420271207,1.252175069859928,Right,Correct,0.0,0.0,-45,45,2004,1712,-0.77
"{'cat': 'RB', 'resp': 'reach'}",26,311,Right,63.0091491820297,55.46852064534197,3.150457459101485,0.8712974848245006,Right,Correct,0.0,0.0,-45,45,2016,675,-0.8
"{'cat': 'RB', 'resp': 'reach'}",26,312,Right,64.33198745966743,62.015831905586005,3.2165993729833713,0.9741424096042424,Right,Correct,0.0,0.0,-45,45,2004,688,-0.8
"{'cat': 'RB', 'resp': 'reach'}",26,313,Right,61.02585450536221,17.378498397868597,3.0512927252681106,0.27298081448582984,Right,Correct,0.0,0.0,-45,45,2004,796,-0.81
"{'cat': 'RB', 'resp': 'reach'}",26,314,Right,56.50180586831689,64.60791629778625,2.8250902934158444,1.0148587760243477,Right,Correct,0.0,0.0,-45,45,2004,663,-0.8
"{'cat': 'RB', 'resp': 'reach'}",26,315,Right,53.76678545196541,25.373993630789272,2.6883392725982707,0.3985737599136088,Right,Correct,0.0,0.0,-45,45,2004,780,-0.8
"{'cat': 'RB', 'resp': 'reach'}",26,316,Left,32.85169544916309,65.05143619974528,1.6425847724581544,1.0218255703529244,Left,Correct,0.0,0.0,-45,45,2004,867,-2.48
"{'cat': 'RB', 'resp': 'reach'}",26,317,Left,40.66132283236035,47.37690961444779,2.0330661416180176,0.744194755972684,Left,Correct,0.0,0.0,-45,45,2004,1541,-2.45
"{'cat': 'RB', 'resp': 'reach'}",26,318,Right,61.20423514219757,29.744495105850714,3.0602117571098786,0.46722543654639076,Right,Correct,0.0,0.0,-45,45,2004,676,-0.85
"{'cat': 'RB', 'resp': 'reach'}",26,319,Right,58.160399798681695,90.25181853068892,2.9080199899340844,1.4176722503456571,Right,Correct,0.0,0.0,-45,45,2004,605,-0.76
"{'cat': 'RB', 'resp': 'reach'}",26,320,Right,60.932555065591224,16.014560089891155,3.0466277532795614,0.25155612164437174,Right,Correct,0.0,0.0,-45,45,2012,775,-0.81
"{'cat': 'RB', 'resp': 'reach'}",26,321,Right,64.21420199935838,34.632011704031704,3.2107100999679186,0.5439983677421086,Right,Correct,0.0,0.0,-45,45,2004,763,-0.81
"{'cat': 'RB', 'resp': 'reach'}",26,322,Right,57.61976860363789,81.24561265302455,2.8809884301818944,1.2762030992357194,Right,Correct,0.0,0.0,-45,45,2012,604,-0.77
"{'cat': 'RB', 'resp': 'reach'}",26,323,Left,35.637685147510325,58.73131316941735,1.7818842573755163,0.9225493099436151,Left,Correct,0.0,0.0,-45,45,2004,938,-2.47
"{'cat': 'RB', 'resp': 'reach'}",26,324,Left,43.45199509820995,33.33065900742345,2.1725997549104976,0.5235567673851399,Left,Correct,0.0,0.0,-45,45,2005,979,-2.54
"{'cat': 'RB', 'resp': 'reach'}",26,325,Left,41.550809642218724,34.63269042916633,2.077540482110936,0.5440090291315924,Left,Correct,0.0,0.0,-45,45,2016,905,-2.31
"{'cat': 'RB', 'resp': 'reach'}",26,326,Left,41.80264053477892,72.95868143122593,2.090132026738946,1.1460322879996871,Left,Correct,0.0,0.0,-45,45,2004,933,-2.41
"{'cat': 'RB', 'resp': 'reach'}",26,327,Right,63.70436497497784,34.43706577407122,3.185218248748892,0.5409361642350533,Right,Correct,0.0,0.0,-45,45,2004,675,-0.8
"{'cat': 'RB', 'resp': 'reach'}",26,328,Right,58.11776528795417,25.263348213815856,2.9058882643977086,0.3968357457680235,Right,Correct,0.0,0.0,-45,45,2004,696,-0.76
"{'cat': 'RB', 'resp': 'reach'}",26,329,Right,60.351294701125234,44.367945622853384,3.0175647350562618,0.6969300601181381,Right,Correct,0.0,0.0,-45,45,2005,741,-0.8
"{'cat': 'RB', 'resp': 'reach'}",26,330,Right,62.40001817111784,29.169504214643297,3.1200009085558924,0.4581935007478995,Right,Correct,0.0,0.0,-45,45,2012,604,-0.81
"{'cat': 'RB', 'resp': 'reach'}",26,331,Left,37.05697318241842,67.28783858077705,1.8528486591209208,1.0569548968065254,Left,Correct,0.0,0.0,-45,45,2017,1067,-2.46
"{'cat': 'RB', 'resp': 'reach'}",26,332,Right,60.71832431737456,90.04183002879091,3.035916215868728,1.4143737586711518,Right,Correct,0.0,0.0,-45,45,2004,1246,-0.83
"{'cat': 'RB', 'resp': 'reach'}",26,333,Right,64.21041362960082,47.73046705056286,3.2105206814800407,0.7497484231922897,Right,Correct,0.0,0.0,-45,45,2012,929,-0.84
"{'cat': 'RB', 'resp': 'reach'}",26,334,Right,60.7387882840676,16.67674779304796,3.0369394142033803,0.26195774176204634,Right,Correct,0.0,0.0,-45,45,2009,846,-0.82
"{'cat': 'RB', 'resp': 'reach'}",26,335,Left,43.591440852433585,31.162488085364416,2.1795720426216794,0.4894992181828015,Left,Correct,0.0,0.0,-45,45,2017,1016,-2.41
"{'cat': 'RB', 'resp': 'reach'}",26,336,Left,34.8145232429058,25.10951628019928,1.74072616214529,0.39441935940533684,Left,Correct,0.0,0.0,-45,45,2009,945,-2.38
"{'cat': 'RB', 'resp': 'reach'}",26,337,Right,64.96987945522253,79.74670960826755,3.2484939727611266,1.2526583852664595,Right,Correct,0.0,0.0,-45,45,2004,692,-0.74
"{'cat': 'RB', 'resp': 'reach'}",26,338,Left,33.26531602942415,37.77595484090767,1.6632658014712076,0.5933833110526767,Left,Correct,0.0,0.0,-45,45,2004,1179,-2.41
"{'cat': 'RB', 'resp': 'reach'}",26,339,Left,41.209377322372646,13.133412827921113,2.060468866118632,0.2062991662837946,Left,Correct,0.0,0.0,-45,45,2004,1075,-2.38
"{'cat': 'RB', 'resp': 'reach'}",26,340,Left,33.3701445972046,35.22790685810287,1.6685072298602301,0.5533586669338073,Left,Correct,0.0,0.0,-45,45,2021,950,-2.37
"{'cat': 'RB', 'resp': 'reach'}",26,341,Right,60.22213237605636,38.01442565243843,3.0111066188028177,0.5971292018006797,Right,Correct,0.0,0.0,-45,45,2016,625,-0.75
"{'cat': 'RB', 'resp': 'reach'}",26,342,Right,59.499988808959955,48.68114022243514,2.974999440447998,0.764681562455884,Right,Correct,0.0,0.0,-45,45,2013,654,-0.81
"{'cat': 'RB', 'resp': 'reach'}",26,343,Left,33.73209075891923,62.65861830944508,1.6866045379459615,0.984239274825198,Left,Correct,0.0,0.0,-45,45,2012,829,-2.34
"{'cat': 'RB', 'resp': 'reach'}",26,344,Left,36.40661301763599,65.9311199982169,1.8203306508817996,1.0356436111467264,Left,Correct,0.0,0.0,-45,45,2012,1071,-2.51
"{'cat': 'RB', 'resp': 'reach'}",26,345,Right,67.42605365413893,58.153653677298315,3.371302682706946,0.9134754558600273,Right,Correct,0.0,0.0,-45,45,2004,654,-0.81
"{'cat': 'RB', 'resp': 'reach'}",26,346,Left,45.006263069172476,36.83395040238975,2.250313153458624,0.5785863399341922,Left,Correct,0.0,0.0,-45,45,2004,1321,-2.39
"{'cat': 'RB', 'resp': 'reach'}",26,347,Left,42.73192100072724,63.967199006867176,2.136596050036362,1.0047944123534511,Left,Correct,0.0,0.0,-45,45,2009,1116,-2.48
"{'cat': 'RB', 'resp': 'reach'}",26,348,Right,52.9802324667136,23.752753068420073,2.6490116233356797,0.37310737271140465,Right,Correct,0.0,0.0,-45,45,2004,625,-0.76
"{'cat': 'RB', 'resp': 'reach'}",26,349,Right,64.28685929441903,44.99073412890581,3.214342964720952,0.7067127990949104,Right,Correct,0.0,0.0,-45,45,2004,696,-0.78
"{'cat': 'RB', 'resp': 'reach'}",26,350,Right,63.22659189765434,70.126013062041,3.161329594882717,1.1015368373062493,Right,Correct,0.0,0.0,-45,45,2013,545,-0.8
"{'cat': 'RB', 'resp': 'reach'}",26,351,Right,63.61712249122196,50.3074711139881,3.180856124561098,0.7902279083619287,Right,Correct,0.0,0.0,-45,45,2004,663,-0.82
"{'cat': 'RB', 'resp': 'reach'}",26,352,Left,43.530918479379324,42.25533208673764,2.176545923968966,0.6637452042934601,Left,Correct,0.0,0.0,-45,45,2008,933,-2.43
"{'cat': 'RB', 'resp': 'reach'}",26,353,Left,47.490802845650926,65.89307241711279,2.3745401422825463,1.035045961140309,Left,Correct,0.0,0.0,-45,45,2004,1992,-2.54
"{'cat': 'RB', 'resp': 'reach'}",26,354,Left,46.0176136161935,50.829070511886655,2.300880680809675,0.7984211725447037,Left,Correct,0.0,0.0,-45,45,2008,1421,-2.29
"{'cat': 'RB', 'resp': 'reach'}",26,355,Right,52.17425944389976,40.84221195244069,2.6087129721949878,0.6415479651307245,Right,Correct,0.0,0.0,-45,45,2012,617,-0.75
"{'cat': 'RB', 'resp': 'reach'}",26,356,Left,40.83538411185895,31.352414923830768,2.0417692055929475,0.49248258198502864,Left,Correct,0.0,0.0,-45,45,2004,933,-2.48
"{'cat': 'RB', 'resp': 'reach'}",26,357,Right,57.983951117051845,86.02962481072072,2.8991975558525924,1.3513501864822322,Right,Correct,0.0,0.0,-45,45,2004,604,-0.8
"{'cat': 'RB', 'resp': 'reach'}",26,358,Left,44.3109295505353,33.311481530359224,2.215546477526765,0.5232555282798431,Left,Correct,0.0,0.0,-45,45,2004,1521,-2.45
"{'cat': 'RB', 'resp': 'reach'}",26,359,Right,68.91526000142858,53.91618672528398,3.445763000071429,0.8469134806286385,Right,Correct,0.0,0.0,-45,45,2009,571,-0.74
"{'cat': 'RB', 'resp': 'reach'}",26,360,Right,66.56529792486612,49.36442043187637,3.3282648962433057,0.7754145028875035,Right,Correct,0.0,0.0,-45,45,2013,596,-0.75
"{'cat': 'RB', 'resp': 'reach'}",26,361,Right,58.845564438163976,49.35119614680035,2.942278221908199,0.7752067763032844,Right,Correct,0.0,0.0,-45,45,2013,625,-0.8
"{'cat': 'RB', 'resp': 'reach'}",26,362,Left,36.961993361822195,82.94998626533311,1.8480996680911097,1.3029753373327235,Left,Correct,0.0,0.0,-45,45,2008,904,-2.5
"{'cat': 'RB', 'resp': 'reach'}",26,363,Left,44.32014135545989,17.825216568213897,2.2160070677729946,0.2799978470967392,Left,Correct,0.0,0.0,-45,45,2004,1525,-2.37
"{'cat': 'RB', 'resp': 'reach'}",26,364,Left,33.74965895260847,57.42720644944857,1.6874829476304234,0.90206444948886,Left,Correct,0.0,0.0,-45,45,2013,987,-2.49
"{'cat': 'RB', 'resp': 'reach'}",26,365,Right,61.091553295358494,12.555573935403913,3.054577664767925,0.1972224941853421,Right,Correct,0.0,0.0,-45,45,2016,746,-0.87
"{'cat': 'RB', 'resp': 'reach'}",26,366,Right,53.4460237900712,32.85250965288451,2.6723011895035604,0.5160460148874486,Right,Correct,0.0,0.0,-45,45,2012,658,-0.81
"{'cat': 'RB', 'resp': 'reach'}",26,367,Left,40.01931210065162,75.64324028396942,2.0009656050325813,1.1882012398492292,Left,Correct,0.0,0.0,-45,45,2004,1854,-2.39
"{'cat': 'RB', 'resp': 'reach'}",26,368,Left,41.19765004215625,35.038315776687355,2.0598825021078127,0.5503805771910018,Left,Correct,0.0,0.0,-45,45,2004,1109,-2.34
"{'cat': 'RB', 'resp': 'reach'}",26,369,Right,53.93947671750206,51.920570114963006,2.696973835875103,0.8155664082168076,Right,Correct,0.0,0.0,-45,45,2013,604,-0.8
"{'cat': 'RB', 'resp': 'reach'}",26,370,Left,36.86537954357705,77.79587803709306,1.8432689771788524,1.2220147946044955,Left,Correct,0.0,0.0,-45,45,2004,846,-2.51
"{'cat': 'RB', 'resp': 'reach'}",26,371,Left,40.982034678676825,23.519751818734413,2.049101733933841,0.36944739763995604,Left,Correct,0.0,0.0,-45,45,2012,1534,-2.44
"{'cat': 'RB', 'resp': 'reach'}",26,372,Right,63.323956447573806,45.0147213716636,3.16619782237869,0.707089589823049,Right,Correct,0.0,0.0,-45,45,2012,587,-0.79
"{'cat': 'RB', 'resp': 'reach'}",26,373,Right,51.78370883472813,59.995606935367334,2.5891854417364066,0.9424087899790542,Left,Incorrect,0.0,0.0,-45,45,2013,1429,-2.43
"{'cat': 'RB', 'resp': 'reach'}",26,374,Right,58.5698151598084,80.58486638855237,2.92849075799042,1.2658241211839558,Right,Correct,0.0,0.0,-45,45,2008,775,-0.78
"{'cat': 'RB', 'resp': 'reach'}",26,375,Left,40.68530464420295,42.533128897969476,2.0342652322101475,0.6681088264002433,Left,Correct,0.0,0.0,-45,45,2004,929,-2.47
"{'cat': 'RB', 'resp': 'reach'}",26,376,Right,60.57400158782101,28.792856880429078,3.0287000793910503,0.4522771382570916,Right,Correct,0.0,0.0,-45,45,2005,691,-0.74
"{'cat': 'RB', 'resp': 'reach'}",26,377,Left,38.37962390292433,29.678372667119202,1.9189811951462163,0.466186787707609,Left,Correct,0.0,0.0,-45,45,2013,800,-2.42
"{'cat': 'RB', 'resp': 'reach'}",26,378,Right,61.43190376540174,63.577713452634626,3.071595188270087,0.9986763875741695,Right,Correct,0.0,0.0,-45,45,2004,809,-0.8
"{'cat': 'RB', 'resp': 'reach'}",26,379,Right,60.201589873727244,23.05338245602007,3.010079493686362,0.36212168482114243,Right,Correct,0.0,0.0,-45,45,2008,671,-0.76
"{'cat': 'RB', 'resp': 'reach'}",26,380,Left,41.054672705868946,70.22547565775871,2.052733635293447,1.103099192106318,Left,Correct,0.0,0.0,-45,45,2008,987,-2.4
"{'cat': 'RB', 'resp': 'reach'}",26,381,Left,33.70813124164407,78.65236654239655,1.6854065620822036,1.235468484585223,Left,Correct,0.0,0.0,-45,45,2004,904,-2.48
"{'cat': 'RB', 'resp': 'reach'}",26,382,Left,42.257514017605814,68.15601640672756,2.1128757008802905,1.0705922022066034,Left,Correct,0.0,0.0,-45,45,2004,987,-2.39
"{'cat': 'RB', 'resp': 'reach'}",26,383,Left,44.7121732447826,79.04517797037833,2.23560866223913,1.2416387520671917,Left,Correct,0.0,0.0,-45,45,2016,1513,-2.39
"{'cat': 'RB', 'resp': 'reach'}",26,384,Left,36.8400129262041,14.416815364698884,1.8420006463102052,0.22645880618949235,Left,Correct,0.0,0.0,-45,45,2004,917,-2.54
"{'cat': 'RB', 'resp': 'reach'}",26,385,Left,47.246690370214736,25.354799178922743,2.3623345185107367,0.398272254168741,Right,Incorrect,0.0,0.0,-45,45,2004,1158,-0.77
"{'cat': 'RB', 'resp': 'reach'}",26,386,Right,61.557823799422096,80.685699543556,3.0778911899711043,1.267408004678944,Right,Correct,0.0,0.0,-45,45,2004,621,-0.82
"{'cat': 'RB', 'resp': 'reach'}",26,387,Left,37.24971533699527,43.633069646431316,1.8624857668497636,0.6853866552740021,Left,Correct,0.0,0.0,-45,45,2013,900,-2.51
"{'cat': 'RB', 'resp': 'reach'}",26,388,Left,38.63875229934831,13.55463603398836,1.9319376149674157,0.21291572493230662,Left,Correct,0.0,0.0,-45,45,2012,900,-2.39
"{'cat': 'RB', 'resp': 'reach'}",26,389,Left,32.11612993239434,45.94839485173151,1.6058064966197168,0.721755698552214,Left,Correct,0.0,0.0,-45,45,2008,863,-2.44
"{'cat': 'RB', 'resp': 'reach'}",26,390,Left,34.40280238004574,47.48675537262109,1.720140119002287,0.7459202091072104,Left,Correct,0.0,0.0,-45,45,2008,917,-2.48
"{'cat': 'RB', 'resp': 'reach'}",26,391,Left,43.719409886863296,20.1647200795302,2.185970494343165,0.3167466823177333,Right,Incorrect,0.0,0.0,-45,45,2009,733,-0.81
"{'cat': 'RB', 'resp': 'reach'}",26,392,Left,37.3706655228421,49.52631429585302,1.8685332761421052,0.777957525756155,Left,Correct,0.0,0.0,-45,45,2004,887,-2.44
"{'cat': 'RB', 'resp': 'reach'}",26,393,Left,47.39035082210913,55.392987883901846,2.3695175411054565,0.8701110189822724,Right,Incorrect,0.0,0.0,-45,45,2012,609,-0.77
"{'cat': 'RB', 'resp': 'reach'}",26,394,Right,64.39072735332412,50.48625909183501,3.219536367666206,0.7930363033506987,Right,Correct,0.0,0.0,-45,45,2008,696,-0.79
"{'cat': 'RB', 'resp': 'reach'}",26,395,Left,42.022451205762835,52.53314038450481,2.1011225602881414,0.8251886395098081,Left,Correct,0.0,0.0,-45,45,2013,900,-2.53
"{'cat': 'RB', 'resp': 'reach'}",26,396,Left,38.970921579360436,46.40095045527181,1.9485460789680218,0.7288644253493295,Left,Correct,0.0,0.0,-45,45,2004,854,-2.39
"{'cat': 'RB', 'resp': 'reach'}",26,397,Left,40.680367946632735,64.89044929275441,2.034018397331637,1.0192967939312914,Left,Correct,0.0,0.0,-45,45,2012,950,-2.47
"{'cat': 'RB', 'resp': 'reach'}",26,398,Right,53.692189983033344,47.06310923058133,2.6846094991516676,0.7392655910694413,Right,Correct,0.0,0.0,-45,45,2004,712,-0.77
"{'cat': 'RB', 'resp': 'reach'}",26,399,Right,54.52992615268062,73.36065728946906,2.726496307634031,1.1523465100155725,Right,Correct,0.0,0.0,-45,45,2017,745,-0.72
