experiment,condition,subject,trial,cat,x,y,xt,yt,resp,rt,fb
2,new_learn,80,0,A,26.42446155676697,57.4599757619182,1.3212230778383485,0.902579188645449,A,2792,Correct
2,new_learn,80,1,A,18.688769533590367,47.55545946534321,0.9344384766795184,0.7469994104720472,A,1383,Correct
2,new_learn,80,2,A,33.374707387288055,63.24564490252795,1.6687353693644027,0.9934602669866528,A,815,Correct
2,new_learn,80,3,A,25.063261679856026,55.346602034328754,1.2531630839928014,0.8693823917610255,A,685,Correct
2,new_learn,80,4,A,13.785926115767733,31.48699027511117,0.6892963057883867,0.4945964866597125,A,683,Correct
2,new_learn,80,5,B,72.57318859708502,52.043503842152745,3.628659429854251,0.8174974466878961,B,703,Correct
2,new_learn,80,6,B,39.6277138251139,13.265920359730856,1.981385691255695,0.20838058972618861,B,865,Correct
2,new_learn,80,7,B,81.65408435958851,52.01615710776704,4.082704217979425,0.8170678851886671,B,660,Correct
2,new_learn,80,8,A,28.140771647851594,61.03912899265364,1.4070385823925795,0.958800396124202,A,645,Correct
2,new_learn,80,9,A,47.11638868473532,76.26830499900994,2.355819434236766,1.1980197334331764,B,1249,Incorrect
2,new_learn,80,10,B,55.46501021846556,34.03172347900907,2.773250510923278,0.5345690623532708,B,797,Correct
2,new_learn,80,11,B,85.94236581977758,60.66462292840066,4.297118290988879,0.9529176686232922,B,642,Correct
2,new_learn,80,12,A,15.373896873807738,40.33622751382562,0.7686948436903869,0.6335999801548051,A,547,Correct
2,new_learn,80,13,A,23.120574186058736,35.8353724862813,1.1560287093029367,0.5629007147077758,A,585,Correct
2,new_learn,80,14,B,81.31815471607425,56.57666275215086,4.065907735803712,0.8887041403339222,B,556,Correct
2,new_learn,80,15,A,51.29516500703554,75.57737893804399,2.564758250351777,1.1871666922466548,B,519,Incorrect
2,new_learn,80,16,A,61.012883038431774,75.99278375062313,3.0506441519215888,1.193691855783977,B,1734,Incorrect
2,new_learn,80,17,A,51.59556613681106,77.4249750806989,2.5797783068405526,1.2161886645894824,A,708,Correct
2,new_learn,80,18,A,53.94688197066558,70.63071829052029,2.697344098533279,1.109464728496344,A,730,Correct
2,new_learn,80,19,B,73.6189103813352,57.76748936644976,3.6809455190667597,0.9074096010498252,A,849,Incorrect
2,new_learn,80,20,B,51.9206713520706,35.80943995078536,2.5960335676035298,0.5624933673927607,A,885,Incorrect
2,new_learn,80,21,A,65.15234199724124,75.50983676510477,3.257617099862062,1.1861057422750878,A,1567,Correct
2,new_learn,80,22,A,53.57605477922683,69.4930559741257,2.6788027389613416,1.0915943706190878,A,689,Correct
2,new_learn,80,23,B,52.574081076837274,38.056078969951564,2.628704053841864,0.5977834905821643,B,908,Correct
2,new_learn,80,24,A,25.466545799306097,44.86216729822903,1.2733272899653048,0.7046932760411628,A,1958,Correct
2,new_learn,80,25,A,21.85115076594416,43.550565537579985,1.092557538297208,0.6840906837627105,A,585,Correct
2,new_learn,80,26,B,72.87077963523069,55.45441132520974,3.6435389817615347,0.8710758561421277,B,1047,Correct
2,new_learn,80,27,A,38.45718794003318,61.80963796996839,1.922859397001659,0.9709035228374872,A,1585,Correct
2,new_learn,80,28,A,42.691409907541995,54.4543943669014,2.1345704953770994,0.8553676264936942,A,760,Correct
2,new_learn,80,29,B,52.60804568094446,43.91990049861378,2.6304022840472228,0.6898921837641987,B,1316,Correct
2,new_learn,80,30,B,46.34784409042039,30.318816513913376,2.317392204521019,0.4762468561282358,A,2531,Incorrect
2,new_learn,80,31,B,73.71478196481378,53.25057769863231,3.685739098240689,0.8364581184871788,B,1498,Correct
2,new_learn,80,32,B,35.78251735547827,20.072819397920895,1.7891258677739135,0.3153031097867149,B,1146,Correct
2,new_learn,80,33,A,29.09168902892262,61.820516770313105,1.454584451446131,0.9710744066337013,B,16550,Incorrect
2,new_learn,80,34,B,44.91300510195289,34.85354754041721,2.2456502550976443,0.5474782445225865,B,1592,Correct
2,new_learn,80,35,B,47.76882250142362,35.4860232426599,2.388441125071181,0.5574131496212849,B,658,Correct
2,new_learn,80,36,A,29.79725561798427,55.438719554109,1.4898627808992133,0.8708293703780683,A,683,Correct
2,new_learn,80,37,B,63.73847138924467,52.50970633217506,3.1869235694622335,0.824820538276593,B,682,Correct
2,new_learn,80,38,A,60.24500994544269,83.17213681401904,3.0122504972721345,1.306464869991437,A,1620,Correct
2,new_learn,80,39,B,78.97025928424388,54.91133498825761,3.9485129642121937,0.8625452329895913,B,1414,Correct
2,new_learn,80,40,A,20.635593911193084,46.692931643279174,1.031779695559654,0.7334508551254812,A,782,Correct
2,new_learn,80,41,B,63.491734750821436,47.10198429445083,3.1745867375410715,0.7398762391447428,B,2204,Correct
2,new_learn,80,42,B,58.55228338077304,49.72982464584653,2.927614169038652,0.7811542588585003,B,585,Correct
2,new_learn,80,43,B,55.27174296965509,33.711289303502284,2.7635871484827543,0.5295356940946148,B,718,Correct
2,new_learn,80,44,A,38.21630487190239,56.10174350354713,1.9108152435951196,0.8812441262216127,A,1676,Correct
2,new_learn,80,45,A,48.61242442147589,73.74363091873275,2.4306212210737947,1.1583622457166396,A,1136,Correct
2,new_learn,80,46,B,62.32739020759106,34.32350474288174,3.1163695103795526,0.5391523517284584,B,808,Correct
2,new_learn,80,47,A,17.624841750340043,40.6616835884236,0.8812420875170021,0.6387122322199212,A,827,Correct
2,new_learn,80,48,B,71.27893474796625,41.34740214727299,3.5639467373983122,0.6494834741544783,B,1179,Correct
2,new_learn,80,49,A,39.13407078130045,49.899510618414865,1.9567035390650227,0.7838196798826901,A,654,Correct
2,new_learn,80,50,B,81.14578941769456,59.0798959179419,4.0572894708847285,0.9280248349532793,B,1364,Correct
2,new_learn,80,51,B,50.38172990641283,38.61559627761819,2.5190864953206415,0.6065723678987734,B,1216,Correct
2,new_learn,80,52,A,18.283592870457753,37.1531554987684,0.9141796435228876,0.5836004018630501,A,691,Correct
2,new_learn,80,53,A,43.623265930951156,61.39034526498897,2.181163296547558,0.9643172884291514,B,1040,Incorrect
2,new_learn,80,54,B,33.53442853649601,10.8579220341567,1.6767214268248005,0.17055584047878714,B,1252,Correct
2,new_learn,80,55,A,33.60429866500748,62.39464847479851,1.680214933250374,0.980092846358723,A,1312,Correct
2,new_learn,80,56,A,40.38815873859411,51.53993249335866,2.0194079369297055,0.8095873664382471,A,653,Correct
2,new_learn,80,57,A,35.90824333413024,51.33259821090532,1.7954121667065122,0.8063305671452835,A,571,Correct
2,new_learn,80,58,B,56.08124115076397,38.06650934235362,2.8040620575381983,0.5979473304887267,B,731,Correct
2,new_learn,80,59,A,46.74329302155792,78.46414345368525,2.337164651077896,1.2325118832215662,B,3965,Incorrect
2,new_learn,80,60,B,75.8375050511695,54.75657798077574,3.791875252558475,0.8601143156006086,B,702,Correct
2,new_learn,80,61,A,50.8767126335467,67.07705499114344,2.543835631677335,1.053643915923074,A,3207,Correct
2,new_learn,80,62,B,50.630695766243235,41.35493228930516,2.531534788312162,0.649601757348922,B,1914,Correct
2,new_learn,80,63,B,60.91590835400338,45.9780310917057,3.0457954177001687,0.7222212235211286,B,541,Correct
2,new_learn,80,64,B,76.34751089798863,60.49990674221177,3.8173755448994315,0.9503303128210003,B,469,Correct
2,new_learn,80,65,A,22.532443542356145,49.16864896836885,1.1266221771178073,0.7723393319298147,A,528,Correct
2,new_learn,80,66,A,23.104834594856342,39.344236798935896,1.155241729742817,0.618017826443171,A,378,Correct
2,new_learn,80,67,A,52.228885462013935,68.9199240170534,2.6114442731006964,1.0825916348897084,B,635,Incorrect
2,new_learn,80,68,B,78.84627658619652,63.98743726217006,3.942313829309826,1.0051123141243563,B,602,Correct
2,new_learn,80,69,A,51.61177726482221,75.27271540405349,2.5805888632411103,1.1823810486456483,A,933,Correct
2,new_learn,80,70,A,16.223020931645788,32.55949074906265,0.8111510465822894,0.5114432847094001,A,765,Correct
2,new_learn,80,71,A,35.3577498240138,45.216882238681016,1.76788749120069,0.7102651252963754,B,1220,Incorrect
2,new_learn,80,72,A,26.636620552041304,56.2300991846013,1.331831027602065,0.8832603325448444,A,403,Correct
2,new_learn,80,73,A,39.82892554896646,55.29662509171872,1.9914462774483228,0.8685973557822627,A,459,Correct
2,new_learn,80,74,A,49.88969381157394,71.69597142079769,2.4944846905786973,1.1261976855378089,B,1020,Incorrect
2,new_learn,80,75,A,58.59870525581593,77.50461837521215,2.9299352627907966,1.2174396985342348,A,936,Correct
2,new_learn,80,76,A,59.351948718350584,83.2454104002822,2.9675974359175292,1.3076158487929694,A,533,Correct
2,new_learn,80,77,A,55.924420433381364,68.05619742793276,2.796221021669068,1.0690242493542506,A,506,Correct
2,new_learn,80,78,A,49.30466642275781,71.10868351366932,2.4652333211378905,1.1169725886649258,A,470,Correct
2,new_learn,80,79,B,61.57629990132204,48.67286685447062,3.078814995066102,0.7645516046957953,A,433,Incorrect
2,new_learn,80,80,A,30.675448222130107,53.265110177383576,1.5337724111065054,0.8366863941295959,A,851,Correct
2,new_learn,80,81,A,64.02277481207543,83.602425394156,3.2011387406037715,1.3132238272028465,B,637,Incorrect
2,new_learn,80,82,A,53.25170635060802,64.41730528509186,2.6625853175304006,1.0118646652384777,A,897,Correct
2,new_learn,80,83,A,64.5820727289146,77.27728110075128,3.2291036364457297,1.2138686929775682,A,492,Correct
2,new_learn,80,84,A,62.21485390848268,79.49847398336432,3.110742695424134,1.2487591091886832,A,458,Correct
2,new_learn,80,85,A,39.94110182389304,48.162425120939076,1.997055091194652,0.7565336046950536,A,1475,Correct
2,new_learn,80,86,A,57.76728800691892,81.8223806028927,2.888364400345946,1.2852629490063785,A,1051,Correct
2,new_learn,80,87,A,37.592232427952986,61.35037477894163,1.8796116213976493,0.9636894335025179,A,736,Correct
2,new_learn,80,88,B,77.99966179669184,54.435915551341225,3.899983089834592,0.8550773619376398,B,1723,Correct
2,new_learn,80,89,B,57.0471409516643,43.59024040474991,2.852357047583215,0.6847138951188765,B,1967,Correct
2,new_learn,80,90,B,62.41973534888251,52.56985193416949,3.1209867674441254,0.8257653031834502,B,734,Correct
2,new_learn,80,91,A,48.35306277757347,67.30855914102084,2.4176531388786735,1.057280374605726,B,1058,Incorrect
2,new_learn,80,92,B,61.33396477880357,40.72813033967418,3.0666982389401785,0.6397559753478398,B,743,Correct
2,new_learn,80,93,A,29.679380059147793,47.59106789129747,1.4839690029573895,0.7475587463189661,A,656,Correct
2,new_learn,80,94,B,72.42723016122261,54.93751695618279,3.6213615080611303,0.8629564983800427,B,644,Correct
2,new_learn,80,95,B,56.05538105069817,40.19978813237726,2.802769052534909,0.6314567953627127,A,1564,Incorrect
2,new_learn,80,96,B,57.18413174626285,36.9546863161863,2.8592065873131425,0.5804828552332306,B,1380,Correct
2,new_learn,80,97,B,34.37010295561886,22.391208168244894,1.718505147780943,0.3517202754317897,A,585,Incorrect
2,new_learn,80,98,A,30.847511412164405,58.61987502207656,1.54237557060822,0.9207988436185377,B,614,Incorrect
2,new_learn,80,99,B,63.19624609469256,39.024304581747856,3.159812304734628,0.6129923429273478,B,1399,Correct
2,new_learn,80,100,A,39.89764676724783,49.82317183548936,1.9948823383623915,0.7826205530845762,A,894,Correct
2,new_learn,80,101,B,69.97920351234679,52.345818994854895,3.498960175617339,0.8222462020018859,B,633,Correct
2,new_learn,80,102,B,48.95231835999046,34.28147800928613,2.4476159179995225,0.5384921973408668,A,1703,Incorrect
2,new_learn,80,103,A,59.74425894975482,76.08728609592491,2.9872129474877407,1.1951762951527125,A,1305,Correct
2,new_learn,80,104,A,25.75594832447677,44.25849121363166,1.2877974162238386,0.6952107542785682,A,651,Correct
2,new_learn,80,105,B,49.824461733394294,30.534108470220414,2.4912230866697147,0.47962865426979157,A,1014,Incorrect
2,new_learn,80,106,A,16.887897589207835,36.974294865745776,0.8443948794603918,0.5807908656094487,A,725,Correct
2,new_learn,80,107,B,57.47749056718048,49.63166591832467,2.8738745283590243,0.7796123851721585,A,1958,Incorrect
2,new_learn,80,108,A,53.349449862719254,72.4352603142689,2.667472493135963,1.1378104083208573,B,898,Incorrect
2,new_learn,80,109,B,41.443595720246044,16.936701416737677,2.072179786012302,0.2660410837343346,B,919,Correct
2,new_learn,80,110,A,64.69999730233388,75.1838911537969,3.234999865116694,1.180985800585315,A,2231,Correct
2,new_learn,80,111,B,77.86604540347264,63.245749668178235,3.893302270173632,0.9934619126416392,A,1311,Incorrect
2,new_learn,80,112,B,80.34386391825319,54.93207910207833,4.017193195912659,0.8628710807675135,B,671,Correct
2,new_learn,80,113,A,44.51286333826836,76.84722784166175,2.225643166913418,1.207113432180528,A,755,Correct
2,new_learn,80,114,A,42.035650193625756,57.39858130858073,2.101782509681288,0.9016148068275681,A,829,Correct
2,new_learn,80,115,B,47.940435474405795,32.7133727616809,2.3970217737202897,0.5138604577112058,A,1964,Incorrect
2,new_learn,80,116,A,36.24621797125539,63.520973369334826,1.8123108985627696,0.9977851164298759,A,1050,Correct
2,new_learn,80,117,A,29.278734253522586,48.55452233405663,1.4639367126761293,0.7626926533161693,A,567,Correct
2,new_learn,80,118,A,26.23627815048726,46.131629804490146,1.311813907524363,0.7246339464595509,A,489,Correct
2,new_learn,80,119,A,47.191534352261556,66.10940415693396,2.359576717613078,1.0384440921631113,A,614,Correct
2,new_learn,80,120,A,25.564462099964018,52.910801219784986,1.278223104998201,0.8311209220381319,A,505,Correct
2,new_learn,80,121,A,43.14131092477793,55.91277133138869,2.1570655462388966,0.8782757582826836,A,608,Correct
2,new_learn,80,122,B,72.06086451762893,39.694760895577694,3.6030432258814464,0.6235238460777515,B,1070,Correct
2,new_learn,80,123,B,46.155362321334465,26.876545541250827,2.307768116066723,0.4221757901313256,B,2097,Correct
2,new_learn,80,124,A,60.77896840380669,70.6244646072846,3.0389484201903345,1.1093664958697882,B,1541,Incorrect
2,new_learn,80,125,B,72.22470328871965,39.88904345815619,3.6112351644359824,0.6265756294343373,B,1238,Correct
2,new_learn,80,126,B,35.09075134200001,18.94851918065605,1.7545375671000005,0.29764264327177165,A,1327,Incorrect
2,new_learn,80,127,B,62.79512594428502,48.14983209156315,3.1397562972142508,0.7563357938521842,B,1208,Correct
2,new_learn,80,128,B,47.18543722226424,31.650521420620606,2.359271861113212,0.4971652278865404,A,2712,Incorrect
2,new_learn,80,129,B,46.06600674461872,16.108326965160025,2.303300337230936,0.25302900827684555,B,898,Correct
2,new_learn,80,130,B,87.47040248081571,65.66108978423944,4.373520124040786,1.0314019864643322,B,1075,Correct
2,new_learn,80,131,B,40.69303160197029,16.53332462192758,2.0346515800985143,0.25970485585831465,A,3431,Incorrect
2,new_learn,80,132,B,72.00569827430564,58.924250730741136,3.6002849137152824,0.9255799660698968,B,677,Correct
2,new_learn,80,133,B,62.58724717311896,31.771734551457058,3.129362358655948,0.4990692392933125,B,783,Correct
2,new_learn,80,134,B,39.15685726843009,27.62346163928556,1.9578428634215044,0.43390832076349484,A,801,Incorrect
2,new_learn,80,135,B,86.02764923007102,59.81614428832512,4.301382461503551,0.9395897973113462,B,530,Correct
2,new_learn,80,136,A,50.32983405155072,67.7679939017917,2.516491702577536,1.0644971589519334,B,551,Incorrect
2,new_learn,80,137,B,55.63637045472293,29.545693934941298,2.7818185227361467,0.4641026750561204,B,992,Correct
2,new_learn,80,138,B,47.26600149401323,16.968459753999664,2.363300074700662,0.26653994252949703,B,613,Correct
2,new_learn,80,139,B,71.08713720684216,48.60067978307036,3.554356860342108,0.7634176928298193,B,530,Correct
2,new_learn,80,140,B,79.18639468156606,49.901028632452324,3.959319734078303,0.7838435247914306,B,451,Correct
2,new_learn,80,141,A,18.51675969349956,45.75984962405299,0.9258379846749779,0.7187940370414927,A,829,Correct
2,new_learn,80,142,A,34.42590338454328,58.3930953452805,1.7212951692271643,0.9172365967855078,A,508,Correct
2,new_learn,80,143,A,32.68991055714763,45.99091953750953,1.6344955278573814,0.7224236747543962,A,520,Correct
2,new_learn,80,144,A,47.41915836746132,67.05106247101007,2.370957918373066,1.0532356263715776,A,1357,Correct
2,new_learn,80,145,B,89.31071771681415,65.51888118561234,4.4655358858407075,1.0291681790207112,B,679,Correct
2,new_learn,80,146,A,52.081942611204546,64.79384465952673,2.6040971305602274,1.017779331901037,A,1860,Correct
2,new_learn,80,147,A,48.8328291916856,60.37683353115618,2.4416414595842797,0.9483970833424706,A,526,Correct
2,new_learn,80,148,B,49.076708334423,32.00605056207469,2.4538354167211502,0.5027498665811866,B,1056,Correct
2,new_learn,80,149,B,68.54479623306723,45.51848052492001,3.4272398116533616,0.7150026200982939,B,2397,Correct
2,new_learn,80,150,B,87.32641698862572,59.20825969065724,4.366320849431286,0.9300411683800273,B,647,Correct
2,new_learn,80,151,B,44.78979018429007,21.7185478398232,2.2394895092145033,0.34115415170113517,A,2425,Incorrect
2,new_learn,80,152,A,14.917029549838634,33.95295389210581,0.7458514774919317,0.533331752575563,A,672,Correct
2,new_learn,80,153,B,40.82898731548724,17.38650718865829,2.041449365774362,0.27310661627737504,B,741,Correct
2,new_learn,80,154,B,53.42287326621724,33.66449905704188,2.671143663310862,0.5288007146219165,B,527,Correct
2,new_learn,80,155,B,61.211960969417376,45.056080543516245,3.060598048470869,0.7077392581753033,B,615,Correct
2,new_learn,80,156,A,50.02780780912586,75.92201576648013,2.5013903904562933,1.1925802348885122,B,577,Incorrect
2,new_learn,80,157,A,34.508438304858075,44.73164007718481,1.7254219152429038,0.7026429592475328,B,1096,Incorrect
2,new_learn,80,158,A,30.112938727003822,54.245667464774314,1.5056469363501912,0.8520889519820491,A,778,Correct
2,new_learn,80,159,A,27.02878230059519,38.34936589289537,1.3514391150297596,0.6023904307947354,A,359,Correct
2,new_learn,80,160,A,47.77236890681995,64.24561989986144,2.3886184453409975,1.0091678375136346,A,714,Correct
2,new_learn,80,161,B,52.54135406096644,34.56663053032452,2.627067703048322,0.5429713626671008,B,1455,Correct
2,new_learn,80,162,B,34.68213213316525,17.399874240041726,1.7341066066582624,0.2733165854295069,A,1731,Incorrect
2,new_learn,80,163,A,28.87999583830951,54.33145539455801,1.4439997919154757,0.853436505631925,B,1764,Incorrect
2,new_learn,80,164,A,18.902785328028084,44.57494044012165,0.9451392664014042,0.7001815271044438,A,659,Correct
2,new_learn,80,165,B,59.78322510813625,45.445476845357064,2.9891612554068128,0.7138558809812939,B,935,Correct
2,new_learn,80,166,A,11.187645765377301,30.641791482413158,0.559382288268865,0.48132013506989735,A,757,Correct
2,new_learn,80,167,B,49.589605573423285,34.898902034204085,2.479480278671164,0.5481906712450272,B,987,Correct
2,new_learn,80,168,A,60.25385896165476,68.58257590739895,3.012692948082738,1.0772925831747444,A,1089,Correct
2,new_learn,80,169,A,65.85526522006742,80.50321551203241,3.292763261003371,1.2645415522147845,A,723,Correct
2,new_learn,80,170,A,20.40662258570579,45.77479867338237,1.0203311292852895,0.7190288561592493,A,677,Correct
2,new_learn,80,171,B,45.51755535632369,19.909033274750286,2.275877767816185,0.3127303633801512,B,646,Correct
2,new_learn,80,172,A,24.392599049654976,35.860141942958734,1.2196299524827487,0.5632897924234318,A,886,Correct
2,new_learn,80,173,B,71.42311768573761,54.39437253740318,3.5711558842868807,0.8544248058006612,B,647,Correct
2,new_learn,80,174,A,42.56472714782115,65.37475489400859,2.1282363573910574,1.0269042485262538,A,1206,Correct
2,new_learn,80,175,B,34.16452276447919,13.1817296343729,1.7082261382239594,0.20705812490476383,B,800,Correct
2,new_learn,80,176,A,33.266990411861734,55.20810388776148,1.6633495205930868,0.8672068679620678,A,758,Correct
2,new_learn,80,177,A,33.104870554844204,42.24356140247336,1.6552435277422104,0.6635603108173982,A,603,Correct
2,new_learn,80,178,B,71.63360333285488,46.85902154292067,3.5816801666427436,0.736059789168227,B,759,Correct
2,new_learn,80,179,B,81.37820822590481,67.29032334581441,4.06891041129524,1.0569939274044615,A,896,Incorrect
2,new_learn,80,180,B,56.067751203779736,38.296901853606265,2.8033875601889866,0.6015663275926938,B,607,Correct
2,new_learn,80,181,A,64.38996276955254,84.99074190428823,3.219498138477627,1.3350314519482902,A,769,Correct
2,new_learn,80,182,B,74.64848844454097,60.71695701066576,3.732424422227049,0.9537397304651741,A,547,Incorrect
2,new_learn,80,183,B,87.08899446033995,63.04788459020185,4.354449723016997,0.9903538552647763,B,431,Correct
2,new_learn,80,184,A,45.25983118951742,52.69943420045331,2.262991559475871,0.8278007766624139,B,1284,Incorrect
2,new_learn,80,185,B,44.89584481223391,25.19695747719425,2.244792240611696,0.39579288251583933,B,742,Correct
2,new_learn,80,186,B,80.88837720399395,65.40198893369134,4.0444188601996975,1.0273320398212284,A,623,Incorrect
2,new_learn,80,187,A,52.59512614892493,70.40771853095845,2.6297563074462467,1.1059618564643852,A,1088,Correct
2,new_learn,80,188,A,23.33208841464828,49.53886943909377,1.166604420732414,0.7781547414850045,A,603,Correct
2,new_learn,80,189,B,78.52535517825976,66.87935936704751,3.9262677589129877,1.050538520321541,B,558,Correct
2,new_learn,80,190,B,82.62108035920059,68.03455245039126,4.13105401796003,1.0686842508420933,A,1179,Incorrect
2,new_learn,80,191,B,69.38747564872298,48.6954667123523,3.4693737824361492,0.7649066024332615,B,442,Correct
2,new_learn,80,192,A,40.916367554639564,60.02954489692315,2.0458183777319783,0.942941886232562,B,597,Incorrect
2,new_learn,80,193,B,45.25521165197481,22.83244265169259,2.2627605825987405,0.35865117049033846,B,1712,Correct
2,new_learn,80,194,B,61.00149737258476,32.71083120117336,3.050074868629238,0.5138205349721101,B,773,Correct
2,new_learn,80,195,A,27.662343934233895,49.47813395232316,1.3831171967116946,0.7772007106897507,A,748,Correct
2,new_learn,80,196,B,59.72671830212593,48.245136156922506,2.986335915106297,0.7578328266101353,B,1150,Correct
2,new_learn,80,197,B,71.72008468321995,52.28212355269308,3.5860042341609977,0.8212456763360723,B,612,Correct
2,new_learn,80,198,A,12.014113706637676,31.590342564263526,0.6007056853318837,0.49621994062137625,A,572,Correct
2,new_learn,80,199,B,69.4368104346115,46.53235220544151,3.4718405217305754,0.7309284792143393,B,609,Correct
2,new_learn,80,200,A,30.30024189512877,43.239631676837575,1.5150120947564387,0.6792065460994071,A,573,Correct
2,new_learn,80,201,B,73.73085063282332,51.959482056383784,3.686542531641166,0.8161776355633298,B,461,Correct
2,new_learn,80,202,B,45.093264905993976,18.85721024599692,2.2546632452996986,0.29620836588011046,B,736,Correct
2,new_learn,80,203,B,85.57266230072455,66.98725534853662,4.278633115036228,1.0522333464355311,B,1283,Correct
2,new_learn,80,204,B,46.109317210446264,38.632212797091135,2.305465860522313,0.6068333795762957,B,614,Correct
2,new_learn,80,205,B,33.82636455101513,15.397265724542425,1.6913182275507566,0.241859684427962,B,864,Correct
2,new_learn,80,206,A,41.253751697489584,63.22608461993884,2.062687584874479,0.9931530147862323,B,946,Incorrect
2,new_learn,80,207,B,60.34218234657466,47.83673058023963,3.017109117328733,0.7514176068131752,B,632,Correct
2,new_learn,80,208,A,34.08172811955028,67.44109771856127,1.704086405977514,1.0593622857133174,A,967,Correct
2,new_learn,80,209,B,72.8286850000723,62.67185772299325,3.641434250003615,0.9844472390469018,B,530,Correct
2,new_learn,80,210,A,25.03331125995947,38.00605739980321,1.2516655629979736,0.5969977535956689,B,625,Incorrect
2,new_learn,80,211,A,35.734259301367715,48.63622530199699,1.786712965068386,0.7639760405354589,A,620,Correct
2,new_learn,80,212,B,67.69489578323959,46.41994751551387,3.3847447891619793,0.7291628304738107,B,675,Correct
2,new_learn,80,213,A,58.11028283949437,81.22124798375188,2.9055141419747184,1.2758203799057486,A,1407,Correct
2,new_learn,80,214,A,45.5262272626169,61.90338418541038,2.2763113631308447,0.9723760849461592,A,1142,Correct
2,new_learn,80,215,A,29.757531336008718,50.6489492951909,1.487876566800436,0.7955918350890683,A,1359,Correct
2,new_learn,80,216,A,63.87602114067667,86.30513162785986,3.1938010570338338,1.3556778374459233,A,1186,Correct
2,new_learn,80,217,A,18.05604939908701,47.47057492773953,0.9028024699543505,0.7456660472733516,A,671,Correct
2,new_learn,80,218,A,24.01931548110729,41.77146417944077,1.2009657740553648,0.6561446249791015,A,570,Correct
2,new_learn,80,219,A,35.774201475609374,50.403386007504665,1.7887100737804686,0.7917345359861361,A,847,Correct
2,new_learn,80,220,A,12.256546292254985,32.72345558766915,0.6128273146127492,0.5140188383714663,A,462,Correct
2,new_learn,80,221,B,33.241204757971886,14.74264631333837,1.6620602378985945,0.23157694676228233,A,1334,Incorrect
2,new_learn,80,222,A,26.295982373880264,36.272152684009285,1.3147991186940131,0.5697616420098542,A,1086,Correct
2,new_learn,80,223,B,33.896976117960236,10.465477674704665,1.6948488058980118,0.16439133889580085,B,820,Correct
2,new_learn,80,224,A,41.53938454578696,56.78089284628542,2.076969227289348,0.8919121791507976,A,1375,Correct
2,new_learn,80,225,B,46.699686245464605,25.354585404235554,2.33498431227323,0.39826889620380707,B,628,Correct
2,new_learn,80,226,B,38.07256349756972,15.097503634117562,1.9036281748784858,0.23715103252244468,B,594,Correct
2,new_learn,80,227,A,59.78152761524241,72.78466156751848,2.9890763807621203,1.1432987903726772,A,1089,Correct
2,new_learn,80,228,B,46.23744585379841,34.15683662930136,2.311872292689921,0.5365343351223996,B,750,Correct
2,new_learn,80,229,A,41.9913320327241,62.34861560882408,2.099566601636205,0.9793697637908783,A,659,Correct
2,new_learn,80,230,A,45.28424326783422,60.951627864407165,2.264212163391711,0.9574259316158024,A,569,Correct
2,new_learn,80,231,B,67.20873235736208,38.25680988850691,3.3604366178681038,0.6009365644775733,B,563,Correct
2,new_learn,80,232,A,40.75644121965863,72.04452587246939,2.0378220609829314,1.131672766061548,A,597,Correct
2,new_learn,80,233,B,45.69403398317118,27.08245788020536,2.284701699158559,0.42541025358804085,B,480,Correct
2,new_learn,80,234,A,56.61943818801978,70.32059382863979,2.8309719094009886,1.1045933048406325,A,480,Correct
2,new_learn,80,235,A,47.17533222712865,60.38129612064763,2.3587666113564323,0.9484671815342823,A,467,Correct
2,new_learn,80,236,B,84.28926633514034,57.6914956311441,4.2144633167570165,0.9062158942470497,B,1279,Correct
2,new_learn,80,237,B,79.04408777915938,55.241373843347695,3.952204388957969,0.8677294712023425,B,477,Correct
2,new_learn,80,238,B,56.53646122635283,41.947070208218676,2.8268230613176413,0.6589030380287754,B,617,Correct
2,new_learn,80,239,A,26.361247444284803,47.461634613044666,1.3180623722142402,0.745525613138521,A,609,Correct
2,new_learn,80,240,A,63.05087591177939,74.2066629125375,3.15254379558897,1.1656355352672096,B,584,Incorrect
2,new_learn,80,241,A,27.288042303708163,46.788592341652354,1.3644021151854082,0.7349534898617135,A,705,Correct
2,new_learn,80,242,A,64.16002634415904,87.4414848770815,3.2080013172079522,1.3735276325441115,A,912,Correct
2,new_learn,80,243,B,51.613455632959244,31.438850515102473,2.580672781647962,0.493840309077768,B,568,Correct
2,new_learn,80,244,B,51.341332325907125,35.44243459488304,2.567066616295356,0.5567284607431066,B,621,Correct
2,new_learn,80,245,B,69.52383308980916,44.76665468006217,3.476191654490458,0.7031929673433721,B,834,Correct
2,new_learn,80,246,B,83.66031093453472,55.17977989129817,4.183015546726736,0.8667619556660207,B,683,Correct
2,new_learn,80,247,B,61.673460664874945,48.34375546148846,3.0836730332437474,0.7593819350237679,B,701,Correct
2,new_learn,80,248,B,67.00012278605169,53.197576996170696,3.3500061393025846,0.8356255853997362,B,698,Correct
2,new_learn,80,249,B,36.32990236245292,23.48476413376129,1.8164951181226459,0.36889781236956765,B,597,Correct
2,new_learn,80,250,B,62.09093933231309,35.28154464308885,3.104546966615654,0.5542012072901412,B,537,Correct
2,new_learn,80,251,B,56.84949964841124,42.66732517340335,2.8424749824205615,0.670216776565454,B,450,Correct
2,new_learn,80,252,A,27.441631154219564,37.91932559878133,1.3720815577109784,0.595635373651054,A,549,Correct
2,new_learn,80,253,B,48.95613854376672,33.749459304179496,2.447806927188336,0.53013526706319,B,512,Correct
2,new_learn,80,254,A,43.93429868156476,63.387653634889226,2.1967149340782384,0.9956909349383116,A,533,Correct
2,new_learn,80,255,A,42.70339972480219,61.995013801323424,2.1351699862401095,0.9738153995871774,A,489,Correct
2,new_learn,80,256,B,37.24746259944406,19.173403490232364,1.8623731299722033,0.3011751177461344,B,464,Correct
2,new_learn,80,257,B,47.05246487680509,38.243019692980404,2.3526232438402546,0.6007199485927851,B,589,Correct
2,new_learn,80,258,B,73.36998163251965,41.76080595184567,3.6684990816259826,0.6559772059315363,B,581,Correct
2,new_learn,80,259,B,45.09998350583341,17.545487940666497,2.2549991752916703,0.2756038800902309,B,534,Correct
2,new_learn,80,260,B,69.02747112627375,42.476274497370234,3.451373556313688,0.667215759564009,B,485,Correct
2,new_learn,80,261,A,48.47502404195281,72.6480559917369,2.42375120209764,1.1411529950061028,A,571,Correct
2,new_learn,80,262,A,21.268249794574167,40.899109642175205,1.0634124897287083,0.6424417119511054,A,587,Correct
2,new_learn,80,263,B,35.17106231494445,19.92716554496964,1.7585531157472223,0.31301518441472137,B,547,Correct
2,new_learn,80,264,B,62.1369016642412,53.80120794689424,3.10684508321206,0.8451073982010988,B,1038,Correct
2,new_learn,80,265,B,64.46249915386117,50.83783758514044,3.223124957693059,0.7985588854093414,B,486,Correct
2,new_learn,80,266,B,64.87419783397728,48.58585006267201,3.243709891698864,0.7631847481265278,B,513,Correct
2,new_learn,80,267,B,65.00315112012957,48.386793878616714,3.250157556006479,0.7600579808991292,B,474,Correct
2,new_learn,80,268,A,40.77865686579307,64.51639828688934,2.038932843289653,1.0134212144708232,A,775,Correct
2,new_learn,80,269,B,73.35143107478612,46.01760738396516,3.6675715537393057,0.7228428864662219,B,456,Correct
2,new_learn,80,270,B,40.64860875305145,16.508572529443644,2.0324304376525726,0.25931605089877213,B,584,Correct
2,new_learn,80,271,A,41.670642230896334,74.14978020697946,2.083532111544817,1.1647420238177226,A,581,Correct
2,new_learn,80,272,A,33.71423700483999,59.407790592656184,1.6857118502419994,0.9331753924594476,A,420,Correct
2,new_learn,80,273,A,32.897881202399184,42.58428888446627,1.6448940601199593,0.6689124455889235,A,571,Correct
2,new_learn,80,274,A,24.277424119047325,42.46777350393212,1.2138712059523662,0.6670822262713421,A,525,Correct
2,new_learn,80,275,A,42.19393529084461,49.36007594336765,2.10969676454223,0.7753462598215904,B,927,Incorrect
2,new_learn,80,276,B,71.01529067225913,49.194137837585274,3.5507645336129565,0.7727397101512079,A,526,Incorrect
2,new_learn,80,277,A,62.64783890694366,79.47601000405523,3.132391945347183,1.248406245826844,A,908,Correct
2,new_learn,80,278,A,48.6863290650537,69.83178713311533,2.434316453252685,1.0969151472222067,A,443,Correct
2,new_learn,80,279,A,12.866339695909392,30.455344741610215,0.6433169847954696,0.4783914365139359,A,513,Correct
2,new_learn,80,280,A,15.037153939188087,34.468309880031285,0.7518576969594044,0.5414269455038139,A,423,Correct
2,new_learn,80,281,B,43.36362436825159,18.659425852239995,2.1681812184125793,0.2931015758880031,B,663,Correct
2,new_learn,80,282,A,32.391813040214906,41.51657677196226,1.6195906520107455,0.6521408629449663,A,532,Correct
2,new_learn,80,283,B,68.21169938167695,59.118306597244356,3.410584969083848,0.9286281884928594,B,588,Correct
2,new_learn,80,284,B,86.12285445110392,63.81783773293585,4.3061427225551965,1.002448250948884,B,1026,Correct
2,new_learn,80,285,B,51.492392671021705,33.101884525091585,2.5746196335510856,0.5199631862200269,B,558,Correct
2,new_learn,80,286,B,47.76442211312257,34.05611687357648,2.3882211056561284,0.5349522328991163,B,457,Correct
2,new_learn,80,287,A,39.32707863887366,62.507773820313844,1.9663539319436831,0.9818698151307519,A,852,Correct
2,new_learn,80,288,A,29.772633382975357,56.68712093619709,1.4886316691487678,0.8904392134315646,A,490,Correct
2,new_learn,80,289,B,82.01870526072588,61.26279284284214,4.100935263036294,0.9623136996673312,B,503,Correct
2,new_learn,80,290,A,46.6193031580701,71.01911122123191,2.330965157903505,1.1155655903854933,A,1228,Correct
2,new_learn,80,291,A,18.0197288982869,39.4254326883727,0.900986444914345,0.6192932484919529,A,639,Correct
2,new_learn,80,292,A,65.22315767754972,85.68469135867518,3.2611578838774857,1.3459319844876139,A,765,Correct
2,new_learn,80,293,A,19.965528975665244,47.12260649049993,0.9982764487832623,0.7402001718427865,A,791,Correct
2,new_learn,80,294,A,64.9809011237232,85.25269865898659,3.24904505618616,1.3391462590288832,A,620,Correct
2,new_learn,80,295,B,77.35591645349389,49.5023285415549,3.8677958226746942,0.7775807584086861,B,568,Correct
2,new_learn,80,296,A,54.18684378842758,68.36767254240573,2.7093421894213794,1.0739168890112722,A,672,Correct
2,new_learn,80,297,B,69.408489397708,58.570764325032044,3.4704244698853994,0.9200274145932991,A,516,Incorrect
2,new_learn,80,298,A,22.356556857210133,46.65451187476312,1.1178278428605066,0.7328473588128678,A,500,Correct
2,new_learn,80,299,B,44.216386277511475,28.110721953510666,2.210819313875574,0.4415621878812721,B,723,Correct
2,new_learn,80,300,B,69.83491898276577,59.33409481318226,3.4917459491382887,0.9320177818624681,B,1006,Incorrect
2,new_learn,80,301,B,67.71902490575675,40.03436341485198,3.385951245287838,0.6288583099762148,A,587,Incorrect
2,new_learn,80,302,A,32.46879660736374,50.540494399742414,1.6234398303681872,0.7938882295751343,A,657,Incorrect
2,new_learn,80,303,A,58.83399124692042,74.42562312743112,2.9416995623460207,1.169074954279901,B,907,Incorrect
2,new_learn,80,304,B,36.83842958397376,19.622982201057066,1.8419214791986882,0.3082370836218208,B,665,Incorrect
2,new_learn,80,305,A,10.571306262539899,32.00792822713419,0.528565313126995,0.5027793608749707,A,593,Correct
2,new_learn,80,306,A,42.72135593655929,62.5106177271298,2.1360677968279647,0.9819144871145542,B,1847,Incorrect
2,new_learn,80,307,A,26.736991070728138,42.75457277566878,1.336849553536407,0.6715872586970559,A,631,Correct
2,new_learn,80,308,B,33.82999883986008,20.35768442301546,1.6914999419930041,0.31977775913722367,A,1317,Correct
2,new_learn,80,309,A,47.91397533183624,69.22798939080457,2.395698766591812,1.0874307144647188,A,910,Correct
2,new_learn,80,310,A,33.9439550336853,61.47791157939799,1.6971977516842651,0.965692776879398,A,427,Correct
2,new_learn,80,311,A,20.00330333493863,47.45996109208795,1.0001651667469316,0.7454993255328045,A,335,Correct
2,new_learn,80,312,A,21.265847568967576,43.70393652342915,1.0632923784483788,0.6864998295747983,A,403,Correct
2,new_learn,80,313,A,48.77180651362912,76.94952911966087,2.438590325681456,1.2087203768976023,A,927,Incorrect
2,new_learn,80,314,A,55.04547672873855,78.70194581094462,2.7522738364369275,1.2362472739144281,A,671,Incorrect
2,new_learn,80,315,B,76.79103049620676,45.744769215626135,3.839551524810338,0.718557154539858,B,550,Incorrect
2,new_learn,80,316,B,51.31053009449471,35.93042296716077,2.5655265047247355,0.5643937641700313,B,1154,Incorrect
2,new_learn,80,317,A,18.85645989994859,45.7522184235335,0.9428229949974295,0.7186741664240421,A,605,Incorrect
2,new_learn,80,318,B,64.02930887791833,34.72327598432442,3.2014654438959163,0.5454319437046224,A,3778,Correct
2,new_learn,80,319,B,39.93722802573477,24.960797730385185,1.9968614012867385,0.39208329388759433,B,3852,Correct
2,new_learn,80,320,A,45.676448041309065,65.19148799279834,2.283822402065453,1.0240254987738124,B,1793,Incorrect
2,new_learn,80,321,A,66.40557385711213,85.40474424000685,3.3202786928556067,1.3415345854306036,B,2399,Correct
2,new_learn,80,322,A,25.130127543180656,50.160544318799346,1.2565063771590328,0.7879199876600264,B,1195,Incorrect
2,new_learn,80,323,A,53.77243857120311,67.49486730780043,2.6886219285601554,1.0602068964460185,A,2034,Correct
2,new_learn,80,324,B,63.50043510585849,34.53343726320197,3.1750217552929247,0.5424499640463966,A,1237,Incorrect
2,new_learn,80,325,B,46.71760950152189,20.265653591844167,2.335880475076095,0.31833214222166617,B,749,Incorrect
2,new_learn,80,326,A,14.15305916910642,40.15085250418515,0.7076529584553211,0.6306881163125772,A,766,Correct
2,new_learn,80,327,B,47.95815378596548,22.35138291236595,2.3979076892982736,0.3510947017753065,B,908,Correct
2,new_learn,80,328,B,52.645049864119585,21.341976697657618,2.6322524932059794,0.3352389860322286,B,473,Correct
2,new_learn,80,329,B,82.35266868803023,54.84483460006531,4.117633434401512,0.8615006473345624,B,973,Correct
2,new_learn,80,330,A,53.26180994357538,76.27638256833917,2.6630904971787692,1.1981466155954945,B,788,Correct
2,new_learn,80,331,A,52.88946729229558,74.01365160156597,2.644473364614779,1.1626037206841704,B,509,Incorrect
2,new_learn,80,332,A,59.862135591052464,69.52761350734649,2.9931067795526234,1.092137199081551,B,564,Incorrect
2,new_learn,80,333,B,42.63792534329379,26.499959556399467,2.1318962671646893,0.416260391314056,B,539,Correct
2,new_learn,80,334,A,55.38717909808854,82.69358465179513,2.769358954904427,1.2989477902054265,B,878,Correct
2,new_learn,80,335,B,74.05908833920486,47.24421396944034,3.7029544169602433,0.7421103776550902,B,995,Correct
2,new_learn,80,336,A,30.21678951428179,59.34209870748054,1.5108394757140895,0.932143506740106,A,869,Correct
2,new_learn,80,337,B,78.44374394671703,65.89577185960542,3.922187197335852,1.0350883638838269,B,772,Correct
2,new_learn,80,338,B,54.68818423394015,28.03614535305416,2.7344092116970073,0.4403907413806528,B,530,Correct
2,new_learn,80,339,A,33.08066610490619,59.828591243576575,1.6540333052453096,0.9397853136272342,A,819,Correct
2,new_learn,80,340,B,43.26638078707469,18.178435688124935,2.1633190393537345,0.2855462000578391,B,622,Correct
2,new_learn,80,341,B,51.443911065352594,37.60044295579913,2.5721955532676297,0.5906263768083032,B,484,Correct
2,new_learn,80,342,B,71.16810665902997,59.12776287594447,3.5584053329514984,0.9287767273713322,B,732,Incorrect
2,new_learn,80,343,A,38.35262703758232,49.42417183502668,1.9176313518791162,0.7763530757333968,A,1115,Correct
2,new_learn,80,344,B,61.62584101822157,35.84545427099803,3.0812920509110784,0.5630590790117814,B,575,Incorrect
2,new_learn,80,345,A,22.673400216987872,36.86868004830805,1.1336700108493936,0.5791318719365858,A,704,Correct
2,new_learn,80,346,B,33.941233792269855,20.43301555259171,1.6970616896134927,0.3209610577535405,B,748,Correct
2,new_learn,80,347,B,71.41296576614347,40.52567248819332,3.570648288307174,0.6365757748534707,B,733,Incorrect
2,new_learn,80,348,A,55.58341803304112,76.94785942183628,2.779170901652056,1.2086941493455052,A,1187,Incorrect
2,new_learn,80,349,B,60.63364289662908,48.152486019900735,3.031682144831454,0.7563774816610269,B,739,Correct
2,new_learn,80,350,B,75.95213760133623,47.628236262192274,3.7976068800668115,0.7481425857237112,B,350,Correct
2,new_learn,80,351,B,66.330994740236,53.643592758473524,3.3165497370118,0.8426315846109151,A,1343,Incorrect
2,new_learn,80,352,B,54.67326512011783,36.02638036761904,2.7336632560058916,0.5659010594917177,B,722,Incorrect
2,new_learn,80,353,B,50.76180913854405,40.33129697249389,2.5380904569272023,0.6335225313926753,B,676,Correct
2,new_learn,80,354,A,23.89965689160179,44.20279190219053,1.1949828445800896,0.6943358315404008,A,901,Incorrect
2,new_learn,80,355,A,19.92272559213995,47.59298557144838,0.9961362796069976,0.7475888691683363,A,588,Incorrect
2,new_learn,80,356,A,39.57313719820232,49.72161848805606,1.978656859910116,0.7810253568333567,B,1534,Incorrect
2,new_learn,80,357,A,27.98129530686088,46.49960465757311,1.3990647653430441,0.730414081935307,B,3028,Correct
2,new_learn,80,358,B,55.33379115602092,38.50677981113498,2.766689557801046,0.6048630828403071,B,770,Correct
2,new_learn,80,359,B,62.19336749824179,37.894818907489274,3.1096683749120895,0.5952504234444194,B,564,Correct
2,new_learn,80,360,A,37.458671418449946,46.26384929772787,1.8729335709224972,0.7267108454026361,B,441,Incorrect
2,new_learn,80,361,B,66.04306713671616,55.64495736893507,3.302153356835808,0.8740689463978182,B,809,Correct
2,new_learn,80,362,A,19.579023737021647,41.89437056332703,0.9789511868510823,0.6580752339425833,B,828,Correct
2,new_learn,80,363,B,48.02766049302095,20.746886476273435,2.401383024651048,0.32589133069361026,B,644,Correct
2,new_learn,80,364,B,68.27501333869817,56.648743549875405,3.4137506669349085,0.8898363828569038,B,1685,Correct
2,new_learn,80,365,B,59.20797245655837,40.09610494037068,2.9603986228279187,0.6298281435911697,B,540,Correct
2,new_learn,80,366,A,27.845223358996616,43.15263417280136,1.392261167949831,0.6778399925016031,B,571,Incorrect
2,new_learn,80,367,B,51.068318292234736,44.15094218796552,2.553415914611737,0.6935213781339007,B,389,Correct
2,new_learn,80,368,B,61.108223190126076,39.08562748892675,3.055411159506304,0.6139556009007976,B,473,Correct
2,new_learn,80,369,B,66.2097571080964,40.8418867604934,3.3104878554048196,0.6415428570275616,B,433,Correct
2,new_learn,80,370,B,86.62372507286025,62.574252559337,4.331186253643012,0.9829140607214272,B,573,Incorrect
2,new_learn,80,371,A,57.714129272420685,66.18549543544192,2.8857064636210343,1.0396393311709256,A,537,Incorrect
2,new_learn,80,372,A,41.92439228234562,59.867457504285476,2.096219614117281,0.9403958234228118,B,569,Correct
2,new_learn,80,373,A,37.94720145589558,51.244471826516694,1.8973600727947793,0.8049462811363699,B,551,Correct
2,new_learn,80,374,A,16.043945905283376,34.02846873472134,0.8021972952641688,0.5345179369495527,A,700,Correct
2,new_learn,80,375,B,71.56087789585361,54.85464040755944,3.57804389479268,0.8616546765984927,B,657,Correct
2,new_learn,80,376,B,73.18452500680917,46.8507963823647,3.6592262503404585,0.735930588648341,B,652,Correct
2,new_learn,80,377,A,42.77220831942159,58.10552345671598,2.1386104159710793,0.9127194281230414,A,696,Incorrect
2,new_learn,80,378,A,25.105383031532696,50.56915774559625,1.2552691515766348,0.7943384723589428,A,514,Correct
2,new_learn,80,379,A,32.52196584273847,56.132786022062305,1.6260982921369234,0.8817317409621938,A,417,Correct
2,new_learn,80,380,B,57.850413198532074,36.039696787492346,2.892520659926604,0.5661102333259481,B,487,Incorrect
2,new_learn,80,381,B,48.48928904508118,25.548273162787005,2.424464452254059,0.4013113364005846,A,486,Incorrect
2,new_learn,80,382,B,36.11489545150954,13.96683815682157,1.805744772575477,0.21939058073674128,A,1085,Incorrect
2,new_learn,80,383,A,32.09598542796814,56.86611212373083,1.604799271398407,0.8932508004306311,A,757,Correct
2,new_learn,80,384,A,26.080739236730192,49.74259078287416,1.3040369618365097,0.781354788870004,A,609,Correct
2,new_learn,80,385,B,76.13247750081237,56.534320124330534,3.8066238750406183,0.8880390238914522,B,944,Correct
2,new_learn,80,386,B,67.78860869015439,57.96824473038953,3.3894304345077195,0.9105630589324349,B,1045,Correct
2,new_learn,80,387,A,29.751059514121152,62.53962549721286,1.4875529757060577,0.9823701401015041,B,1089,Incorrect
2,new_learn,80,388,A,53.48553175521637,81.46673579749594,2.6742765877608186,1.2796764934667693,A,990,Correct
2,new_learn,80,389,A,34.24021761373012,48.33206362050023,1.712010880686506,0.7591982800149901,B,695,Incorrect
2,new_learn,80,390,B,61.36041722499628,45.8893935196693,3.0680208612498143,0.7208289077954205,B,550,Correct
2,new_learn,80,391,B,57.919738469474915,26.9883911399132,2.895986923473746,0.4239326566867958,B,562,Incorrect
2,new_learn,80,392,B,59.98759361032405,42.311423423435194,2.9993796805162027,0.6646262849499556,B,1371,Correct
2,new_learn,80,393,B,74.65190163943743,64.30094924322415,3.7325950819718714,1.010036948806816,A,1810,Incorrect
2,new_learn,80,394,A,42.28800514226005,69.50179654368739,2.1144002571130023,1.091731667164704,A,924,Correct
2,new_learn,80,395,B,70.19610258336819,49.44635205600965,3.5098051291684094,0.7767014818298724,B,1513,Incorrect
2,new_learn,80,396,B,41.66214226739487,22.47623983137864,2.0831071133697434,0.3530559496729071,B,2431,Correct
2,new_learn,80,397,B,78.76199872512707,51.80799840966296,3.9380999362563536,0.813798136004944,A,864,Incorrect
2,new_learn,80,398,B,51.367727372448385,28.841179935339962,2.568386368622419,0.4530361950286268,B,883,Correct
2,new_learn,80,399,B,62.96231435703302,31.193560449712358,3.1481157178516512,0.4899873017406273,B,459,Correct
2,new_learn,80,400,A,61.278845735267154,72.38102519777894,3.063942286763358,1.1369584851032,A,672,Correct
2,new_learn,80,401,B,75.9770708568467,65.08767758345162,3.798853542842335,1.0223948486769634,A,575,Incorrect
2,new_learn,80,402,A,12.517730978322781,39.81972456356139,0.625886548916139,0.6254867707842674,A,584,Incorrect
2,new_learn,80,403,B,33.628421716559444,10.575758061964482,1.6814210858279721,0.1661236191680532,B,628,Correct
2,new_learn,80,404,A,20.025037233549753,42.37562733273285,1.0012518616774877,0.6656347975988617,A,563,Incorrect
2,new_learn,80,405,A,46.13173081695246,70.60647980261551,2.306586540847623,1.109083991218665,A,698,Incorrect
2,new_learn,80,406,A,45.412575509256754,76.32656930250309,2.270628775462838,1.1989349469722796,B,1018,Incorrect
2,new_learn,80,407,B,67.37106625062003,52.53495904664115,3.368553312531002,0.8252172069878423,B,1680,Correct
2,new_learn,80,408,A,57.50985783227734,75.1339209758488,2.875492891613867,1.180200870865613,A,689,Correct
2,new_learn,80,409,A,52.835874226748246,81.56470896230417,2.6417937113374124,1.2812154523408217,A,498,Correct
2,new_learn,80,410,A,51.45410805748555,66.08998096123851,2.5727054028742775,1.038138993318581,B,1444,Incorrect
2,new_learn,80,411,B,44.916581003924094,36.21562794384848,2.2458290501962046,0.568873753467678,B,681,Incorrect
2,new_learn,80,412,B,56.123178770761484,37.39972947584979,2.806158938538074,0.5874735768378767,B,660,Correct
2,new_learn,80,413,B,72.82008178428245,46.40197500409462,3.641004089214123,0.7288805189246044,B,1721,Incorrect
2,new_learn,80,414,B,63.87027054429924,39.19683307297742,3.193513527214962,0.6157024141302566,B,774,Correct
2,new_learn,80,415,A,65.16855812466066,86.55414295376403,3.258427906233033,1.3595892982065292,A,835,Correct
2,new_learn,80,416,B,47.050860756075885,26.16925036449986,2.352543037803794,0.41106562347532394,B,679,Incorrect
2,new_learn,80,417,A,24.521520882553197,48.828708142827615,1.22607604412766,0.7669995539289368,A,1390,Correct
2,new_learn,80,418,A,46.00720167946547,60.01500222677133,2.3003600839732736,0.9427134505039996,B,697,Incorrect
2,new_learn,80,419,B,81.90587364859914,52.5663677991577,4.095293682429957,0.8257105745186646,B,728,Incorrect
2,new_learn,80,420,B,81.9797950882272,53.62800061208579,4.0989897544113605,0.8423866637481884,A,835,Correct
2,new_learn,80,421,B,73.0944574995382,54.07259295446069,3.6547228749769096,0.8493703039314245,A,462,Incorrect
2,new_learn,80,422,B,48.07687093682461,36.77937993511797,2.4038435468412307,0.5777291490387724,B,639,Correct
2,new_learn,80,423,A,33.614325541938214,59.018541195189655,1.6807162770969108,0.927061077221972,B,1300,Incorrect
2,new_learn,80,424,B,48.24941157547306,33.2983487809159,2.412470578773653,0.5230492395339803,A,640,Incorrect
2,new_learn,80,425,B,61.593242486962986,43.1535055112779,3.079662124348149,0.6778536794543863,B,578,Correct
2,new_learn,80,426,A,41.87186831486653,54.55724706621705,2.0935934157433267,0.856983232916554,A,810,Incorrect
2,new_learn,80,427,B,42.113796989072625,18.718457259042466,2.1056898494536314,0.29402883905771177,B,670,Correct
2,new_learn,80,428,A,69.58217611979535,88.05255992778727,3.4791088059897675,1.3831263769945574,A,967,Correct
2,new_learn,80,429,B,52.512374265193515,35.85190715916639,2.6256187132596756,0.5631604407421021,B,1056,Correct
2,new_learn,80,430,A,36.92627927469318,52.14106326178518,1.8463139637346588,0.8190299064679248,A,1320,Correct
2,new_learn,80,431,B,73.50824623619897,41.29673324561707,3.675412311809948,0.6486875689084398,B,954,Correct
2,new_learn,80,432,B,59.85395010653384,44.19688931577671,2.992697505326692,0.6942431139298265,B,722,Incorrect
2,new_learn,80,433,B,70.71935177922857,59.55052998013758,3.535967588961429,0.9354175375148949,B,763,Correct
2,new_learn,80,434,B,61.51345754490238,47.16608804293262,3.075672877245119,0.7408831784712325,B,531,Correct
2,new_learn,80,435,B,39.69035084781873,15.144713742142336,1.9845175423909365,0.23789260716517377,B,631,Correct
2,new_learn,80,436,A,25.58212595512306,56.91870380732948,1.2791062977561531,0.8940769086647984,A,600,Correct
2,new_learn,80,437,B,52.84334312078666,30.078732441221682,2.642167156039333,0.4724756243331751,B,550,Incorrect
2,new_learn,80,438,A,47.636167145975975,66.90558209073575,2.381808357298799,1.0509504259020213,A,626,Incorrect
2,new_learn,80,439,B,38.945021862339836,15.532370729622151,1.947251093116992,0.2439819088850704,B,498,Incorrect
2,new_learn,80,440,A,30.352386037358162,53.003364044812,1.517619301867908,0.8325748954936338,A,500,Correct
2,new_learn,80,441,A,45.206871918058326,67.59936554500206,2.260343595902916,1.0618483509175474,A,567,Correct
2,new_learn,80,442,A,59.460255129076955,82.42691196415629,2.9730127564538473,1.2947589054234303,A,633,Correct
2,new_learn,80,443,A,38.828888610977415,65.34421677565012,1.9414444305488707,1.0264245568848067,A,696,Correct
2,new_learn,80,444,A,39.94947382580984,59.394107815486166,1.9974736912904918,0.9329604638982574,A,519,Correct
2,new_learn,80,445,A,58.77925322427283,74.87278354102392,2.9389626612136412,1.1760989336314978,A,569,Incorrect
2,new_learn,80,446,A,27.64097494747427,49.811614637136394,1.3820487473737133,0.7824390130373675,A,524,Correct
2,new_learn,80,447,A,66.22144771234818,81.5552636942457,3.3110723856174094,1.2810670864171032,A,545,Correct
2,new_learn,80,448,B,81.90011534051013,60.63094581283971,4.095005767025507,0.9523886697290903,B,642,Correct
2,new_learn,80,449,B,81.14077580878315,58.77050189952551,4.057038790439157,0.9231648850766717,B,748,Correct
2,new_learn,80,450,A,51.761991764629066,63.61050923904291,2.5880995882314535,0.9991915425824143,A,591,Correct
2,new_learn,80,451,A,21.841250103276263,35.20908877244747,1.092062505163813,0.5530630731355592,A,594,Correct
2,new_learn,80,452,A,64.32698191667808,82.65806636818577,3.2163490958339036,1.2983898703111498,A,658,Correct
2,new_learn,80,453,A,25.330208163142984,50.5781878759392,1.2665104081571492,0.7944803173146746,A,700,Correct
2,new_learn,80,454,A,55.625338188956974,83.87984148657601,2.7812669094478486,1.3175814689925176,A,903,Correct
2,new_learn,80,455,A,11.472767786906182,36.991613207443244,0.5736383893453091,0.5810629014846943,A,637,Incorrect
2,new_learn,80,456,A,61.893096669990726,77.13487871363026,3.0946548334995363,1.2116318415114027,A,1241,Correct
2,new_learn,80,457,B,88.76914229616025,64.55692568647005,4.4384571148080125,1.0140578173747827,B,1278,Correct
2,new_learn,80,458,A,53.4430727142975,71.71943394366862,2.672153635714875,1.126566233985239,A,1217,Correct
2,new_learn,80,459,A,45.491864243045384,53.80093852178017,2.274593212152269,0.8451031660813033,B,670,Incorrect
2,new_learn,80,460,B,40.67578055326237,30.921532957592966,2.0337890276631185,0.4857143038865437,B,639,Incorrect
2,new_learn,80,461,B,60.72158234209411,47.9430319570398,3.0360791171047055,0.7530873849352847,A,633,Correct
2,new_learn,80,462,A,56.719248381800995,83.2869037795915,2.8359624190900496,1.3082676252710232,A,610,Incorrect
2,new_learn,80,463,B,51.93133247733961,20.338212695986318,2.5965666238669804,0.3194718979642864,B,539,Correct
2,new_learn,80,464,A,36.23345019279933,59.93151936202928,1.8116725096399664,0.9414021047311281,A,752,Correct
2,new_learn,80,465,B,39.02218922898915,23.184979251849175,1.9511094614494573,0.3641888024562057,B,601,Correct
2,new_learn,80,466,A,29.96657222317675,41.57021249573371,1.4983286111588376,0.6529833709238182,A,719,Correct
2,new_learn,80,467,A,53.735518090334736,73.19270546128136,2.6867759045167365,1.1497083288676153,A,695,Incorrect
2,new_learn,80,468,B,70.34779427250885,54.41382068844392,3.5173897136254424,0.8547302966428385,A,492,Incorrect
2,new_learn,80,469,B,76.36471745825156,53.315805649130084,3.8182358729125783,0.8374827167376414,B,387,Correct
2,new_learn,80,470,B,54.23711045270256,23.027944854351286,2.711855522635128,0.3617221119085044,B,554,Correct
2,new_learn,80,471,A,22.879842918269677,40.90707139546274,1.1439921459134839,0.6425667748792945,B,627,Incorrect
2,new_learn,80,472,A,50.79942370802004,76.7788920378753,2.539971185401002,1.2060400158847644,B,514,Correct
2,new_learn,80,473,B,74.37358254776609,45.43145299806397,3.7186791273883046,0.7136355949031387,B,512,Correct
2,new_learn,80,474,B,53.936193901762714,22.926654049367485,2.696809695088136,0.3601310396644379,B,561,Correct
2,new_learn,80,475,A,48.503423319178296,72.27725837360245,2.425171165958915,1.1353285196406042,A,697,Correct
2,new_learn,80,476,B,54.64160930828906,30.27829694103919,2.732080465414453,0.47561037616589513,B,607,Incorrect
2,new_learn,80,477,A,60.179388181733216,71.86648208409153,3.0089694090866606,1.1288760607736221,A,575,Correct
2,new_learn,80,478,A,25.827384140937852,38.90231647657812,1.2913692070468925,0.611076158252215,A,1012,Correct
2,new_learn,80,479,B,53.81526393221109,38.57427039259996,2.6907631966105545,0.6059232224148916,A,1054,Incorrect
2,new_learn,80,480,B,61.730986072948355,49.731406784209156,3.0865493036474176,0.7811791110297854,B,968,Correct
2,new_learn,80,481,A,26.397840013916085,50.607218890096725,1.3198920006958041,0.7949363354186924,A,631,Correct
2,new_learn,80,482,B,72.03886266018918,42.62910402827849,3.601943133009459,0.6696164002217738,B,538,Correct
2,new_learn,80,483,A,52.973660222076305,76.64798573240797,2.6486830111038153,1.2039837444469408,A,725,Correct
2,new_learn,80,484,A,44.62407704040961,61.388482921077006,2.2312038520204807,0.96428803479939,A,468,Incorrect
2,new_learn,80,485,A,35.72739453268668,66.76981238056524,1.786369726634334,1.048817760281763,A,876,Correct
2,new_learn,80,486,B,74.5849331781973,47.139881794608755,3.7292466589098647,0.7404715316851704,A,604,Incorrect
2,new_learn,80,487,A,48.241612393076224,62.22552942714397,2.4120806196538114,0.9774363305702549,B,576,Correct
2,new_learn,80,488,A,28.949180986399906,58.042984507447,1.4474590493199953,0.9117370686051083,A,611,Incorrect
2,new_learn,80,489,A,27.173721583182648,57.59565331536396,1.3586860791591322,0.9047104066712601,A,431,Correct
2,new_learn,80,490,B,85.43927474744481,59.21171919235187,4.271963737372241,0.9300955101055719,B,653,Correct
2,new_learn,80,491,A,19.47324583509124,42.741521022532574,0.973662291754562,0.6713822422382102,B,575,Incorrect
2,new_learn,80,492,B,55.67971137463893,48.98733725894004,2.7839855687319464,0.7694912942580578,B,634,Incorrect
2,new_learn,80,493,A,52.93195367005692,71.19460996133526,2.6465976835028457,1.118322318148608,A,895,Correct
2,new_learn,80,494,A,48.72070741088396,66.34280434206975,2.436035370544198,1.042110333697957,A,584,Incorrect
2,new_learn,80,495,B,57.35363861897416,35.3232677589473,2.867681930948708,0.5548565924614702,B,869,Correct
2,new_learn,80,496,B,55.62150106807559,42.724252727582595,2.7810750534037796,0.6711109924954358,B,457,Correct
2,new_learn,80,497,A,65.44825973422735,89.44470590715008,3.2724129867113674,1.4049941549020113,A,680,Incorrect
2,new_learn,80,498,B,74.2751160157175,51.11864653391749,3.7137558007858753,0.8029698220620427,B,569,Correct
2,new_learn,80,499,A,37.328585024313206,64.55602003464541,1.8664292512156604,1.0140435914291877,A,1076,Correct
2,new_learn,80,500,B,64.09749628076197,39.11351350571499,3.2048748140380985,0.6143936334281969,B,1361,Correct
2,new_learn,80,501,A,55.03066432730188,78.0414300400819,2.751533216365094,1.2258719164478153,B,792,Incorrect
2,new_learn,80,502,B,37.84654335132557,28.10482494082283,1.8923271675662787,0.44146955782258096,B,586,Incorrect
2,new_learn,80,503,A,23.761289865738654,54.31366037389829,1.1880644932869329,0.8531569821010496,A,568,Correct
2,new_learn,80,504,A,17.863644678552053,45.95348516194563,0.8931822339276025,0.7218356569580797,A,369,Correct
2,new_learn,80,505,A,60.471010806506996,77.02475446805673,3.02355054032535,1.209902013907023,A,1356,Incorrect
2,new_learn,80,506,A,25.173915817069002,53.63818479087843,1.2586957908534502,0.8425466364545772,A,682,Correct
2,new_learn,80,507,A,42.72914111405114,51.869715847264004,2.136457055702557,0.8147675912477734,B,572,Incorrect
2,new_learn,80,508,A,49.829129255821755,60.811154693306854,2.4914564627910876,0.9552193842040263,A,584,Correct
2,new_learn,80,509,B,68.75195253356569,42.94419554997751,3.4375976266782846,0.6745658462706641,B,1540,Correct
2,new_learn,80,510,B,79.33490209654485,51.957927212288205,3.9667451048272424,0.8161532121293891,B,655,Correct
2,new_learn,80,511,B,83.59088903029598,65.51734193161317,4.1795444515148,1.0291440004754322,B,413,Incorrect
2,new_learn,80,512,B,61.24163046914642,42.848092140114055,3.062081523457321,0.6730562574386043,B,384,Correct
2,new_learn,80,513,B,65.3532122314072,37.76493461223234,3.26766061157036,0.59321020570544,B,454,Correct
2,new_learn,80,514,B,60.061031980950396,52.35584622850885,3.0030515990475197,0.8224037094198015,A,829,Correct
2,new_learn,80,515,A,51.88995889764878,72.51982017604826,2.5944979448824395,1.1391386715236302,A,801,Incorrect
2,new_learn,80,516,A,23.75675184324856,38.577640418024814,1.187837592162428,0.6059761586504772,A,594,Correct
2,new_learn,80,517,A,52.75658554576252,78.4134731171591,2.6378292772881258,1.2317159554366388,B,781,Incorrect
2,new_learn,80,518,B,46.3508721112313,37.99509430387987,2.317543605561565,0.5968255456876019,B,553,Correct
2,new_learn,80,519,B,56.878043669298975,46.98341129495642,2.8439021834649485,0.7380136988241138,B,546,Correct
2,new_learn,80,520,B,62.45222832051374,45.7539043617238,3.1226114160256873,0.7187006490792074,B,455,Incorrect
2,new_learn,80,521,B,67.26086037893572,37.172894747661886,3.3630430189467857,0.5839104652596059,A,483,Correct
2,new_learn,80,522,B,88.09056967943039,65.77221421127881,4.404528483971519,1.0331475248824384,A,1137,Incorrect
2,new_learn,80,523,B,55.51078332238796,31.48007805841759,2.7755391661193975,0.4944879098137897,A,1090,Incorrect
2,new_learn,80,524,A,50.3768460355048,78.37226864231184,2.5188423017752397,1.231068717059263,A,661,Incorrect
2,new_learn,80,525,B,40.924701084640134,20.376091881413068,2.0462350542320067,0.3200669028175896,B,469,Correct
2,new_learn,80,526,B,60.406527519952476,44.40800411184599,3.020326375997624,0.6975592973918034,B,717,Incorrect
2,new_learn,80,527,B,62.1549421541617,30.448949624106703,3.107747107708085,0.4782909822430965,B,598,Correct
2,new_learn,80,528,A,51.59822588152079,81.85648238674432,2.579911294076039,1.2857986185744912,A,694,Correct
2,new_learn,80,529,A,65.17078019202849,85.06813859025924,3.2585390096014244,1.336247196248584,A,1190,Incorrect
2,new_learn,80,530,B,65.5602542605869,47.188600046256404,3.2780127130293453,0.7412367961925305,A,1741,Correct
2,new_learn,80,531,A,41.20514227304105,48.05013521633146,2.060257113652052,0.7547697589981156,A,784,Incorrect
2,new_learn,80,532,A,37.440430308958206,48.403077083086785,1.8720215154479103,0.7603137568768296,B,926,Incorrect
2,new_learn,80,533,B,31.126791349172183,12.629741418961391,1.5563395674586094,0.1983875142927392,B,586,Incorrect
2,new_learn,80,534,B,42.90694863800789,18.095940752280864,2.1453474319003947,0.28425037263580855,A,595,Incorrect
2,new_learn,80,535,B,77.37783084260674,45.929569210338116,3.8688915421303367,0.721459986068711,B,650,Incorrect
2,new_learn,80,536,B,73.69566355420615,54.72953059757941,3.6847831777103073,0.8596894562988665,A,614,Incorrect
2,new_learn,80,537,B,50.12908725308939,43.29910135450185,2.5064543626544693,0.6801406936117144,A,1347,Incorrect
2,new_learn,80,538,A,34.290042941750805,57.22980157115137,1.7145021470875403,0.8989636209116537,B,1378,Incorrect
2,new_learn,80,539,A,54.3033716008332,75.39582859703121,2.7151685800416603,1.1843149061587426,A,1053,Correct
2,new_learn,80,540,B,76.57136029946363,49.52266851029244,3.828568014973182,0.7779002578904866,A,1233,Correct
2,new_learn,80,541,B,78.49281874502324,53.49356300555172,3.9246409372511617,0.84027492276292,A,767,Incorrect
2,new_learn,80,542,A,31.967266754474515,49.59567490152265,1.5983633377237256,0.7790470396022562,A,745,Correct
2,new_learn,80,543,A,43.782370611913535,56.88575980488146,2.189118530595677,0.8935594254844457,A,1583,Correct
2,new_learn,80,544,B,67.39397152895941,35.84244291438423,3.3696985764479708,0.5630117767327051,A,929,Incorrect
2,new_learn,80,545,A,22.916843732895718,54.4398696075794,1.1458421866447859,0.8551394721077885,A,693,Correct
2,new_learn,80,546,B,55.94597511564863,27.38442821040433,2.7972987557824314,0.43015359244281665,B,518,Correct
2,new_learn,80,547,B,31.518964099836513,15.204037788816951,1.5759482049918256,0.23882446711124466,A,1014,Correct
2,new_learn,80,548,A,12.665896817415582,31.478453122878182,0.6332948408707791,0.4944623853860239,A,508,Incorrect
2,new_learn,80,549,B,43.89180240938851,29.117136272345554,2.1945901204694254,0.45737090703386846,A,877,Correct
2,new_learn,80,550,A,40.84431341044636,54.68141353709623,2.0422156705223182,0.8589336352802348,A,1209,Correct
2,new_learn,80,551,A,62.15730770762504,73.26484274241189,3.1078653853812517,1.1508414586298634,B,860,Correct
2,new_learn,80,552,B,68.50193733377377,46.22598383897288,3.4250968666886883,0.7261160561673885,B,1305,Incorrect
2,new_learn,80,553,A,28.469431783801205,47.579099301029686,1.4234715891900604,0.7473707441426705,B,711,Incorrect
2,new_learn,80,554,B,43.61873187996838,21.480441081972728,2.180936593998419,0.3374139794949696,A,969,Incorrect
2,new_learn,80,555,A,24.004428522015182,42.96727996471011,1.200221426100759,0.6749284554093459,A,983,Correct
2,new_learn,80,556,B,59.14887965371715,36.288192065712686,2.9574439826858576,0.570013588028492,B,868,Correct
2,new_learn,80,557,A,64.8757532118183,82.41031504480843,3.243787660590915,1.2944982016239528,A,757,Correct
2,new_learn,80,558,A,18.443155839091787,38.575515191068924,0.9221577919545894,0.605942775663518,A,633,Incorrect
2,new_learn,80,559,B,41.27629644733148,29.377780702553693,2.063814822366574,0.4614651001695734,B,812,Correct
2,new_learn,80,560,A,13.456261401325467,41.79914398213394,0.6728130700662733,0.6565794183030699,A,864,Correct
2,new_learn,80,561,A,58.350119829415384,66.55645526148531,2.9175059914707693,1.0454663544923,A,1053,Correct
2,new_learn,80,562,B,78.35428727026085,61.128412477813065,3.9177143635130425,0.9602028578295208,A,1122,Correct
2,new_learn,80,563,B,39.172875427675535,24.266724142260546,1.9586437713837768,0.3811808114600791,B,958,Incorrect
2,new_learn,80,564,B,46.37292280699746,18.799937251857592,2.318646140349873,0.29530872379192447,A,726,Correct
2,new_learn,80,565,A,60.83083274093726,71.15026329005077,3.0415416370468633,1.1176257222650154,A,653,Correct
2,new_learn,80,566,A,26.02095152361014,51.44187347860376,1.3010475761805071,0.808047059036386,A,1025,Correct
2,new_learn,80,567,A,32.3163312509939,48.507040805096196,1.615816562549695,0.7619468152033526,A,520,Correct
2,new_learn,80,568,A,33.327692219090615,42.85972873520996,1.6663846109545306,0.6732390446469348,A,507,Correct
2,new_learn,80,569,A,35.10530276360409,49.69926048772397,1.7552651381802042,0.7806741581853955,A,400,Correct
2,new_learn,80,570,B,73.08237994544858,62.25610578332241,3.6541189972724286,0.9779166228499736,A,724,Correct
2,new_learn,80,571,A,22.070746855500293,34.751953271158214,1.1035373427750146,0.5458824054728321,A,654,Incorrect
2,new_learn,80,572,A,51.945273908809156,67.0766139182167,2.597263695440458,1.053636987565742,A,499,Incorrect
2,new_learn,80,573,B,63.286544245742945,41.73716699089536,3.1643272122871475,0.6556058860012364,A,586,Correct
2,new_learn,80,574,B,37.1644585945151,27.769920008744887,1.8582229297257549,0.4362088834512457,A,886,Incorrect
2,new_learn,80,575,B,65.25328553452682,49.609131274622044,3.262664276726341,0.7792584118166214,A,457,Incorrect
2,new_learn,80,576,B,45.87601501830972,27.807868717814028,2.293800750915486,0.4368049803793699,B,722,Incorrect
2,new_learn,80,577,A,40.20493677123084,56.51799136726622,2.010246838561542,0.8877825323752747,A,902,Correct
2,new_learn,80,578,A,38.41738060411097,57.04961832747779,1.9208690302055484,0.8961333091385291,A,385,Correct
2,new_learn,80,579,B,70.30535644452475,53.999572439623336,3.5152678222262375,0.8482233003665527,A,798,Correct
2,new_learn,80,580,B,56.80253459172277,40.48269172534698,2.8401267295861383,0.635900634609452,A,449,Incorrect
2,new_learn,80,581,B,72.54041980573687,58.569598932968624,3.6270209902868435,0.920009108657574,A,542,Incorrect
2,new_learn,80,582,A,16.177492047166005,37.05334837192321,0.8088746023583002,0.5820326351806863,A,644,Correct
2,new_learn,80,583,A,29.95705620263511,54.18404127633224,1.4978528101317554,0.8511209300776574,B,986,Correct
2,new_learn,80,584,A,51.28620789934667,80.83040427657772,2.564310394967334,1.2696810213099476,A,520,Correct
2,new_learn,80,585,A,12.681362814292658,33.33373949951513,0.6340681407146329,0.5236051556417632,A,610,Incorrect
2,new_learn,80,586,B,59.090235300175394,27.293830960716292,2.9545117650087693,0.4287304941725398,A,629,Correct
2,new_learn,80,587,B,41.489543524424164,15.747961310779491,2.074477176221208,0.24736839781480569,B,776,Correct
2,new_learn,80,588,A,23.763769640050565,34.592083168382445,1.1881884820025284,0.5433711717707872,A,809,Incorrect
2,new_learn,80,589,B,59.38523144779399,38.07786153980016,2.9692615723896996,0.5981256503892276,A,677,Incorrect
2,new_learn,80,590,B,86.10244410268882,62.15227476983882,4.305122205134441,0.9762856491040995,B,726,Correct
2,new_learn,80,591,B,56.54353030927195,24.063825221933897,2.8271765154635977,0.37799368267248157,B,587,Correct
2,new_learn,80,592,B,49.54497722081074,30.78068672485232,2.4772488610405374,0.4835018964362246,B,547,Correct
2,new_learn,80,593,A,40.92385215649437,70.90732882639539,2.0461926078247186,1.1138097166333976,A,732,Incorrect
2,new_learn,80,594,A,56.40164703390566,75.52874350886823,2.820082351695283,1.186402728711641,A,469,Incorrect
2,new_learn,80,595,B,72.54193647348197,52.3884529466101,3.6270968236740986,0.8229158945500242,B,423,Incorrect
2,new_learn,80,596,A,30.622482794121193,61.97219909647615,1.5311241397060595,0.9734570270414675,A,603,Correct
2,new_learn,80,597,B,53.34625227531882,36.46892298552675,2.667312613765941,0.5728525026783139,B,509,Correct
2,new_learn,80,598,B,66.8580680349035,44.45645301466627,3.342903401745175,0.6983203309776769,B,485,Correct
2,new_learn,80,599,B,70.52296195656359,53.297889817669045,3.5261480978281794,0.8372012955151366,B,448,Incorrect
2,new_learn,80,600,B,44.45645301466627,33.141931965096504,2.2228226507333138,0.5205922499365996,B,625,Correct
2,new_learn,80,601,B,34.898902034204085,50.410394426576715,1.744945101710204,0.7918446239754864,B,3547,Correct
2,new_learn,80,602,A,53.18131116692792,69.1829693082941,2.6590655583463962,1.0867235406623243,B,803,Incorrect
2,new_learn,80,603,B,20.376091881413068,59.075298915359866,1.0188045940706534,0.927952625405578,A,1717,Incorrect
2,new_learn,80,604,A,48.74388244487637,70.7021582047521,2.4371941222438185,1.1105869040449623,B,800,Incorrect
2,new_learn,80,605,A,45.75984962405299,81.48324030650045,2.2879924812026498,1.2799357456879676,A,1379,Correct
2,new_learn,80,606,B,33.101884525091585,48.507607328978295,1.6550942262545791,0.7619557141396831,A,1006,Incorrect
2,new_learn,80,607,A,47.59106789129747,70.32061994085221,2.3795533945648737,1.104593715010306,A,471,Correct
2,new_learn,80,608,B,36.77937993511797,51.92312906317539,1.8389689967558984,0.8156066040813325,B,938,Correct
2,new_learn,80,609,B,48.245136156922506,40.27328169787407,2.4122568078461253,0.6326112295899672,B,690,Correct
2,new_learn,80,610,A,35.860141942958734,75.60740095034502,1.7930070971479366,1.1876382769131093,A,672,Correct
2,new_learn,80,611,B,50.83783758514044,35.537500846138826,2.541891879257022,0.5582217579258539,B,539,Correct
2,new_learn,80,612,A,53.003364044812,69.64761396264184,2.6501682022405997,1.0940221618254675,A,475,Correct
2,new_learn,80,613,B,28.10482494082283,62.15345664867443,1.4052412470411415,0.9763042140134363,A,509,Incorrect
2,new_learn,80,614,B,20.822592514620183,49.02152174874578,1.0411296257310092,0.7700282629682603,B,577,Correct
2,new_learn,80,615,A,32.55949074906265,83.77697906835421,1.6279745374531325,1.3159657099054374,A,659,Correct
2,new_learn,80,616,A,42.85972873520996,66.67230778090939,2.142986436760498,1.0472861616119127,A,570,Correct
2,new_learn,80,617,A,87.5262163024223,36.58061816225661,4.376310815121115,0.5746070064115937,B,625,Incorrect
2,new_learn,80,618,B,38.50677981113498,44.66620884397908,1.925338990556749,0.7016151678397606,B,1858,Correct
2,new_learn,80,619,A,83.17213681401904,39.75499005455731,4.158606840700952,0.6244699234946627,B,600,Incorrect
2,new_learn,80,620,A,32.72345558766915,87.74345370774502,1.6361727793834575,1.3782709478442392,A,532,Correct
2,new_learn,80,621,A,56.10716609562933,58.51733685828282,2.8053583047814663,0.9191881779081026,B,541,Incorrect
2,new_learn,80,622,A,76.40873828707204,36.37543138889213,3.8204369143536017,0.5713839401125154,A,945,Correct
2,new_learn,80,623,B,39.694760895577694,27.93913548237107,1.9847380447788847,0.4388669138953344,A,859,Incorrect
2,new_learn,80,624,B,42.66732517340335,43.15050035158876,2.1333662586701676,0.6778064745163752,A,1117,Incorrect
2,new_learn,80,625,B,41.89383027717181,37.92558508156429,2.0946915138585904,0.5957336973766852,B,730,Correct
2,new_learn,80,626,B,42.848092140114055,38.75836953085358,2.142404607005703,0.6088150449162403,B,477,Correct
2,new_learn,80,627,A,41.9746454665642,83.2038245386861,2.09873227332821,1.3069626196065522,A,597,Correct
2,new_learn,80,628,A,48.507040805096196,67.6836687490061,2.42535204025481,1.0631725825494132,A,449,Correct
2,new_learn,80,629,A,44.86216729822903,74.53345420069391,2.2431083649114516,1.1707687608178565,A,452,Correct
2,new_learn,80,630,B,18.659425852239995,56.63637563174841,0.9329712926119997,0.8896421080532638,A,492,Incorrect
2,new_learn,80,631,A,62.53962549721286,70.24894048587885,3.1269812748606434,1.103467776764518,A,656,Correct
2,new_learn,80,632,A,76.84955786950846,47.128202843246605,3.8424778934754227,0.7402880791461657,B,662,Incorrect
2,new_learn,80,633,B,18.718457259042466,57.886203010927375,0.9359228629521233,0.909274350616684,B,831,Correct
2,new_learn,80,634,A,36.272152684009285,73.70401762611974,1.8136076342004643,1.157740001571352,B,1383,Incorrect
2,new_learn,80,635,B,36.21562794384848,55.083418996075906,1.8107813971924243,0.8652483222634026,A,634,Incorrect
2,new_learn,80,636,A,64.79384465952673,47.918057388795454,3.2396922329763362,0.7526950853346697,A,1226,Correct
2,new_learn,80,637,B,19.92716554496964,64.82893768505555,0.996358277248482,1.018330571857005,B,848,Correct
2,new_learn,80,638,B,50.880981487591235,22.175740503531728,2.544049074379562,0.3483357172690445,B,2433,Correct
2,new_learn,80,639,B,42.65453811192832,26.183550872108498,2.132726905596416,0.41129025532355334,B,915,Correct
2,new_learn,80,640,B,20.43301555259171,66.05876620773014,1.0216507776295856,1.0376486731170536,A,607,Incorrect
2,new_learn,80,641,B,40.33129697249389,49.23819086145595,2.0165648486246943,0.7734316934320106,B,1417,Correct
2,new_learn,80,642,B,52.39176460179357,36.370922543302356,2.6195882300896782,0.5713131153316103,B,1649,Correct
2,new_learn,80,643,A,54.28743890292131,67.91989309539164,2.7143719451460653,1.0668831859054324,B,1288,Incorrect
2,new_learn,80,644,A,38.90231647657812,74.17261585906215,1.945115823828906,1.165100725401837,A,477,Correct
2,new_learn,80,645,B,67.86824324513549,16.339799699520853,3.3934121622567743,0.2566649734857171,A,2130,Incorrect
2,new_learn,80,646,A,66.90558209073575,52.363832854024025,3.3452791045367873,0.8225291630400287,B,1307,Incorrect
2,new_learn,80,647,A,41.51657677196226,67.60818695978509,2.0758288385981127,1.0619869173769303,A,678,Correct
2,new_learn,80,648,B,35.84244291438423,32.60602847104059,1.7921221457192116,0.5121742975368038,A,2075,Incorrect
2,new_learn,80,649,A,60.59159798828039,52.61545522112513,3.0295798994140193,0.8264816379398471,A,1803,Correct
2,new_learn,80,650,B,22.926654049367485,46.063806098237286,1.1463327024683743,0.7235685741730349,B,962,Correct
2,new_learn,80,651,A,51.244471826516694,62.05279854410442,2.5622235913258344,0.9747230802042293,B,768,Incorrect
2,new_learn,80,652,A,46.32801244712108,62.39544460729201,2.316400622356054,0.9801053519786873,B,612,Incorrect
2,new_learn,80,653,A,68.36767254240573,45.81315621157242,3.4183836271202863,0.7196313749601875,A,604,Correct
2,new_learn,80,654,A,63.24564490252795,66.62529261271195,3.1622822451263977,1.0465476490768308,A,625,Correct
2,new_learn,80,655,A,68.26865351009509,42.73621531392769,3.4134326755047546,0.6712989003623341,B,789,Incorrect
2,new_learn,80,656,A,48.05013521633146,58.79485772695895,2.402506760816573,0.9235474655193567,A,750,Correct
2,new_learn,80,657,B,53.297889817669045,29.47703804343641,2.6648944908834524,0.4630242308342334,B,759,Correct
2,new_learn,80,658,B,34.32350474288174,37.67260979240894,1.7161752371440868,0.5917599708269341,A,734,Incorrect
2,new_learn,80,659,A,77.55259413949213,54.57648744207013,3.8776297069746066,0.8572854600337156,A,799,Correct
2,new_learn,80,660,B,60.57949467374259,15.513236418837181,3.0289747336871296,0.24368134783410259,B,553,Correct
2,new_learn,80,661,A,38.32038540246976,87.78263640470732,1.916019270123488,1.3788864282088622,A,801,Correct
2,new_learn,80,662,B,57.6914956311441,15.71073366485966,2.884574781557205,0.2467836273201448,B,700,Correct
2,new_learn,80,663,A,50.6489492951909,70.24246866399127,2.532447464759545,1.1033661176240313,A,676,Correct
2,new_learn,80,664,A,37.57762831352117,71.60358131364319,1.8788814156760583,1.1247464251283041,A,644,Correct
2,new_learn,80,665,A,75.99278375062313,38.987116961568226,3.7996391875311564,0.6124082011555438,A,1188,Correct
2,new_learn,80,666,B,38.056078969951564,47.425918923162726,1.902803948497578,0.7449645923937658,A,637,Incorrect
2,new_learn,80,667,A,61.97219909647615,69.3775172058788,3.0986099548238077,1.0897794918914416,A,607,Correct
2,new_learn,80,668,A,46.26384929772787,62.541328581550054,2.3131924648863933,0.9823968920877151,A,676,Correct
2,new_learn,80,669,A,75.27271540405349,48.38822273517779,3.7636357702026744,0.7600804253255059,B,733,Incorrect
2,new_learn,80,670,B,17.399874240041726,65.31786786683475,0.8699937120020863,1.0260106691929842,B,666,Correct
2,new_learn,80,671,A,63.387653634889226,56.06570131843524,3.1693826817444615,0.8806779769017786,A,1217,Correct
2,new_learn,80,672,B,34.03172347900907,44.53498978153444,1.7015861739504532,0.6995539836268255,B,1630,Correct
2,new_learn,80,673,B,19.622982201057066,63.16157041602624,0.9811491100528533,0.9921396280409122,B,830,Correct
2,new_learn,80,674,B,36.288192065712686,40.85112034628285,1.8144096032856343,0.6416878978539736,B,736,Correct
2,new_learn,80,675,A,66.76981238056524,64.27260546731333,3.3384906190282617,1.0095917258159335,A,1125,Correct
2,new_learn,80,676,B,19.757902764653288,52.14882028119028,0.9878951382326645,0.819151753443809,B,647,Correct
2,new_learn,80,677,B,47.139881794608755,25.415066821802696,2.3569940897304376,0.3992189360893452,B,670,Correct
2,new_learn,80,678,A,73.39893188213004,54.36753807098374,3.669946594106502,0.8540032909878297,A,774,Correct
2,new_learn,80,679,A,53.265110177383576,69.32455177786989,2.6632555088691787,1.0889475128938062,A,504,Correct
2,new_learn,80,680,A,50.403386007504665,64.22579852439063,2.5201693003752332,1.0088564840758187,A,584,Correct
2,new_learn,80,681,A,49.811614637136394,72.35902505252574,2.4905807318568196,1.1366129076296732,A,435,Correct
2,new_learn,80,682,B,45.13499365860497,40.581615655778386,2.2567496829302485,0.6374545280749895,B,653,Correct
2,new_learn,80,683,A,60.518659720485125,62.37233970481575,3.0259329860242565,0.9797424210192806,A,584,Correct
2,new_learn,80,684,A,41.77146417944077,75.9806845188927,2.0885732089720386,1.1935018014963852,A,528,Correct
2,new_learn,80,685,B,46.98341129495642,43.121956330701025,2.349170564747821,0.677358106084751,B,700,Correct
2,new_learn,80,686,B,20.072819397920895,64.21748264452174,1.0036409698960447,1.0087258585402976,B,796,Correct
2,new_learn,80,687,A,33.431124007972684,82.22112637542996,1.6715562003986344,1.2915264329546439,A,863,Correct
2,new_learn,80,688,A,78.46414345368525,53.25670697844208,3.923207172684263,0.8365543969892896,A,1154,Correct
2,new_learn,80,689,B,50.146174806069126,28.414480179634708,2.5073087403034564,0.4463336109395659,B,724,Correct
2,new_learn,80,690,B,52.28212355269308,28.27991531678005,2.6141061776346537,0.4442198710166883,B,637,Correct
2,new_learn,80,691,B,15.144713742142336,60.30964915218127,0.7572356871071168,0.9473417535853528,B,705,Correct
2,new_learn,80,692,A,34.96829820138872,86.47571713014412,1.7484149100694362,1.358357388249849,A,785,Correct
2,new_learn,80,693,A,61.995013801323424,57.29660027519781,3.099750690066171,0.9000128925011618,A,902,Correct
2,new_learn,80,694,B,52.35584622850885,39.938968019049604,2.617792311425443,0.6273598426030197,B,734,Correct
2,new_learn,80,695,B,58.569598932968624,27.459580194263125,2.928479946648431,0.4313340770447841,B,615,Correct
2,new_learn,80,696,B,17.545487940666497,54.90001649416659,0.8772743970333249,0.8623674425001612,B,683,Correct
2,new_learn,80,697,A,46.692931643279174,79.36440608880692,2.3346465821639586,1.2466531756255643,A,598,Correct
2,new_learn,80,698,B,36.769771929679344,33.213003450354876,1.838488596483967,0.5217086382164366,B,697,Correct
2,new_learn,80,699,B,27.08245788020536,54.30596601682882,1.354122894010268,0.8530361194228319,A,559,Incorrect
2,new_learn,80,700,B,32.47162069895379,59.03227696955429,1.6235810349476896,0.9272768382611484,A,542,Incorrect
2,new_learn,80,701,B,58.924250730741136,27.994301725694356,2.946212536537057,0.43973346321908735,B,687,Correct
2,new_learn,80,702,B,47.16608804293262,38.48654245509762,2.358304402146631,0.6045451951950318,B,739,Correct
2,new_learn,80,703,B,25.548273162787005,51.51071095491882,1.2774136581393503,0.8091283555858013,A,764,Incorrect
2,new_learn,80,704,B,38.13044277883575,43.847862806089275,1.9065221389417875,0.688760618336116,B,567,Correct
2,new_learn,80,705,B,40.8418867604934,33.7902428919036,2.04209433802467,0.5307758941610955,B,633,Correct
2,new_learn,80,706,B,48.60067978307036,28.912862793157842,2.430033989153518,0.4541621867261717,B,580,Correct
2,new_learn,80,707,B,53.62800061208579,18.020204911772794,2.6814000306042898,0.2830607168350406,B,580,Correct
2,new_learn,80,708,B,18.178435688124935,56.73361921292531,0.9089217844062467,0.8911696066544346,B,1031,Correct
2,new_learn,80,709,B,52.50970633217506,36.26152861075533,2.6254853166087524,0.5695947594574252,B,518,Correct
2,new_learn,80,710,B,52.043503842152745,27.42681140291498,2.6021751921076373,0.43081934607395234,B,454,Correct
2,new_learn,80,711,A,73.26484274241189,37.84269229237496,3.6632421371205943,0.5944316204889214,B,588,Incorrect
2,new_learn,80,712,B,45.51848052492001,31.45520376693277,2.2759240262460003,0.4940971853568299,B,677,Correct
2,new_learn,80,713,B,38.07786153980016,40.61476855220601,1.903893076990008,0.6379752925543006,B,483,Correct
2,new_learn,80,714,A,60.90190962440231,65.32490532005895,3.0450954812201156,1.0261212132497297,A,731,Correct
2,new_learn,80,715,A,49.34486601346638,69.32974919568363,2.467243300673319,1.0890291537419128,A,540,Correct
2,new_learn,80,716,B,35.28154464308885,37.90906066768691,1.7640772321544427,0.5954741324904749,B,792,Correct
2,new_learn,80,717,B,60.66462292840066,14.057634180222422,3.033231146420033,0.22081680133719772,B,648,Correct
2,new_learn,80,718,B,46.48438061039402,45.311959754052154,2.3242190305197012,0.711758599415433,B,717,Correct
2,new_learn,80,719,B,38.57427039259996,46.18473606778891,1.9287135196299983,0.725468137692746,B,623,Correct
2,new_learn,80,720,A,55.432947048664964,63.920262007168006,2.771647352433248,1.0040571276862689,B,771,Incorrect
2,new_learn,80,721,A,71.15026329005077,39.16916725906274,3.5575131645025384,0.6152678405415067,A,894,Correct
2,new_learn,80,722,B,41.35493228930516,49.369304233756765,2.0677466144652583,0.7754912174680486,B,1528,Correct
2,new_learn,80,723,B,47.863608174083964,33.76989757485785,2.393180408704198,0.5304563106682659,B,539,Correct
2,new_learn,80,724,B,56.85947677041966,20.557506132218137,2.8429738385209826,0.3229165512055181,B,428,Correct
2,new_learn,80,725,A,67.0766139182167,48.054726091190844,3.353830695910835,0.7548418722917747,A,628,Correct
2,new_learn,80,726,A,76.7788920378753,49.20057629197996,3.8389446018937643,0.7728408451563419,B,1628,Incorrect
2,new_learn,80,727,A,52.69943420045331,54.74016881048258,2.6349717100226657,0.8598565609563859,B,733,Incorrect
2,new_learn,80,728,B,53.25273456282695,36.44326190665208,2.662636728141347,0.5724494193939347,B,602,Correct
2,new_learn,80,729,A,31.590342564263526,87.98588629336233,1.5795171282131764,1.3820790699940697,A,595,Correct
2,new_learn,80,730,B,46.8507963823647,26.815474993190833,2.342539819118235,0.4212164962056457,B,745,Correct
2,new_learn,80,731,A,56.235617232066225,60.63005489455559,2.8117808616033115,0.9523746752174086,B,664,Incorrect
2,new_learn,80,732,B,38.243019692980404,52.94753512319491,1.9121509846490201,0.8316979368435834,A,477,Incorrect
2,new_learn,80,733,B,52.01615710776704,18.34591564041149,2.6008078553883522,0.28817696899647416,B,590,Correct
2,new_learn,80,734,B,24.57793156542823,49.94486364332504,1.2288965782714114,0.7845320835320695,A,624,Incorrect
2,new_learn,80,735,B,67.53102858104602,16.081430724096947,3.376551429052301,0.2526065231101807,A,1335,Incorrect
2,new_learn,80,736,B,49.609131274622044,34.746714465473175,2.480456563731102,0.5458001145055635,B,634,Correct
2,new_learn,80,737,A,43.70393652342915,78.73415243103243,2.1851968261714574,1.236753174319752,A,735,Correct
2,new_learn,80,738,A,31.48699027511117,86.21407388423226,1.5743495137555588,1.3542475057537586,A,575,Correct
2,new_learn,80,739,B,24.960797730385185,60.06277197426523,1.2480398865192592,0.9434638159429528,B,526,Correct
2,new_learn,80,740,B,65.40198893369134,19.111622796006046,3.2700994466845668,0.30020466887055913,B,627,Correct
2,new_learn,80,741,B,55.29454280696147,23.363459178119513,2.7647271403480738,0.36699235858212637,B,644,Correct
2,new_learn,80,742,B,13.265920359730856,60.3722861748861,0.6632960179865428,0.9483256536372139,B,581,Correct
2,new_learn,80,743,A,72.78466156751848,40.21847238475759,3.639233078375924,0.6317502869127921,B,593,Incorrect
2,new_learn,80,744,B,54.30350544985177,32.88199303030382,2.7151752724925884,0.5165091386969662,A,689,Incorrect
2,new_learn,80,745,A,58.07956326968336,65.99847882360868,2.9039781634841684,1.0367016811017526,B,770,Incorrect
2,new_learn,80,746,A,45.056921069845046,76.30410154239236,2.2528460534922523,1.198582024221747,A,567,Correct
2,new_learn,80,747,A,74.42562312743112,41.16600875307958,3.721281156371556,0.6466341533814397,B,503,Incorrect
2,new_learn,80,748,B,26.342940358890758,49.345682455862885,1.317147017944538,0.775120167448568,B,754,Correct
2,new_learn,80,749,A,64.55602003464541,62.671414975686794,3.2278010017322707,0.9844402843884748,B,1848,Incorrect
2,new_learn,80,750,A,71.14049682223815,49.35275019303523,3.5570248411119074,0.7752311872044585,A,537,Correct
2,new_learn,80,751,B,42.94419554997751,31.248047466434315,2.147209777498875,0.49084318179787595,B,643,Correct
2,new_learn,80,752,B,48.76561699485628,43.22646676269444,2.438280849742814,0.6789997521116211,B,671,Correct
2,new_learn,80,753,B,32.7133727616809,52.059564525594205,1.6356686380840448,0.8177497273134529,B,961,Correct
2,new_learn,80,754,A,60.42114876944613,47.1156240087599,3.0210574384723063,0.7400904912760948,B,700,Incorrect
2,new_learn,80,755,B,26.876545541250827,53.844637678665535,1.3438272770625415,0.8457895908324992,B,638,Correct
2,new_learn,80,756,A,60.951627864407165,54.71575673216578,3.0475813932203586,0.8594730969268912,B,1032,Incorrect
2,new_learn,80,757,A,44.25849121363166,74.24405167552322,2.212924560681583,1.1662228365828236,B,592,Incorrect
2,new_learn,80,758,A,78.6087177949749,41.29645039580934,3.9304358897487446,0.6486831259140496,B,370,Incorrect
2,new_learn,80,759,A,85.25269865898659,35.0190988762768,4.262634932949329,0.5500787188252289,B,472,Incorrect
2,new_learn,80,760,B,26.499959556399467,57.36207465670621,1.3249979778199732,0.9010413616808876,B,430,Correct
2,new_learn,80,761,B,43.1535055112779,38.406757513037014,2.157675275563895,0.6032919362558085,B,772,Correct
2,new_learn,80,762,A,77.32955553790917,37.856663081916864,3.866477776895459,0.5946510731378698,A,636,Correct
2,new_learn,80,763,A,65.19148799279834,54.323551958690935,3.259574399639917,0.8533123587516341,B,735,Incorrect
2,new_learn,80,764,A,51.53993249335866,59.61184126140589,2.5769966246679332,0.9363806128689682,B,721,Incorrect
2,new_learn,80,765,B,54.60763966492203,32.73526465810852,2.730381983246102,0.5142043348161566,B,619,Correct
2,new_learn,80,766,A,81.22124798375188,41.88971716050563,4.061062399187594,0.6580021384619938,A,879,Correct
2,new_learn,80,767,A,85.06813859025924,34.82921980797151,4.253406929512962,0.547096105394937,A,538,Correct
2,new_learn,80,768,B,54.85464040755944,28.439122104146392,2.742732020377972,0.446720685384647,B,569,Correct
2,new_learn,80,769,B,27.807868717814028,54.12398498169028,1.3903934358907015,0.8501775680074124,B,560,Correct
2,new_learn,80,770,A,82.69358465179513,44.61282090191146,4.1346792325897574,0.7007765520068111,A,844,Correct
2,new_learn,80,771,A,76.27638256833917,46.73819005642462,3.8138191284169585,0.7341617726167355,A,438,Correct
2,new_learn,80,772,A,56.132786022062305,67.47803415726153,2.8066393011031154,1.0599424819356698,B,739,Incorrect
2,new_learn,80,773,B,42.476274497370234,30.972528873726247,2.1238137248685116,0.4865153458639806,B,574,Correct
2,new_learn,80,774,A,48.162425120939076,60.05889817610696,2.408121256046954,0.9434029664637753,A,636,Correct
2,new_learn,80,775,B,46.22598383897288,31.498062666226232,2.3112991919486436,0.4947704113726363,A,572,Incorrect
2,new_learn,80,776,B,30.822443305615455,40.25099975018938,1.5411221652807727,0.6322612255741977,A,612,Incorrect
2,new_learn,80,777,A,70.63071829052029,46.05311802933442,3.531535914526015,0.7234006863793033,A,785,Correct
2,new_learn,80,778,A,56.88575980488146,56.217629388086465,2.844287990244073,0.8830644574392305,B,1119,Incorrect
2,new_learn,80,779,A,82.41031504480843,35.12424678818169,4.120515752240421,0.5517303783631325,A,1224,Correct
2,new_learn,80,780,A,46.65451187476312,77.64344314278986,2.3327255937381555,1.2196203528840273,A,969,Correct
2,new_learn,80,781,B,41.0311944308623,48.658439830586815,2.0515597215431147,0.7643249855345625,A,883,Incorrect
2,new_learn,80,782,B,59.318696035692014,26.79761557687567,2.965934801784601,0.42093596115018,B,797,Correct
2,new_learn,80,783,B,34.207081993010725,53.99859840945342,1.7103540996505362,0.8482080003364219,A,662,Incorrect
2,new_learn,80,784,B,38.296901853606265,43.932248796220264,1.9148450926803133,0.6900861503694231,B,440,Correct
2,new_learn,80,785,B,27.769920008744887,62.8355414054849,1.3884960004372442,0.9870183763190432,B,1200,Correct
2,new_learn,80,786,B,44.76665468006217,30.47616691019084,2.2383327340031083,0.4787185103731595,B,1334,Correct
2,new_learn,80,787,A,52.14106326178518,63.07372072530682,2.607053163089259,0.990759688325991,A,800,Correct
2,new_learn,80,788,A,52.326594902586926,76.25788538973256,2.6163297451293466,1.1978560625933812,A,840,Correct
2,new_learn,80,789,A,67.49486730780043,46.22756142879689,3.3747433653900214,0.7261408368903959,A,1310,Correct
2,new_learn,80,790,B,37.39972947584979,43.876821229238516,1.8699864737924896,0.6892154961832421,B,785,Correct
2,new_learn,80,791,B,64.55692568647005,11.230857703839746,3.2278462843235025,0.17641390027947643,B,909,Correct
2,new_learn,80,792,B,18.095940752280864,57.09305136199211,0.9047970376140433,0.8968155536492958,B,955,Correct
2,new_learn,80,793,A,37.91932559878133,72.55836884578044,1.8959662799390662,1.1397441926118117,A,1117,Correct
2,new_learn,80,794,A,72.27725837360245,51.496576680821704,3.6138629186801223,0.8089063349274646,A,1076,Correct
2,new_learn,80,795,A,66.48577932301443,64.77875008859459,3.3242889661507213,1.0175422269352896,A,477,Correct
2,new_learn,80,796,A,69.83178713311533,51.3136709349463,3.491589356655766,0.806033258189757,A,470,Correct
2,new_learn,80,797,A,45.95348516194563,82.13635532144795,2.2976742580972815,1.2901948523525089,A,909,Correct
2,new_learn,80,798,A,57.05613321075668,75.44319991488689,2.8528066605378335,1.1850590130795737,A,462,Correct
2,new_learn,80,799,A,58.64645446983021,73.2432272229265,2.932322723491511,1.1505019228437694,A,443,Correct
2,new_learn,80,800,B,16.231257540474303,56.871313930227515,0.8115628770237151,0.8933325102160081,B,690,Correct
2,new_learn,80,801,A,38.577640418024814,76.24324815675143,1.9288820209012407,1.197626141475369,A,710,Correct
2,new_learn,80,802,A,59.018541195189655,66.38567445806179,2.9509270597594828,1.0427837359052523,A,603,Correct
2,new_learn,80,803,A,54.20364760898628,68.72138268316843,2.7101823804493144,1.0794729549098738,A,451,Correct
2,new_learn,80,804,B,25.718458031235244,56.519044704512524,1.2859229015617621,0.8877990781580483,B,597,Correct
2,new_learn,80,805,A,89.44470590715008,34.55174026577265,4.472235295357504,0.54273746693847,A,1545,Correct
2,new_learn,80,806,A,32.19344980277805,84.74669666230686,1.6096724901389023,1.3311979982515294,B,673,Incorrect
2,new_learn,80,807,A,47.12260649049993,80.03447102433475,2.356130324524997,1.2571785310199763,A,450,Correct
2,new_learn,80,808,B,40.09610494037068,40.79202754344163,2.004805247018534,0.6407596702775435,B,880,Correct
2,new_learn,80,809,B,23.460265283985905,46.71483357831291,1.1730132641992952,0.7337948899164882,B,661,Correct
2,new_learn,80,810,A,74.87278354102392,41.22074677572717,3.743639177051196,0.647493976230548,A,750,Correct
2,new_learn,80,811,B,39.23693197497925,30.134299466327704,1.9618465987489626,0.4733484691224497,B,1874,Correct
2,new_learn,80,812,B,22.391208168244894,65.62989704438114,1.1195604084122448,1.0309120120524113,B,610,Correct
2,new_learn,80,813,B,49.63166591832467,42.52250943281952,2.4815832959162334,0.6679420162317424,B,837,Correct
2,new_learn,80,814,A,50.160544318799346,74.86987245681934,2.508027215939967,1.176053206427742,A,641,Correct
2,new_learn,80,815,A,45.04903725548006,66.04164683594442,2.252451862774003,1.037379762653873,A,407,Correct
2,new_learn,80,816,B,22.94626353168139,62.70302488256655,1.1473131765840694,0.9849368116446453,B,697,Correct
2,new_learn,80,817,B,25.354585404235554,53.300313754535395,1.2677292702117777,0.837239370626397,B,445,Correct
2,new_learn,80,818,B,52.5663677991577,18.09412635140086,2.6283183899578852,0.28422187209343214,B,662,Correct
2,new_learn,80,819,B,19.751663449303663,66.90686451118836,0.9875831724651831,1.050970570115385,A,686,Incorrect
2,new_learn,80,820,A,39.4254326883727,81.9802711017131,1.971271634418635,1.2877430871622075,A,906,Correct
2,new_learn,80,821,B,20.265653591844167,53.28239049847811,1.0132826795922083,0.8369578327786071,B,439,Correct
2,new_learn,80,822,B,40.99264937725521,50.1025026064372,2.0496324688627605,0.7870082705742327,B,660,Correct
2,new_learn,80,823,A,56.10174350354713,61.78369512809761,2.8050871751773565,0.9704960136303146,B,1421,Incorrect
2,new_learn,80,824,B,45.9780310917057,39.08409164599662,2.298901554585285,0.613931475936466,B,684,Correct
2,new_learn,80,825,A,49.899510618414865,60.86592921869955,2.494975530920743,0.9560797804369143,A,1039,Correct
2,new_learn,80,826,B,47.76270466783307,33.730183848740836,2.3881352333916537,0.5298324889171865,B,601,Correct
2,new_learn,80,827,A,47.461634613044666,73.6387525557152,2.3730817306522334,1.1567148202427575,A,554,Correct
2,new_learn,80,828,A,83.2454104002822,40.648051281649416,4.1622705200141095,0.6384980964458549,A,818,Correct
2,new_learn,80,829,A,75.50983676510477,34.84765800275876,3.7754918382552383,0.5473857318813824,A,474,Correct
2,new_learn,80,830,A,44.57494044012165,81.09721467197191,2.2287470220060825,1.2738720692003067,A,951,Correct
2,new_learn,80,831,B,38.61559627761819,49.61827009358717,1.9307798138809094,0.779401964049238,B,696,Correct
2,new_learn,80,832,A,53.30292009275152,71.8006716891964,2.6651460046375757,1.1278423135079605,A,845,Correct
2,new_learn,80,833,A,73.19270546128136,46.264481909665264,3.6596352730640684,0.7267207824477113,A,1503,Correct
2,new_learn,80,834,A,61.34629096301903,61.250296040509134,3.067314548150952,0.9621174003553176,A,462,Correct
2,new_learn,80,835,B,39.38584930302185,49.21975484642075,1.9692924651510924,0.7731421011850301,B,2011,Correct
2,new_learn,80,836,B,13.042567023627115,64.22527272941089,0.6521283511813557,1.0088482249075905,B,605,Correct
2,new_learn,80,837,B,23.48476413376129,63.67009763754708,1.1742382066880643,1.0001275549573136,B,424,Correct
2,new_learn,80,838,A,47.55545946534321,81.31123046640963,2.3777729732671604,1.2772338214380952,A,919,Correct
2,new_learn,80,839,B,69.33179838782897,11.748177939298202,3.4665899193914482,0.18453994753582453,B,681,Correct
2,new_learn,80,840,A,75.1339209758488,42.49014216772266,3.75669604879244,0.667433592420517,A,1733,Correct
2,new_learn,80,841,B,49.194137837585274,28.984709327740873,2.459706891879264,0.4552907494523314,B,1133,Correct
2,new_learn,80,842,B,56.534320124330534,23.86752249918763,2.8267160062165266,0.3749101667141848,B,457,Correct
2,new_learn,80,843,A,39.81972456356139,87.48226902167721,1.9909862281780693,1.3741682683893353,A,654,Correct
2,new_learn,80,844,B,12.629741418961387,68.87320865082782,0.6314870709480693,1.0818578316329883,B,595,Correct
2,new_learn,80,845,A,51.33259821090532,64.09175666586975,2.5666299105452657,1.0067509594858055,B,2081,Incorrect
2,new_learn,80,846,A,49.823272860797566,56.900843394687406,2.4911636430398785,0.8937963579590663,A,592,Correct
2,new_learn,80,847,B,46.40197500409462,27.17991821571755,2.320098750204731,0.4269411569583482,B,529,Correct
2,new_learn,80,848,B,41.40230973001324,50.2650665380368,2.0701154865006623,0.7895618188404927,A,475,Incorrect
2,new_learn,80,849,A,32.87019014845548,83.32764515756499,1.6435095074227741,1.3089075893397164,A,436,Correct
2,new_learn,80,850,A,43.728442039918036,82.91021588894137,2.186422101995902,1.3023506257212096,A,622,Correct
2,new_learn,80,851,A,73.74363091873275,51.38757557852411,3.687181545936637,0.807194149616408,B,1166,Incorrect
2,new_learn,80,852,A,36.974294865745776,83.11210241079216,1.8487147432872888,1.3055218517907359,A,624,Correct
2,new_learn,80,853,B,20.35768442301546,66.17000116013992,1.017884221150773,1.039395947663618,B,791,Correct
2,new_learn,80,854,A,41.89437056332703,80.42097626297836,2.0947185281663514,1.2632497411114598,A,1798,Correct
2,new_learn,80,855,B,51.80799840966296,21.23800127487293,2.590399920483148,0.33360574391035724,B,683,Correct
2,new_learn,80,856,B,14.74264631333837,66.75879524202811,0.7371323156669185,1.0486447034743036,B,527,Correct
2,new_learn,80,857,B,38.54812900035091,33.60511346443505,1.9274064500175456,0.5278678879146029,B,861,Correct
2,new_learn,80,858,A,46.49960465757311,72.01870469313911,2.3249802328786555,1.131267167925093,A,609,Correct
2,new_learn,80,859,A,72.04452587246939,59.24355878034137,3.60222629362347,0.9305956451841777,A,720,Correct
2,new_learn,80,860,A,83.602425394156,35.977225187924574,4.1801212697078,0.5651289317346475,A,481,Correct
2,new_learn,80,861,A,69.22798939080457,52.08602466816376,3.461399469540228,0.818165362261,A,559,Correct
2,new_learn,80,862,B,37.99509430387987,53.6491278887687,1.8997547151939933,0.8427185302342752,B,1571,Correct
2,new_learn,80,863,A,49.47813395232316,72.33765606576611,2.473906697616158,1.1362772443705798,A,717,Correct
2,new_learn,80,864,B,41.76080595184567,26.630018367480346,2.0880402975922836,0.4183033503411876,B,700,Correct
2,new_learn,80,865,A,40.90707139546274,77.12015708173033,2.0453535697731366,1.2114005946582742,A,586,Correct
2,new_learn,80,866,A,59.34209870748054,69.78321048571821,2.9671049353740266,1.0961521070292128,A,887,Correct
2,new_learn,80,867,A,83.64703414590618,34.98280938035603,4.182351707295308,0.5495086847562931,A,437,Correct
2,new_learn,80,868,A,88.05255992778727,30.41782388020465,4.402627996389364,0.4778020602011956,A,417,Correct
2,new_learn,80,869,A,61.03912899265364,71.8592283521484,3.051956449632682,1.128762119418704,A,925,Correct
2,new_learn,80,870,A,66.10940415693396,52.808465647738444,3.305470207846698,0.8295134386314202,B,1244,Incorrect
2,new_learn,80,871,A,61.35037477894163,62.407767572047014,3.067518738947081,0.980298920656411,A,690,Correct
2,new_learn,80,872,B,29.72680907277141,41.61408271366106,1.4863404536385705,0.653672482695578,B,562,Correct
2,new_learn,80,873,B,33.122538670872295,51.70190968353188,1.6561269335436148,0.8121316981917338,B,883,Correct
2,new_learn,80,874,A,59.93151936202928,63.76654980720067,2.996575968101464,1.0016426220953465,A,925,Correct
2,new_learn,80,875,B,29.400957178680805,45.45097994787332,1.4700478589340404,0.7139423235134792,B,1056,Correct
2,new_learn,80,876,A,42.46777350393212,75.72257588095268,2.123388675196606,1.1894474404924829,A,1030,Correct
2,new_learn,80,877,A,40.15085250418515,85.84694083089357,2.0075426252092576,1.3484805932374648,A,485,Correct
2,new_learn,80,878,B,59.12776287594447,28.831893340970026,2.9563881437972235,0.4528903215453795,B,572,Correct
2,new_learn,80,879,B,52.53495904664115,32.62893374937997,2.626747952332057,0.5125340928076009,B,517,Correct
2,new_learn,80,880,B,40.03436341485198,32.280975094243246,2.001718170742599,0.5070683710339483,B,390,Correct
2,new_learn,80,881,B,56.44843034025465,18.557597808796345,2.8224215170127325,0.2915020647219432,B,432,Correct
2,new_learn,80,882,B,16.533324621927576,59.30696839802971,0.8266662310963788,0.9315916811296607,B,646,Correct
2,new_learn,80,883,A,52.315857547520444,66.44190304215753,2.615792877376022,1.0436669724388372,A,851,Correct
2,new_learn,80,884,B,39.024304581747856,36.80375390530744,1.9512152290873928,0.5781120144672026,B,1093,Correct
2,new_learn,80,885,A,47.186282975741705,76.78448816744725,2.3593141487870852,1.2061279196825232,A,553,Correct
2,new_learn,80,886,B,13.1817296343729,65.83547723552081,0.659086481718645,1.034141258143451,B,602,Correct
2,new_learn,80,887,B,15.149827023674646,68.01777387101292,0.7574913511837323,1.06842069353353,B,410,Correct
2,new_learn,80,888,B,30.27829694103919,45.35839069171094,1.5139148470519594,0.7124879348786738,B,567,Correct
2,new_learn,80,889,B,42.10285805599947,48.46440132875266,2.1051429027999733,0.7612770358751836,B,839,Correct
2,new_learn,80,890,A,45.94598857187388,79.54150906533542,2.2972994285936945,1.2494351026755184,A,451,Correct
2,new_learn,80,891,A,53.80093852178017,54.508135756954616,2.6900469260890083,0.8562117942746187,B,763,Incorrect
2,new_learn,80,892,A,59.867457504285476,58.07560771765438,2.9933728752142734,0.9122495127927284,A,447,Correct
2,new_learn,80,893,A,71.71943394366862,46.5569272857025,3.585971697183431,0.7313145036723857,A,563,Correct
2,new_learn,80,894,B,51.957927212288205,20.66509790345515,2.59789636061441,0.32460659879604264,B,797,Correct
2,new_learn,80,895,A,69.50179654368739,57.71199485773995,3.47508982718437,0.9065378953454388,A,937,Correct
2,new_learn,80,896,B,31.650521420620606,52.81456277773576,1.5825260710310303,0.829609212125458,B,635,Correct
2,new_learn,80,897,A,42.741521022532574,80.52675416490877,2.1370760511266287,1.264911296509543,A,537,Correct
2,new_learn,80,898,B,23.027944854351286,45.76288954729744,1.1513972427175643,0.7188417880441538,B,686,Correct
