experiment,condition,subject,trial,cat,x,y,xt,yt,resp,rt,fb
2,new_learn,68,0,B,83.16635343906206,64.3067408841833,4.158317671953103,1.0101279236902632,B,1896,Correct
2,new_learn,68,1,A,47.49644052261445,59.33313908678674,2.3748220261307225,0.9320027693473532,B,1632,Incorrect
2,new_learn,68,2,B,84.7869367400427,66.51433836497768,4.239346837002135,1.0448047838289978,B,1155,Correct
2,new_learn,68,3,B,50.295600012498966,21.785634071789936,2.514780000624948,0.34220793976865377,A,873,Incorrect
2,new_learn,68,4,B,78.34632863250381,60.349780224259625,3.9173164316251903,0.9479721309914632,A,4123,Incorrect
2,new_learn,68,5,A,26.19972447329649,46.7885074127522,1.3099862236648248,0.7349521558016695,A,3825,Correct
2,new_learn,68,6,B,36.28299568749098,20.592911490764298,1.814149784374549,0.3234726972770498,B,1786,Correct
2,new_learn,68,7,B,34.50450391954217,10.939163639160341,1.7252251959771083,0.1718319806260136,B,1009,Correct
2,new_learn,68,8,B,77.78752746913561,58.715677178678874,3.8893763734567806,0.9223037003754371,A,1011,Incorrect
2,new_learn,68,9,B,85.38532712570418,62.48603553172629,4.269266356285209,0.9815283508921104,B,1161,Correct
2,new_learn,68,10,B,44.33415702632662,15.531730496284617,2.216707851316331,0.2439718521233215,A,1047,Incorrect
2,new_learn,68,11,A,48.30756678553121,74.33151605535868,2.41537833927656,1.167596723848533,A,1140,Correct
2,new_learn,68,12,B,69.57015162584808,47.136795830652886,3.4785075812924044,0.7404230574767053,B,1389,Correct
2,new_learn,68,13,B,60.80566614556067,51.47050938645609,3.0402833072780333,0.8084968708250746,B,929,Correct
2,new_learn,68,14,B,49.27910994178387,36.21651793286106,2.4639554970891937,0.5688877333823965,B,679,Correct
2,new_learn,68,15,A,51.71276520574709,69.43738744122248,2.585638260287354,1.0907199313490634,A,812,Correct
2,new_learn,68,16,B,32.30032393811271,16.99342181894194,1.6150161969056356,0.2669320457287025,B,774,Correct
2,new_learn,68,17,B,68.59840520389189,52.84092278474181,3.4299202601945944,0.8300232741472517,A,1170,Incorrect
2,new_learn,68,18,B,64.27447641928191,38.726906015340454,3.2137238209640953,0.6083208171702796,A,2469,Incorrect
2,new_learn,68,19,B,40.889792650454545,13.171899556988755,2.0444896325227275,0.20690371441029262,B,1467,Correct
2,new_learn,68,20,B,76.79155790813786,48.38077260991521,3.839577895406893,0.7599633990315395,B,1101,Correct
2,new_learn,68,21,A,38.22580406717476,51.509173193738775,1.9112902033587378,0.80910420048967,B,1734,Incorrect
2,new_learn,68,22,A,30.190255554152174,48.82384935390402,1.5095127777076087,0.7669232322509982,A,1033,Correct
2,new_learn,68,23,A,40.59164676607944,66.25140497714936,2.029582338303972,1.0406746358310737,A,750,Correct
2,new_learn,68,24,B,48.18373279142885,36.47885946328189,2.4091866395714425,0.5730085845059045,A,678,Incorrect
2,new_learn,68,25,B,63.09209811165369,51.57186604651713,3.154604905582685,0.8100889775182755,B,986,Correct
2,new_learn,68,26,B,86.9686596248731,60.831617962271324,4.348432981243655,0.9555408204812623,B,1289,Correct
2,new_learn,68,27,A,33.84750608177432,51.964191467757665,1.6923753040887162,0.8162516108242043,B,2006,Incorrect
2,new_learn,68,28,B,77.99222840991196,66.57155171728492,3.8996114204955976,1.0457034890654764,A,1305,Incorrect
2,new_learn,68,29,A,21.379529794103224,48.290891797213604,1.0689764897051612,0.7585515545271292,A,1264,Correct
2,new_learn,68,30,B,64.6092966386467,41.40178360700655,3.230464831932335,0.6503376961264304,B,1342,Correct
2,new_learn,68,31,A,29.851359656654687,42.62644844205677,1.4925679828327345,0.6695746863709482,A,998,Correct
2,new_learn,68,32,A,22.907838257344736,50.78905776905246,1.1453919128672367,0.7977926538500141,A,725,Correct
2,new_learn,68,33,A,54.70266762901994,78.17229891945699,2.7351333814509973,1.227927599997957,B,826,Incorrect
2,new_learn,68,34,A,31.07696226291423,48.85005907091215,1.5538481131457116,0.7673349335230253,B,1064,Incorrect
2,new_learn,68,35,B,32.28074821631942,11.456818163244826,1.6140374108159707,0.17996327887582025,B,2319,Correct
2,new_learn,68,36,B,57.5313658463506,33.086468751119185,2.8765682923175304,0.5197210358087214,B,1075,Correct
2,new_learn,68,37,B,64.85591630463276,37.406541053417136,3.2427958152316374,0.5875805728481015,B,883,Correct
2,new_learn,68,38,A,31.80932932538572,64.71066028465283,1.5904664662692858,1.0164726747960506,B,1157,Incorrect
2,new_learn,68,39,B,64.13137365834487,39.49129700822909,3.206568682917243,0.6203278428089254,B,928,Correct
2,new_learn,68,40,A,19.006582110380666,50.14287397438208,0.9503291055190333,0.787642422538988,A,1217,Correct
2,new_learn,68,41,B,81.40969903959807,57.61401080264663,4.070484951979903,0.9049987654071883,B,1503,Correct
2,new_learn,68,42,A,49.73660159998338,70.85296751716669,2.486830079999169,1.1129558111848357,A,1762,Correct
2,new_learn,68,43,B,54.08573590869607,36.18137958018927,2.7042867954348035,0.5683357814293318,B,967,Correct
2,new_learn,68,44,A,49.16098283094813,71.75960653773004,2.458049141547406,1.127197263617134,A,652,Correct
2,new_learn,68,45,B,54.456979854565674,28.039919288791296,2.722848992728284,0.44045002222458735,B,867,Correct
2,new_learn,68,46,B,70.08416351177041,53.082796869401115,3.5042081755885204,0.833822623384549,B,1587,Correct
2,new_learn,68,47,B,82.78144782999533,54.37047877252512,4.1390723914997665,0.8540494834196235,B,804,Correct
2,new_learn,68,48,A,44.64192558532148,57.93334906882721,2.232096279266074,0.9100149191624033,B,649,Incorrect
2,new_learn,68,49,B,40.940191446735895,19.647979276556256,2.047009572336795,0.3086297367655681,A,945,Incorrect
2,new_learn,68,50,B,71.0577363438234,46.08145645284655,3.55288681719117,0.7238458252949035,B,702,Correct
2,new_learn,68,51,A,12.306217187722396,34.91198664225459,0.6153108593861198,0.54839620378766,A,2023,Correct
2,new_learn,68,52,A,46.16561914294344,71.15088153319395,2.308280957147172,1.1176354336055991,B,1393,Incorrect
2,new_learn,68,53,B,51.60735195104422,36.47679439120953,2.580367597552211,0.5729761464296461,B,886,Correct
2,new_learn,68,54,B,47.69593465659282,35.039023884398574,2.3847967328296407,0.5503917001209193,B,1603,Correct
2,new_learn,68,55,B,62.37500780847339,44.47451797458313,3.1187503904236693,0.6986040947044878,B,1042,Correct
2,new_learn,68,56,A,47.30179800986433,55.83921584906196,2.3650899004932167,0.877120351468139,B,739,Incorrect
2,new_learn,68,57,A,39.72584114293851,54.96137454486282,1.9862920571469258,0.8633312525066905,A,923,Correct
2,new_learn,68,58,A,50.58491198081104,59.876399492914054,2.5292455990405522,0.9405362838517319,A,1778,Correct
2,new_learn,68,59,A,28.945474291635595,37.98339709428457,1.4472737145817798,0.5966418063489415,B,1571,Incorrect
2,new_learn,68,60,A,26.803979176192975,46.0436195270907,1.3401989588096486,0.7232514842549584,A,810,Correct
2,new_learn,68,61,B,39.48946365192005,22.02635151020338,1.9744731825960025,0.3459891204492069,A,1363,Incorrect
2,new_learn,68,62,A,59.689825300377265,69.75104176567523,2.984491265018863,1.0956468019564005,B,505,Incorrect
2,new_learn,68,63,B,51.41761240035116,21.56710085718297,2.570880620017558,0.33877522806078075,B,667,Correct
2,new_learn,68,64,B,51.03953415501437,33.87697992706589,2.5519767077507187,0.5321383563233955,B,778,Correct
2,new_learn,68,65,A,46.86962311682761,68.91652593464414,2.3434811558413804,1.0825382579360423,A,1950,Correct
2,new_learn,68,66,B,64.07447211029219,55.04680494056411,3.203723605514609,0.8646731900243327,B,1069,Correct
2,new_learn,68,67,A,20.219250996522813,46.80506669824426,1.0109625498261408,0.7352122684499223,A,1558,Correct
2,new_learn,68,68,A,56.42402064976895,64.60671077938328,2.821201032488448,1.0148398397855551,B,1344,Incorrect
2,new_learn,68,69,B,40.86612112406532,16.942592057001953,2.0433060562032663,0.2661336136952306,B,889,Correct
2,new_learn,68,70,B,46.072436367330255,18.601787235564615,2.303621818366513,0.2921961906144509,A,2862,Incorrect
2,new_learn,68,71,B,80.56263106373271,54.98216701127556,4.028131553186636,0.8636578598053518,B,1844,Correct
2,new_learn,68,72,B,58.95632274850189,46.39282130343946,2.9478161374250944,0.7287367329309472,B,830,Correct
2,new_learn,68,73,A,21.249880121801603,44.68917198583973,1.06249400609008,0.7019758720286244,A,1607,Correct
2,new_learn,68,74,A,39.99068630733841,68.21964794047044,1.9995343153669205,1.07159172400132,A,4423,Correct
2,new_learn,68,75,A,61.28043169928293,82.57838602534333,3.0640215849641463,1.2971382544126033,B,3531,Incorrect
2,new_learn,68,76,A,32.8072248758481,57.830455553274234,1.640361243792405,0.9083986715995869,B,3988,Incorrect
2,new_learn,68,77,A,34.60665307352371,43.5151072366755,1.7303326536761856,0.6835337060745589,B,4580,Incorrect
2,new_learn,68,78,B,45.94322958572508,21.52666781728504,2.297161479286254,0.3381401073552525,B,1259,Correct
2,new_learn,68,79,A,17.917431507932445,42.948537190093745,0.8958715753966223,0.6746340445941326,B,1345,Incorrect
2,new_learn,68,80,B,62.9412326578803,36.08476934931472,3.147061632894015,0.5668182314714463,B,815,Correct
2,new_learn,68,81,B,45.07737119902083,25.542351462659237,2.2538685599510417,0.4012183185524938,B,950,Correct
2,new_learn,68,82,B,66.35641149152696,37.36205901430119,3.3178205745763476,0.5868818506115846,B,1681,Correct
2,new_learn,68,83,A,55.79548890315904,68.78923319598852,2.789774445157952,1.0805387482729634,A,2328,Correct
2,new_learn,68,84,A,65.56271320541602,87.20539472752479,3.2781356602708005,1.36981913714695,A,1407,Correct
2,new_learn,68,85,A,51.35950660530936,74.47909819489055,2.5679753302654684,1.169914938675305,B,1242,Incorrect
2,new_learn,68,86,B,77.989824957439,65.59575439306585,3.89949124787195,1.0303757005396803,B,798,Correct
2,new_learn,68,87,A,40.30545546234891,52.158632667679754,2.0152727731174456,0.8193058860503565,B,1700,Incorrect
2,new_learn,68,88,B,56.10489405250587,41.82809213248274,2.8052447026252936,0.6570341347854238,A,2412,Incorrect
2,new_learn,68,89,A,46.76769869696088,77.50622202148853,2.338384934848044,1.217464888551039,B,2636,Incorrect
2,new_learn,68,90,B,47.08123318464721,39.92548316915352,2.3540616592323604,0.6271480230761781,B,1029,Correct
2,new_learn,68,91,B,69.22779916896653,46.37155709237095,3.461389958448326,0.7284027154845613,B,1394,Correct
2,new_learn,68,92,A,43.667000969349026,63.88643625570684,2.1833500484674513,1.0035257940248061,B,728,Incorrect
2,new_learn,68,93,A,56.733878573220125,77.52941097106013,2.8366939286610062,1.2178291397191319,B,779,Incorrect
2,new_learn,68,94,A,63.1453122440175,86.27066897052723,3.157265612200875,1.3551364992904262,B,793,Incorrect
2,new_learn,68,95,B,64.26003460084932,41.00430900470514,3.2130017300424663,0.6440941796735374,B,1294,Correct
2,new_learn,68,96,B,68.7614030696585,38.911713823489535,3.438070153482925,0.6112237714323157,A,1003,Incorrect
2,new_learn,68,97,B,51.47639228499394,38.21049219619019,2.5738196142496967,0.6002090078680061,B,683,Correct
2,new_learn,68,98,B,47.84974850342336,34.78192483576039,2.392487425171168,0.5463531977086861,A,685,Incorrect
2,new_learn,68,99,A,45.02345832368936,67.93274916730468,2.2511729161844682,1.0670851286108125,B,894,Incorrect
2,new_learn,68,100,B,45.23447147061296,26.615851575554665,2.261723573530648,0.41808081889399423,B,1310,Correct
2,new_learn,68,101,B,64.82072560073846,49.1916103157088,3.241036280036923,0.7727000079304132,B,807,Correct
2,new_learn,68,102,B,69.314065763066,54.43407842540819,3.4657032881532994,0.855048504430965,B,1125,Correct
2,new_learn,68,103,A,44.01301847960907,76.35967915557204,2.2006509239804535,1.199455035328094,A,2137,Correct
2,new_learn,68,104,A,14.105994681723722,39.69638516077821,0.7052997340861862,0.6235493599758586,A,948,Correct
2,new_learn,68,105,A,32.34517739502054,54.77779839564382,1.617258869751027,0.8604476450978868,A,1921,Correct
2,new_learn,68,106,A,22.834373013510273,47.12499853211286,1.1417186506755137,0.7402377459445778,A,1023,Correct
2,new_learn,68,107,A,48.67047315548806,70.61292957173634,2.433523657774403,1.1091853039551018,B,1400,Incorrect
2,new_learn,68,108,A,19.54386248856097,46.99495685003155,0.9771931244280484,0.7381950559791421,A,853,Correct
2,new_learn,68,109,A,31.794872922173163,45.37751196607337,1.5897436461086583,0.7127882911539951,A,1115,Correct
2,new_learn,68,110,B,55.167032409329124,37.665630912909215,2.758351620466456,0.5916503468441009,A,4003,Incorrect
2,new_learn,68,111,A,34.21571826217469,60.74026235497619,1.7107859131087344,0.9541058099575492,B,1000,Incorrect
2,new_learn,68,112,B,78.71634605545366,62.19731015842898,3.9358173027726826,0.9769930633338314,B,1094,Correct
2,new_learn,68,113,A,53.3309481677195,77.62747420641617,2.666547408385975,1.219369513418041,B,2617,Incorrect
2,new_learn,68,114,A,57.12243294715076,76.63520323433929,2.856121647357538,1.2037829574368053,B,992,Incorrect
2,new_learn,68,115,A,23.612368689688434,51.10522690457584,1.1806184344844217,0.8027590270172745,A,789,Correct
2,new_learn,68,116,A,29.51941187213673,42.809429407664666,1.4759705936068366,0.6724489446574509,B,1471,Incorrect
2,new_learn,68,117,A,49.77096438901658,57.3748033738589,2.488548219450829,0.9012413039023701,B,615,Incorrect
2,new_learn,68,118,A,42.43951132839933,54.960013502000756,2.1219755664199664,0.8633098732954071,B,3377,Incorrect
2,new_learn,68,119,B,81.54822634946797,63.81796754469878,4.077411317473398,1.0024502900272876,B,512,Correct
2,new_learn,68,120,A,19.419405319964,36.67815115323557,0.9709702659982,0.5761390510513044,A,901,Correct
2,new_learn,68,121,B,63.26394487462468,32.26056232805048,3.163197243731234,0.5067477280523951,B,2018,Correct
2,new_learn,68,122,B,58.86142594633047,32.09016728010901,2.9430712973165236,0.5040711688982901,B,772,Correct
2,new_learn,68,123,B,59.658551824594085,38.40844759131503,2.9829275912297044,0.6033184839433194,B,773,Correct
2,new_learn,68,124,B,65.29314666214876,41.32427777601461,3.2646573331074378,0.6491202373801572,B,846,Correct
2,new_learn,68,125,B,54.99572315604634,36.862374354789935,2.749786157802317,0.5790328223344243,B,911,Correct
2,new_learn,68,126,B,57.66249310164664,25.680884837072448,2.883124655082332,0.4033943957091616,B,1811,Correct
2,new_learn,68,127,B,54.59435684745445,25.793297911140023,2.729717842372722,0.40516017614745226,B,1200,Correct
2,new_learn,68,128,A,45.36192175548737,64.39874458077415,2.2680960877743686,1.0115731143768278,A,3771,Correct
2,new_learn,68,129,A,50.36049676388169,78.40965403376619,2.5180248381940844,1.2316559654149857,A,717,Correct
2,new_learn,68,130,A,43.308445094243346,67.00222931720852,2.1654222547121673,1.0524685569854049,A,965,Correct
2,new_learn,68,131,B,46.42786496205558,36.50889750519776,2.3213932481027792,0.5734804209649601,B,1025,Correct
2,new_learn,68,132,B,81.33833484284962,52.74658568654992,4.066916742142481,0.8285414304740488,B,1975,Correct
2,new_learn,68,133,A,25.31137976135167,41.74721180623412,1.2655689880675836,0.6557636695916109,A,1883,Correct
2,new_learn,68,134,B,41.039109802388566,31.377331273811002,2.051955490119428,0.4928739670952896,B,961,Correct
2,new_learn,68,135,A,23.67269160324155,48.77979447525002,1.1836345801620773,0.766231219835327,A,1696,Correct
2,new_learn,68,136,B,54.29526611976969,38.042123714147074,2.7147633059884844,0.5975642819365926,B,1262,Correct
2,new_learn,68,137,A,34.1353257407237,67.43951053505995,1.7067662870361853,1.059337354293179,A,1009,Correct
2,new_learn,68,138,A,32.34079627901935,43.004872844169924,1.6170398139509674,0.6755189629790371,A,1652,Correct
2,new_learn,68,139,A,48.327999266686035,62.58430877599436,2.416399963334302,0.9830720234032954,B,2404,Incorrect
2,new_learn,68,140,A,26.591322949830175,58.814033350601235,1.3295661474915088,0.9238486755111696,A,1285,Correct
2,new_learn,68,141,A,42.420820370159376,52.81830939335679,2.121041018507969,0.8296680638260123,A,850,Correct
2,new_learn,68,142,B,72.48456734613683,58.99638177099602,3.6242283673068414,0.9267129978006995,B,1025,Correct
2,new_learn,68,143,A,37.177354740780565,53.53890922666612,1.8588677370390283,0.8409872195385254,B,2004,Incorrect
2,new_learn,68,144,A,52.69988668172228,65.81335667104537,2.634994334086114,1.0337937891292048,A,3443,Correct
2,new_learn,68,145,A,16.413870230619928,38.85329969790513,0.8206935115309963,0.6103062044933064,A,916,Correct
2,new_learn,68,146,A,16.318675700442395,45.04960500662613,0.8159337850221198,0.7076375406796931,A,749,Correct
2,new_learn,68,147,A,54.33935951071373,83.55226890156024,2.7169679755356864,1.312435970859503,A,1383,Correct
2,new_learn,68,148,A,46.78828991553517,71.94818213704109,2.3394144957767584,1.1301594022043433,A,869,Correct
2,new_learn,68,149,A,44.573202464688265,60.04503734853881,2.2286601232344134,0.9431852410934715,A,748,Correct
2,new_learn,68,150,A,57.83780948576481,78.37917690030586,2.8918904742882403,1.2311772317220784,A,1308,Correct
2,new_learn,68,151,A,63.12592997327444,81.41916220433224,3.1562964986637216,1.2789292092128295,A,2917,Correct
2,new_learn,68,152,B,64.69134852338912,45.08175126093852,3.2345674261694564,0.7081424928616341,B,1242,Correct
2,new_learn,68,153,B,53.92999473240833,45.82287833956337,2.6964997366204164,0.7197840897895557,B,652,Correct
2,new_learn,68,154,B,44.60835968820087,17.301525743147565,2.2304179844100434,0.2717717308528354,B,1259,Correct
2,new_learn,68,155,B,71.84452150394668,58.15243865423987,3.592226075197334,0.9134563703224554,B,1253,Correct
2,new_learn,68,156,A,58.47002752666886,76.58193337006651,2.9235013763334425,1.20294619636552,A,857,Correct
2,new_learn,68,157,A,64.80567401673014,83.55036485392458,3.2402837008365064,1.3124060621491815,A,623,Correct
2,new_learn,68,158,A,23.31640991791809,36.25294480189554,1.1658204958959046,0.5694599253031565,A,1184,Correct
2,new_learn,68,159,A,52.175298701390346,67.89860024290593,2.6087649350695177,1.066548718560717,A,1139,Correct
2,new_learn,68,160,A,56.8111216960558,80.4864163084912,2.84055608480279,1.2642776709426284,A,745,Correct
2,new_learn,68,161,A,39.3536269610059,60.85569272050367,1.9676813480502948,0.9559189858992608,A,885,Correct
2,new_learn,68,162,B,37.68680925344829,12.845241558786103,1.8843404626724145,0.20177258257334366,B,706,Correct
2,new_learn,68,163,A,58.48292635426165,82.26069699896681,2.9241463177130824,1.2921480068556501,A,716,Correct
2,new_learn,68,164,B,68.2189240660475,48.78630348469762,3.4109462033023754,0.7663334631166409,B,1285,Correct
2,new_learn,68,165,A,43.114135777519614,70.36428304222792,2.1557067888759804,1.1052795734028806,A,638,Correct
2,new_learn,68,166,A,68.65936212941621,83.52629719398769,3.43296810647081,1.3120280082309475,A,934,Correct
2,new_learn,68,167,B,62.483694660032334,30.38386447336815,3.124184733001617,0.4772686270860064,B,870,Correct
2,new_learn,68,168,A,40.85478285596056,71.86278932730382,2.042739142798028,1.1288180550856433,A,909,Correct
2,new_learn,68,169,B,39.53496044848886,27.803538285043995,1.976748022424443,0.43673695810048385,B,990,Correct
2,new_learn,68,170,B,41.4103939879465,23.2230195577608,2.070519699397325,0.36478633818416706,B,687,Correct
2,new_learn,68,171,A,50.8003646599868,59.9691354291403,2.5400182329993397,0.9419929765315928,A,3232,Correct
2,new_learn,68,172,B,80.2488380000938,55.28634145023726,4.012441900004689,0.8684358207196112,A,2532,Incorrect
2,new_learn,68,173,A,18.59656316553857,34.87332384500689,0.9298281582769284,0.5477888899886569,B,1497,Incorrect
2,new_learn,68,174,B,71.2525646820408,61.803665253716545,3.5626282341020397,0.9708097036299932,B,1755,Correct
2,new_learn,68,175,B,41.86460468633924,20.14469487787128,2.093230234316962,0.31643212718564173,B,1053,Correct
2,new_learn,68,176,A,48.260070598480965,66.32967647867547,2.4130035299240484,1.0419041217019729,A,808,Correct
2,new_learn,68,177,A,18.54549683189726,49.323664968311455,0.927274841594863,0.7747743175628575,A,885,Correct
2,new_learn,68,178,A,19.04471289575535,38.47117860672637,0.9522356447877676,0.604303860429162,A,545,Correct
2,new_learn,68,179,B,81.6720444010771,59.91752314782788,4.083602220053855,0.9411822527125622,A,898,Incorrect
2,new_learn,68,180,B,73.70654539024552,55.2340392866509,3.6853272695122765,0.8676142602551624,B,824,Correct
2,new_learn,68,181,B,53.370762937603416,38.63183264402537,2.668538146880171,0.6068274081459023,B,947,Correct
2,new_learn,68,182,A,45.596741381892336,74.20402166417779,2.279837069094617,1.165594046634994,A,1205,Correct
2,new_learn,68,183,B,30.92436783964954,15.42549083145419,1.546218391982477,0.242303043370566,B,1642,Correct
2,new_learn,68,184,A,46.493445857684144,63.14933050108921,2.324672292884207,0.9919473639066785,B,2277,Incorrect
2,new_learn,68,185,B,42.156194166046525,20.54862992350533,2.107809708302326,0.3227771240450987,B,797,Correct
2,new_learn,68,186,B,46.686587882148956,19.373897928207054,2.334329394107448,0.3043244770132689,B,984,Correct
2,new_learn,68,187,B,44.47818909768532,23.07283470264078,2.223909454884266,0.3624272399965396,B,957,Correct
2,new_learn,68,188,B,60.60610315359578,28.011815505619637,3.030305157679789,0.4400085690308365,B,862,Correct
2,new_learn,68,189,B,84.65717685734874,65.9325211722363,4.232858842867437,1.0356656207367554,A,1557,Incorrect
2,new_learn,68,190,B,48.602275081123175,35.25720179331139,2.430113754056159,0.5538188306999997,B,1608,Correct
2,new_learn,68,191,B,39.13795767182422,26.33342047933288,1.9568978835912108,0.413644401608816,B,683,Correct
2,new_learn,68,192,A,39.503412974448125,68.40272837830362,1.975170648722406,1.0744675447938836,A,3132,Correct
2,new_learn,68,193,A,19.610787631963344,34.83554393893196,0.9805393815981672,0.5471954446117655,A,1081,Correct
2,new_learn,68,194,A,31.274147975456128,48.89066835512192,1.5637073987728065,0.7679728226677298,A,757,Correct
2,new_learn,68,195,B,61.101995427210724,31.852054084590428,3.0550997713605366,0.5003308955694702,B,852,Correct
2,new_learn,68,196,B,53.83632255055899,34.428374638634466,2.6918161275279493,0.540799644198856,B,1511,Correct
2,new_learn,68,197,B,86.26091945511683,62.7875355990557,4.313045972755842,0.9862643028750049,A,2985,Incorrect
2,new_learn,68,198,A,46.42552623977371,56.06309611510048,2.3212763119886857,0.8806370544634906,B,1090,Incorrect
2,new_learn,68,199,B,50.51471038340314,34.25713364749344,2.525735519170157,0.5381097970000456,B,2121,Correct
2,new_learn,68,200,A,49.713834062541,75.75032668352327,2.48569170312705,1.1898833490799177,A,822,Correct
2,new_learn,68,201,B,77.47136179711421,65.22942340094883,3.873568089855711,1.0246213867715948,A,2028,Incorrect
2,new_learn,68,202,A,17.20373912091787,35.26784557931758,0.8601869560458936,0.5539860228996168,A,889,Correct
2,new_learn,68,203,B,51.61119343962697,30.952332784905728,2.5805596719813484,0.4861981064426317,A,646,Incorrect
2,new_learn,68,204,A,50.278653701041115,74.54901614285835,2.513932685052056,1.1710132072337534,A,990,Correct
2,new_learn,68,205,A,68.43348591490837,87.43057684199377,3.4216742957454187,1.3733562895296276,A,1108,Correct
2,new_learn,68,206,A,31.243036439837002,48.025934147036295,1.5621518219918502,0.754389609490582,B,1129,Incorrect
2,new_learn,68,207,B,54.693961324970886,36.938660512493705,2.7346980662485443,0.580231122497488,B,910,Correct
2,new_learn,68,208,B,48.10484259963454,38.38551233880129,2.405242129981727,0.6029582178392925,B,556,Correct
2,new_learn,68,209,A,51.466250217238624,68.68686002812596,2.573312510861931,1.0789306743125546,A,3179,Correct
2,new_learn,68,210,B,53.225731798716,39.21724696332184,2.6612865899358,0.6160230747699426,B,2955,Correct
2,new_learn,68,211,B,85.64333231030092,65.54663032912478,4.282166615515046,1.0296040615477218,B,1528,Correct
2,new_learn,68,212,B,61.22843084451852,33.235346880921725,3.0614215422259257,0.5220596080030606,B,881,Correct
2,new_learn,68,213,B,68.31619790799367,51.679868511525896,3.4158098953996836,0.8117854762714812,B,634,Correct
2,new_learn,68,214,B,51.88636764686856,27.119875698378443,2.5943183823434275,0.4259980113014704,B,581,Correct
2,new_learn,68,215,B,37.540089768755124,27.373342699858622,1.8770044884377564,0.4299794616503582,B,1430,Correct
2,new_learn,68,216,B,66.21732332656799,47.16960902761006,3.3108661663284,0.7409384859692127,B,870,Correct
2,new_learn,68,217,B,72.2069021775797,53.64056354042084,3.6103451088789855,0.8425840017650131,B,561,Correct
2,new_learn,68,218,A,56.2035175369992,79.37775876756255,2.81017587684996,1.2468629190129865,A,1300,Correct
2,new_learn,68,219,B,75.38979433088312,46.851102140496806,3.7694897165441557,0.7359353914858489,B,860,Correct
2,new_learn,68,220,B,50.03572042759944,19.848312853925023,2.501786021379972,0.3117765692402136,B,741,Correct
2,new_learn,68,221,A,51.47334877784798,62.50606750612972,2.573667438892399,0.981843012410224,B,1509,Incorrect
2,new_learn,68,222,B,61.15754611555623,34.06743924009526,3.0578773057778115,0.5351300842164995,B,1047,Correct
2,new_learn,68,223,B,48.978793283444844,20.370584568680652,2.4489396641722423,0.3199803941514837,B,706,Correct
2,new_learn,68,224,A,50.280460272705255,78.56106153153297,2.5140230136352626,1.2340342688283985,A,3966,Correct
2,new_learn,68,225,B,39.975152025333855,24.340930928071348,1.9987576012666926,0.38234644892582764,B,771,Correct
2,new_learn,68,226,A,26.588667886053525,39.955289317983556,1.3294333943026764,0.6276162169671593,B,609,Incorrect
2,new_learn,68,227,B,85.59524114879096,60.14228457428726,4.279762057439548,0.9447127969434379,B,836,Correct
2,new_learn,68,228,A,29.090261373366637,38.80172323408364,1.4545130686683319,0.6094960432941077,A,6308,Correct
2,new_learn,68,229,A,32.92051536650487,65.37420168373731,1.6460257683252437,1.0268955587196333,B,5477,Incorrect
2,new_learn,68,230,B,64.45190811047938,41.17976159973484,3.222595405523969,0.6468501825915303,B,10835,Correct
2,new_learn,68,231,B,39.420322532488484,22.67936794006349,1.9710161266244242,0.3562466785428167,B,1599,Correct
2,new_learn,68,232,A,61.87499613760656,87.29402737006312,3.0937498068803277,1.371211375440283,A,1110,Correct
2,new_learn,68,233,B,66.97694086648607,49.187135002620124,3.348847043324304,0.7726297098768039,B,1928,Correct
2,new_learn,68,234,A,43.443718563176546,53.2829980569136,2.1721859281588274,0.8369673762841947,B,704,Incorrect
2,new_learn,68,235,B,81.4263454413278,60.985842672153865,4.0713172720663895,0.9579633765591076,B,2053,Correct
2,new_learn,68,236,B,46.73303030982841,34.28537382642438,2.33665151549142,0.5385533926933731,B,2005,Correct
2,new_learn,68,237,A,30.999675935880575,48.561296055860566,1.5499837967940289,0.7627990546894527,B,872,Incorrect
2,new_learn,68,238,A,49.042514889248174,66.2208616422182,2.4521257444624087,1.040194862247894,B,879,Incorrect
2,new_learn,68,239,B,35.28803693568632,22.963716258099847,1.7644018467843159,0.3607132114778349,B,851,Correct
2,new_learn,68,240,A,13.816389134256244,32.84250024392978,0.6908194567128122,0.5158887874592538,A,3716,Correct
2,new_learn,68,241,B,54.81048701324201,43.52838496320818,2.7405243506621004,0.6837422721152162,B,1517,Correct
2,new_learn,68,242,B,60.543901648156584,49.14941160955226,3.0271950824078293,0.7720371522041513,B,1251,Correct
2,new_learn,68,243,A,32.6874264982445,53.85865234012852,1.634371324912225,0.8460097326199724,A,3492,Correct
2,new_learn,68,244,A,50.797096737876075,72.88389183398277,2.5398548368938036,1.1448574957533668,A,2522,Correct
2,new_learn,68,245,A,48.1269731739923,61.53436173242249,2.406348658699615,0.966579493809577,B,1364,Incorrect
2,new_learn,68,246,B,58.03248537767403,48.96063958690502,2.9016242688837015,0.7690719282063919,B,1106,Correct
2,new_learn,68,247,A,14.685910116720844,42.195724723715756,0.7342955058360423,0.6628088940246132,A,859,Correct
2,new_learn,68,248,B,49.35575736114065,18.294010962758822,2.4677878680570324,0.2873616522264713,B,768,Correct
2,new_learn,68,249,A,51.78217904420314,75.3575034174989,2.5891089522101574,1.1837128956464116,B,2428,Incorrect
2,new_learn,68,250,A,55.72654459970333,79.133001065282,2.786327229985167,1.243018274016016,B,697,Incorrect
2,new_learn,68,251,B,64.7940992698104,46.39030881915671,3.2397049634905204,0.7286972669201226,B,742,Correct
2,new_learn,68,252,B,41.795176367738435,32.3556677018013,2.0897588183869216,0.5082416397698576,B,495,Correct
2,new_learn,68,253,B,58.90685769191352,48.70833755797152,2.9453428845956764,0.7651087772034757,B,1151,Correct
2,new_learn,68,254,A,40.475507678141064,62.97607547120804,2.0237753839070534,0.9892258802613176,A,2212,Correct
2,new_learn,68,255,B,67.58554333791784,47.108701610611746,3.379277166895892,0.7399817545002575,B,2024,Correct
2,new_learn,68,256,B,47.996111874825786,28.64706751470034,2.399805593741289,0.449987084255367,B,664,Correct
2,new_learn,68,257,A,53.308651817513685,78.37341234965673,2.665432590875684,1.2310866823722257,A,2080,Correct
2,new_learn,68,258,B,53.479098909685426,23.156451393104867,2.673954945484271,0.36374068789893693,B,808,Correct
2,new_learn,68,259,B,77.49846670741495,51.05364101355758,3.874923335370747,0.8019487177360153,A,4346,Incorrect
2,new_learn,68,260,A,24.215131257526195,42.53627349078899,1.2107565628763097,0.6681582215487448,A,1004,Correct
2,new_learn,68,261,A,29.305408275236722,42.761122358445554,1.465270413761836,0.671690139302734,A,403,Correct
2,new_learn,68,262,A,54.14913119320355,73.25341335945174,2.7074565596601774,1.1506619263021498,A,1312,Correct
2,new_learn,68,263,B,58.63445235666838,39.761648360292185,2.9317226178334193,0.6245745119165728,B,1785,Correct
2,new_learn,68,264,B,48.846456169760316,24.450312507631033,2.4423228084880155,0.3840646107597414,B,1007,Correct
2,new_learn,68,265,B,74.47398010744145,61.5077363902242,3.7236990053720724,0.9661612639123297,B,2393,Correct
2,new_learn,68,266,B,40.46548594486945,21.118657695106144,2.0232742972434723,0.33173109934311507,B,1405,Correct
2,new_learn,68,267,A,63.84434128736336,84.21027620553501,3.192217064368168,1.3227719254203807,A,980,Correct
2,new_learn,68,268,A,41.05831524895,66.99938056268863,2.0529157624475003,1.0524238088540467,B,2146,Incorrect
2,new_learn,68,269,B,67.63532630709922,47.34763898860545,3.3817663153549606,0.7437349740571227,B,733,Correct
2,new_learn,68,270,A,11.169149035245205,30.455480576799815,0.5584574517622602,0.4783935702081047,A,979,Correct
2,new_learn,68,271,B,50.84187089519872,26.246472674799655,2.5420935447599358,0.41227862868897924,B,891,Correct
2,new_learn,68,272,A,50.67292917335971,70.89059176352175,2.5336464586679854,1.1135468114645652,B,1214,Incorrect
2,new_learn,68,273,A,26.176566683950526,46.15669864532651,1.3088283341975262,0.7250277268905786,A,1093,Correct
2,new_learn,68,274,A,24.194740717494707,53.0038169591106,1.2097370358747355,0.8325820098547998,A,1397,Correct
2,new_learn,68,275,B,57.47490860703983,50.222276610820245,2.873745430351992,0.7888896762355367,B,742,Correct
2,new_learn,68,276,A,41.852252587772945,68.99105941618244,2.0926126293886473,1.0837090271262784,A,2348,Correct
2,new_learn,68,277,A,54.196698652455666,81.54066377330035,2.7098349326227833,1.280837751395179,A,1375,Correct
2,new_learn,68,278,A,22.27278343279,49.275992864931226,1.1136391716395,0.774025485914055,B,1297,Incorrect
2,new_learn,68,279,A,26.789501478341396,36.757463095566806,1.3394750739170698,0.5773848801281531,A,1038,Correct
2,new_learn,68,280,B,39.269808583789924,16.141031565272566,1.9634904291894963,0.25354273093410623,B,1014,Correct
2,new_learn,68,281,A,37.35337156961399,67.82451373097375,1.8676685784806994,1.065384970352636,A,1125,Correct
2,new_learn,68,282,A,50.343246548821355,68.35730979696754,2.517162327441068,1.073754111386574,B,1607,Incorrect
2,new_learn,68,283,B,43.49724010547055,16.51715097808302,2.1748620052735275,0.25945080085489536,B,734,Correct
2,new_learn,68,284,A,59.97926893303553,83.58539149019607,2.9989634466517767,1.312956259265134,A,1198,Correct
2,new_learn,68,285,A,21.84231945020579,40.17076447028792,1.0921159725102896,0.631000892744712,B,831,Incorrect
2,new_learn,68,286,A,31.175453180240158,45.04740942565615,1.558772659012008,0.7076030525744648,A,1605,Correct
2,new_learn,68,287,B,58.07378655350418,38.52691655776179,2.903689327675209,0.605179390116657,B,780,Correct
2,new_learn,68,288,A,19.215676023612946,42.913650441513624,0.9607838011806473,0.674086044828898,B,635,Incorrect
2,new_learn,68,289,B,87.41597686623521,60.855288423268505,4.370798843311761,0.9559126352131416,B,875,Correct
2,new_learn,68,290,B,54.53384040377672,26.278509459193636,2.726692020188836,0.41278186132146305,B,987,Correct
2,new_learn,68,291,B,39.3187226198736,29.06627512566808,1.9659361309936798,0.4565719820100929,B,719,Correct
2,new_learn,68,292,A,38.7691261350401,63.82972128709019,1.938456306752005,1.002634917381033,B,1029,Incorrect
2,new_learn,68,293,A,13.821940746579322,35.50772799038025,0.6910970373289661,0.5577540870012163,A,951,Correct
2,new_learn,68,294,A,13.354737147937847,40.952806716546576,0.6677368573968923,0.6432851836229273,A,827,Correct
2,new_learn,68,295,A,58.650300669116746,77.97274100244759,2.932515033455837,1.224792951567745,A,2486,Correct
2,new_learn,68,296,A,28.366608292877327,57.20192084268881,1.4183304146438664,0.8985256714530799,A,1105,Correct
2,new_learn,68,297,A,36.36501244124557,56.20769004131538,1.8182506220622785,0.882908330545243,A,2167,Correct
2,new_learn,68,298,A,27.036868540263868,54.30399755290618,1.3518434270131934,0.8530051988638409,A,3463,Correct
2,new_learn,68,299,B,64.83986543328443,39.984147845831835,3.2419932716642217,0.6280695256625672,B,1345,Correct
2,new_learn,68,300,A,35.75498972039152,54.557495237890244,1.787749486019576,0.8569871311880805,A,1567,Incorrect
2,new_learn,68,301,A,47.43570125644191,56.46161752577107,2.3717850628220956,0.8868970141437955,B,894,Incorrect
2,new_learn,68,302,A,62.83830815773487,80.11783283528166,3.141915407886744,1.25848797528428,A,1073,Correct
2,new_learn,68,303,A,39.142867750484974,47.36659109386507,1.9571433875242488,0.744032673030391,A,1727,Incorrect
2,new_learn,68,304,B,79.50253796998193,65.36251217080033,3.9751268984990964,1.0267119402797988,B,9001,Correct
2,new_learn,68,305,B,46.576464448349704,16.25622143729592,2.328823222417485,0.25535212921268885,B,6152,Correct
2,new_learn,68,306,B,69.181694588746,43.543665409794436,3.4590847294372997,0.6839822968089109,B,1422,Correct
2,new_learn,68,307,B,38.742026528354884,28.672947422481393,1.9371013264177441,0.45039360489616964,B,1171,Correct
2,new_learn,68,308,A,34.23369820647146,61.095828144492536,1.7116849103235727,0.9596910243186113,A,2217,Correct
2,new_learn,68,309,B,89.741849185098,65.18368455623707,4.4870924592548995,1.023902922678944,A,5750,Correct
2,new_learn,68,310,A,15.115008938932483,33.04495710603993,0.7557504469466241,0.5190689724126243,A,1558,Incorrect
2,new_learn,68,311,A,44.92218740524023,53.366515421821006,2.2461093702620114,0.8382792639843963,A,1573,Incorrect
2,new_learn,68,312,B,77.91728994353824,58.68018402603553,3.8958644971769116,0.9217461752374518,B,694,Correct
2,new_learn,68,313,B,81.58962530607369,62.321629332439684,4.079481265303684,0.9789458643526934,B,2577,Incorrect
2,new_learn,68,314,A,47.41466390577219,57.05058824573769,2.3707331952886093,0.8961485445789286,B,979,Correct
2,new_learn,68,315,A,51.8274274415854,78.64301765264823,2.59137137207927,1.2353216325684604,A,1214,Correct
2,new_learn,68,316,B,68.21458822563258,48.15292905819358,3.4107294112816295,0.756384440890257,B,1961,Incorrect
2,new_learn,68,317,B,55.644994159375855,45.67023984028914,2.782249707968793,0.7173864498496814,B,1645,Correct
2,new_learn,68,318,B,33.75355374182176,15.579926005288677,1.687677687091088,0.24472890540843736,B,831,Correct
2,new_learn,68,319,B,62.96520291982609,41.644310976851216,3.148260145991305,0.6541473071434228,B,1144,Incorrect
2,new_learn,68,320,A,16.61082721545118,42.8108457759466,0.830541360772559,0.6724711929183974,A,3164,Correct
2,new_learn,68,321,B,56.52681960753365,29.978963678330135,2.8263409803766826,0.470908460270386,A,1575,Incorrect
2,new_learn,68,322,A,50.620479117833405,57.907909897419536,2.5310239558916705,0.9096153215923645,A,1160,Correct
2,new_learn,68,323,A,37.770895468415674,49.399871481711074,1.8885447734207839,0.7759713666761172,B,2274,Incorrect
2,new_learn,68,324,A,61.59038894817237,82.55172924473365,3.0795194474086185,1.2967195306819446,A,1899,Correct
2,new_learn,68,325,A,22.808239664377062,54.90373283751534,1.140411983218853,0.8624258186849746,B,13071,Incorrect
2,new_learn,68,326,B,42.232589114306315,22.10901715291982,2.1116294557153155,0.34728762932851814,B,797,Correct
2,new_learn,68,327,B,81.08014416753122,51.887407827106315,4.054007208376561,0.8150454962172737,A,1560,Incorrect
2,new_learn,68,328,A,65.46079768622022,76.83829850716275,3.2730398843110105,1.2069731705222102,A,943,Incorrect
2,new_learn,68,329,B,51.48993158820478,35.56944626454694,2.5744965794102392,0.5587235553847879,B,692,Incorrect
2,new_learn,68,330,A,36.75727695057806,64.16781663655833,1.8378638475289029,1.0079457067115427,A,1599,Incorrect
2,new_learn,68,331,B,69.14684220069374,47.76148666104795,3.4573421100346873,0.7502356780943759,107,797,Incorrect
2,new_learn,68,332,A,12.933019799411326,40.557061692794214,0.6466509899705664,0.6370688353263516,A,913,Incorrect
2,new_learn,68,333,B,73.06228775001767,62.699106157616,3.653114387500884,0.9848752564570649,B,736,Correct
2,new_learn,68,334,A,37.04226720689423,69.4082538848122,1.8521133603447115,1.090262302515106,A,2130,Incorrect
2,new_learn,68,335,B,67.05705742802363,52.6344581218179,3.3528528714011814,0.8267801348059136,B,1531,Incorrect
2,new_learn,68,336,A,37.93901700929904,54.92696115418874,1.8969508504649522,0.8627906882300564,B,2844,Incorrect
2,new_learn,68,337,A,48.50563531225853,75.11771352938935,2.425281765612927,1.1799462848919609,B,3931,Correct
2,new_learn,68,338,A,34.70878563754021,61.72687896966881,1.7354392818770106,0.9696035475006893,B,1255,Correct
2,new_learn,68,339,B,86.02594467345398,62.998049474198446,4.301297233672699,0.9895710470931408,B,1531,Correct
2,new_learn,68,340,B,39.59536516982788,15.290780083036061,1.979768258491394,0.24018701188261607,B,1535,Incorrect
2,new_learn,68,341,B,68.57074152569508,44.668000207135535,3.4285370762847545,0.7016433065064217,B,3499,Incorrect
2,new_learn,68,342,B,36.65139259313319,22.382970418179944,1.8325696296566594,0.3515908771563589,B,730,Incorrect
2,new_learn,68,343,A,17.34384283596028,36.2423827444289,0.8671921417980141,0.5692940168924365,A,979,Correct
2,new_learn,68,344,B,68.73840335564697,55.58220878143897,3.436920167782348,0.8730832938903137,A,13673,Correct
2,new_learn,68,345,B,44.53939362380765,15.569100052150919,2.2269696811903823,0.24455885173420897,A,1024,Incorrect
2,new_learn,68,346,B,47.26857630121869,21.247588335005172,2.363428815060934,0.3337563370987622,B,11960,Incorrect
2,new_learn,68,347,B,75.12319108167813,44.98626099463994,3.756159554083906,0.7066425352661695,B,1062,Incorrect
2,new_learn,68,348,B,49.810937478761005,36.12028737869069,2.49054687393805,0.567376147372234,B,952,Correct
2,new_learn,68,349,A,30.904559788583157,40.84112443277016,1.5452279894291578,0.6415308824116868,B,953,Correct
2,new_learn,68,350,A,17.026979969291254,42.987039800874044,0.8513489984645628,0.6752388421899898,B,926,Correct
2,new_learn,68,351,B,66.67274407699787,57.03448390875933,3.333637203849894,0.8958955782452179,A,3552,Incorrect
2,new_learn,68,352,A,18.388589132411063,36.640615296821814,0.9194294566205531,0.5755494391975259,B,1124,Correct
2,new_learn,68,353,A,38.55555758714245,61.174607213054244,1.9277778793571227,0.9609284830338619,B,768,Incorrect
2,new_learn,68,354,A,21.010416697505054,40.31652513531522,1.0505208348752526,0.6332904959168727,A,1813,Incorrect
2,new_learn,68,355,A,38.0920066416099,47.82780729677501,1.9046003320804947,0.7512774402042833,B,1989,Correct
2,new_learn,68,356,B,86.23808531836755,57.88382736862827,4.311904265918377,0.9092370341147118,A,1538,Correct
2,new_learn,68,357,B,61.26565282394468,38.16042523783505,3.0632826411972336,0.5994225579252256,B,1571,Correct
2,new_learn,68,358,A,63.58683344994161,75.15193989976976,3.17934167249708,1.1804839114606915,B,1940,Correct
2,new_learn,68,359,A,27.67690236050123,55.06244646213337,1.3838451180250615,0.8649188864705976,A,1739,Incorrect
2,new_learn,68,360,B,77.74970123602819,62.05728939404537,3.887485061801409,0.9747936223101437,B,12144,Incorrect
2,new_learn,68,361,A,56.69364869845759,78.72773070290782,2.834682434922879,1.236652302050254,A,1214,Correct
2,new_learn,68,362,A,22.1852796127422,44.56705645694211,1.1092639806371098,0.7000576857862544,B,839,Incorrect
2,new_learn,68,363,B,63.88223458706516,46.810243247387916,3.194111729353258,0.7352935814937254,B,1713,Incorrect
2,new_learn,68,364,A,17.245089515097693,43.95503325968093,0.8622544757548846,0.6904440478845432,A,2234,Correct
2,new_learn,68,365,B,71.29638695031502,46.210264588056944,3.5648193475157512,0.7258691387514014,B,1410,Correct
2,new_learn,68,366,A,40.55578697791977,63.517455819283995,2.027789348895989,0.9977298628828843,107,875,Incorrect
2,new_learn,68,367,A,14.440092259239279,33.39444076221206,0.7220046129619639,0.5245586488465247,A,2153,Correct
2,new_learn,68,368,A,55.114713123541144,67.58154880508138,2.755735656177057,1.0615684862213188,B,1796,Incorrect
2,new_learn,68,369,A,53.68461129241328,76.28050155674951,2.684230564620664,1.198211316514145,B,950,Incorrect
2,new_learn,68,370,B,83.27981622363967,57.80657634749504,4.163990811181984,0.9080235779123396,B,1431,Incorrect
2,new_learn,68,371,B,35.841812661558464,21.20024082420157,1.7920906330779232,0.33301260413823036,B,7213,Incorrect
2,new_learn,68,372,B,83.77301024457935,62.6649735713862,4.188650512228968,0.9843391030463271,B,589,Incorrect
2,new_learn,68,373,B,76.05088897386376,52.52048291541847,3.8025444486931885,0.8249898164503345,B,940,Incorrect
2,new_learn,68,374,B,47.555735408505534,40.0105143657384,2.377786770425277,0.6284836899887632,B,768,Incorrect
2,new_learn,68,375,B,54.0578582465311,41.97697263660834,2.702892912326555,0.6593727442755426,B,745,Correct
2,new_learn,68,376,B,55.73657449367891,32.07307579498888,2.786828724683945,0.5038026964778284,B,726,Correct
2,new_learn,68,377,A,32.41524408675203,55.17288232334397,1.6207622043376018,0.8666536089219578,A,1048,Correct
2,new_learn,68,378,A,62.2508090573177,79.24821866433416,3.112540452865885,1.2448281078297485,A,1010,Correct
2,new_learn,68,379,B,43.854783075982375,24.134865523229237,2.1927391537991188,0.3791095811157727,A,1172,Incorrect
2,new_learn,68,380,A,51.43992641192855,67.40346250402399,2.571996320596428,1.0587711131457844,A,648,Correct
2,new_learn,68,381,A,43.87322272746165,66.80002770992904,2.1936611363730827,1.0492923815655384,A,548,Incorrect
2,new_learn,68,382,B,50.840768769124054,23.860385689206108,2.5420384384562027,0.3747980619651447,B,779,Correct
2,new_learn,68,383,B,46.967665386565095,26.50021381507645,2.348383269328255,0.4162643852000146,A,1169,Correct
2,new_learn,68,384,B,35.3396773735428,13.424234048465866,1.76698386867714,0.21086737533365169,B,3274,Incorrect
2,new_learn,68,385,A,40.14855948379288,52.41627672750714,2.0074279741896444,0.8233529494783304,A,2199,Correct
2,new_learn,68,386,A,49.91844442599536,58.25629291530663,2.495922221299768,0.915087709240512,A,1856,Correct
2,new_learn,68,387,A,14.158582063857583,36.43981385441785,0.7079291031928792,0.5723952575160934,B,2138,Incorrect
2,new_learn,68,388,A,51.055473762254586,73.44834946431455,2.552773688112729,1.1537239754769322,A,10830,Correct
2,new_learn,68,389,B,60.3857684760819,52.30127001411901,3.019288423804095,0.821546428248862,A,1519,Incorrect
2,new_learn,68,390,B,37.03299980418957,26.85782883893799,1.8516499902094785,0.4218817888588984,B,1807,Incorrect
2,new_learn,68,391,A,50.620460146857305,61.49161701264155,2.5310230073428652,0.9659080613213591,A,1197,Incorrect
2,new_learn,68,392,B,41.74252667699072,13.867996768727068,2.087126333849536,0.21783798384319972,B,751,Incorrect
2,new_learn,68,393,A,34.6404236055604,66.62929871041949,1.7320211802780199,1.0466105767124687,A,1180,Correct
2,new_learn,68,394,B,34.209876063406156,13.160474530648049,1.7104938031703079,0.20672425051619744,B,1093,Correct
2,new_learn,68,395,A,22.875965643002715,40.209436530299186,1.1437982821501358,0.6316083520428649,A,1731,Correct
2,new_learn,68,396,A,16.285063385587556,35.20105610369559,0.8142531692793779,0.5529368962698611,B,7558,Incorrect
2,new_learn,68,397,B,77.77917250848822,54.022278103079856,3.8889586254244106,0.848579960094102,A,2623,Correct
2,new_learn,68,398,B,58.330103843222204,45.08773444563721,2.9165051921611105,0.7082364765071065,A,3512,Incorrect
2,new_learn,68,399,A,24.383615638435913,43.676509859682,1.2191807819217957,0.6860690125480956,B,1207,Incorrect
2,new_learn,68,400,A,52.562198388105344,62.05312232170513,2.6281099194052673,0.9747281660908881,A,3110,Incorrect
2,new_learn,68,401,A,28.962104140367508,57.438825630509704,1.4481052070183753,0.902246963158172,B,1620,Incorrect
2,new_learn,68,402,A,37.554678576630224,58.97991811355243,1.8777339288315114,0.9264543872743194,B,3247,Incorrect
2,new_learn,68,403,A,30.16057942839239,55.39344737965109,1.5080289714196196,0.8701182367246233,B,1639,Incorrect
2,new_learn,68,404,A,51.24192969436524,59.72032154552878,2.562096484718262,0.9380846171872673,A,17258,Correct
2,new_learn,68,405,B,43.42154450072513,27.479856733754943,2.1710772250362567,0.43165258018232266,B,875,Incorrect
2,new_learn,68,406,B,80.68118911516001,59.994601918558374,4.034059455758,0.9423930032119355,A,1358,Incorrect
2,new_learn,68,407,B,56.48701149476319,46.73038977997209,2.8243505747381596,0.7340392461607392,B,1101,Correct
2,new_learn,68,408,A,39.18368293162977,66.91973448815364,1.9591841465814883,1.051172731240815,A,2496,Correct
2,new_learn,68,409,A,57.98410612942976,68.44561353979876,2.899205306471488,1.0751411833353892,A,3626,Correct
2,new_learn,68,410,A,30.348528511874434,61.22861986966156,1.5174264255937218,0.9617769118598539,A,964,Correct
2,new_learn,68,411,A,62.79314518328431,74.15383440916301,3.1396572591642156,1.1648057070767026,A,3587,Correct
2,new_learn,68,412,A,31.842436492350217,46.05617277439394,1.5921218246175106,0.7234486702024913,B,850,Correct
2,new_learn,68,413,A,51.599783457016045,62.852532792408326,2.579989172850802,0.987285276400708,A,2789,Correct
2,new_learn,68,414,B,70.45986669687716,39.29308016808039,3.522993334843858,0.6172142599647806,B,4121,Incorrect
2,new_learn,68,415,B,85.75352982996867,64.93258042877734,4.287676491498433,1.0199585882683764,B,842,Correct
2,new_learn,68,416,B,59.21243231024833,34.01880806026196,2.9606216155124168,0.5343661874300011,A,3609,Correct
2,new_learn,68,417,B,45.44910577672414,21.233864488121302,2.272455288836207,0.33354076341601535,B,2901,Incorrect
2,new_learn,68,418,A,51.629587054578586,78.85043812917517,2.5814793527289295,1.2385797857947662,A,5555,Correct
2,new_learn,68,419,B,34.61247203473794,17.100526232540467,1.7306236017368972,0.26861443792334333,B,2135,Incorrect
2,new_learn,68,420,A,56.75630662210396,83.36091369359744,2.8378153311051983,1.3094301702816924,A,1364,Correct
2,new_learn,68,421,A,54.059218741401274,77.42334914311253,2.702960937070064,1.2161631244215996,A,2005,Incorrect
2,new_learn,68,422,B,77.44260442999071,48.45697891619912,3.8721302214995355,0.7611604448914333,B,12405,Correct
2,new_learn,68,423,A,13.254129156666455,33.99013957450833,0.6627064578333227,0.5339158639088354,A,886,Incorrect
2,new_learn,68,424,A,51.75994541631817,59.609136372332614,2.5879972708159085,0.9363381245707613,B,2647,Incorrect
2,new_learn,68,425,B,40.6418824302949,18.48246751010154,2.032094121514745,0.2903219207497351,B,1191,Correct
2,new_learn,68,426,A,34.82645906230384,65.63364360411022,1.7413229531151921,1.030970862875017,A,4236,Incorrect
2,new_learn,68,427,B,73.63227682291708,59.32414179960898,3.6816138411458543,0.9318614402908537,B,1847,Incorrect
2,new_learn,68,428,A,34.29022583450714,62.59002305443995,1.714511291725357,0.9831617830792218,A,1378,Incorrect
2,new_learn,68,429,B,76.08780166470268,48.78519262835601,3.804390083235134,0.766316013826031,B,3103,Incorrect
2,new_learn,68,430,A,41.73253697086845,68.41003893237372,2.086626848543423,1.0745823787086852,A,1247,Incorrect
2,new_learn,68,431,B,81.00023492142662,60.24597893650109,4.050011746071331,0.9463416241761861,A,6878,Correct
2,new_learn,68,432,B,75.37204350907466,48.81424839241153,3.768602175453733,0.766772420700537,A,5192,Incorrect
2,new_learn,68,433,B,76.06948222699496,52.31782350420468,3.8034741113497486,0.8218064498630843,B,6909,Correct
2,new_learn,68,434,A,44.55474114266125,60.23318600290332,2.2277370571330626,0.9461406732451431,B,1015,Incorrect
2,new_learn,68,435,B,81.21969526197101,51.4793388767496,4.060984763098551,0.80863556413428,B,1050,Incorrect
2,new_learn,68,436,A,33.90456120547018,65.600047353432,1.695228060273509,1.0304431342034226,B,2250,Correct
2,new_learn,68,437,A,42.18387518856809,61.604231164718385,2.1091937594284045,0.9676770002856333,A,4560,Correct
2,new_learn,68,438,A,53.23488487452099,61.425490540838325,2.6617442437260497,0.964869349131235,A,2084,Incorrect
2,new_learn,68,439,A,63.265286819617415,80.4728676775077,3.163264340980871,1.2640648495448086,A,4690,Correct
2,new_learn,68,440,A,42.464226298396376,50.631208958711085,2.1232113149198186,0.7953131705352823,B,7119,Incorrect
2,new_learn,68,441,B,55.25635224782765,23.279168180887986,2.762817612391382,0.36566831869379485,B,1599,Incorrect
2,new_learn,68,442,A,34.27925926256352,52.99616147885882,1.713962963128176,0.8324617578522061,B,8588,Incorrect
2,new_learn,68,443,B,68.72158128546678,40.33966631683886,3.436079064273339,0.6336539967462229,B,1006,Correct
2,new_learn,68,444,B,52.63704748374052,25.140280575418522,2.6318523741870257,0.394902603824605,B,1044,Incorrect
2,new_learn,68,445,A,23.702664245748604,45.43811308504523,1.1851332122874303,0.7137402113048018,B,13704,Incorrect
2,new_learn,68,446,B,50.028258225376064,30.276265956789207,2.5014129112688033,0.47557847353989857,B,697,Correct
2,new_learn,68,447,A,28.156117227035274,49.98033678728983,1.4078058613517639,0.785089294374467,B,996,Incorrect
2,new_learn,68,448,A,42.135629596384206,61.002119108958524,2.1067814798192104,0.9582190462305682,B,1106,Correct
2,new_learn,68,449,B,72.39355457122737,42.162083720554556,3.6196777285613684,0.66228046238266,B,7678,Incorrect
2,new_learn,68,450,B,60.037352063960164,51.61687319165977,3.0018676031980083,0.8107959481009713,B,780,Incorrect
2,new_learn,68,451,B,72.08303383056149,53.66969304249956,3.6041516915280742,0.8430415669136793,B,686,Incorrect
2,new_learn,68,452,A,47.211690493532394,78.1134431224458,2.3605845246766197,1.2270030953003996,A,1138,Incorrect
2,new_learn,68,453,B,65.34454172693398,36.28159052747723,3.2672270863466992,0.5699098913083774,B,7421,Incorrect
2,new_learn,68,454,A,26.709373303293845,41.07067155877978,1.335468665164692,0.645136600235309,B,828,Incorrect
2,new_learn,68,455,B,36.52111192722674,23.682064520716647,1.826055596361337,0.37199699960061455,B,1502,Correct
2,new_learn,68,456,A,64.72352344516638,85.24938823715243,3.236176172258319,1.339094259044311,A,2098,Incorrect
2,new_learn,68,457,B,71.21929568354247,46.25685724824899,3.560964784177123,0.726601014546254,A,15837,Incorrect
2,new_learn,68,458,A,54.23588248781721,77.93045369977351,2.7117941243908605,1.22412870417064,A,1198,Correct
2,new_learn,68,459,B,46.665699832159554,35.80311734009816,2.333284991607978,0.5623940520563285,B,3509,Correct
2,new_learn,68,460,A,39.13543410500254,70.15775039048147,1.9567717052501268,1.1020353660956153,A,1009,Correct
2,new_learn,68,461,A,17.04195786855626,41.68016892483836,0.8520978934278131,0.6547105624732689,A,1207,Incorrect
2,new_learn,68,462,B,47.516087074535804,27.302564464571354,2.37580435372679,0.4288676797302955,B,8231,Correct
2,new_learn,68,463,B,65.47006835624968,39.16192493916999,3.273503417812484,0.6151540784466567,B,640,Incorrect
2,new_learn,68,464,A,32.000925575619334,60.76949619351908,1.6000462787809666,0.9545650140195622,A,1192,Correct
2,new_learn,68,465,A,22.65993754914132,48.3803684868554,1.132996877457066,0.7599570510813604,B,972,Incorrect
2,new_learn,68,466,B,57.15958354494258,27.23093784696984,2.857979177247129,0.4277425714520035,B,722,Incorrect
2,new_learn,68,467,A,19.432046794782256,41.123980977230005,0.9716023397391127,0.6459739826221609,A,1083,Incorrect
2,new_learn,68,468,A,61.548491335030235,84.03525041494225,3.0774245667515117,1.320022626730806,A,1074,Incorrect
2,new_learn,68,469,B,47.96302791525034,33.551732125111364,2.398151395762517,0.5270293757973126,B,980,Incorrect
2,new_learn,68,470,A,33.84333113445463,59.50553940961777,1.6921665567227313,0.9347108272857655,A,3111,Correct
2,new_learn,68,471,B,52.52459520765232,31.196989543435485,2.626229760382616,0.4900411658188725,B,1015,Correct
2,new_learn,68,472,A,55.23876709217789,69.22664823084364,2.7619383546088945,1.087409647573316,A,3383,Incorrect
2,new_learn,68,473,B,39.04224179296928,27.599930511803045,1.9521120896484638,0.4335386946773462,B,731,Correct
2,new_learn,68,474,A,39.74713879272407,72.40120176950808,1.9873569396362034,1.1372754179507945,B,1684,Incorrect
2,new_learn,68,475,B,64.97040872615959,34.484398014541156,3.248520436307979,0.5416796573297448,B,678,Incorrect
2,new_learn,68,476,A,33.110070481199905,51.06584146044673,1.6555035240599951,0.8021403619076027,B,562,Incorrect
2,new_learn,68,477,A,57.43516805151142,65.61659397841248,2.871758402575571,1.0307030479808246,A,2076,Correct
2,new_learn,68,478,A,50.73038606744668,64.86024534437188,2.536519303372334,1.0188223514195511,A,2839,Correct
2,new_learn,68,479,B,52.841658868860826,27.385055026526054,2.6420829434430413,0.43016343844743243,B,762,Correct
2,new_learn,68,480,A,23.91353793157307,39.13721925533872,1.1956768965786535,0.6147660024725257,B,330,Correct
2,new_learn,68,481,B,73.26343547448673,50.11258006548134,3.6631717737243368,0.7871665669307324,B,695,Incorrect
2,new_learn,68,482,A,22.770148609110738,43.5450679312564,1.138507430455537,0.6840043275645178,B,792,Incorrect
2,new_learn,68,483,B,42.796618765669855,22.2267454615694,2.1398309382834926,0.34913690127638347,B,685,Correct
2,new_learn,68,484,A,11.994395771785204,32.90894770685283,0.5997197885892602,0.5169325417660976,B,581,Incorrect
2,new_learn,68,485,A,26.10386846211892,57.92179495808419,1.3051934231059459,0.9098334276152582,A,2475,Correct
2,new_learn,68,486,B,70.39301336785483,56.35294983511598,3.519650668392742,0.8851900660505726,B,902,Incorrect
2,new_learn,68,487,A,44.864279905931326,74.4487607727523,2.243213995296566,1.169438399562713,A,922,Correct
2,new_learn,68,488,A,46.17169310292492,70.18401323947364,2.308584655146246,1.1024479019628959,A,2361,Correct
2,new_learn,68,489,B,39.774492565611055,21.58861840596293,1.9887246282805529,0.3391132249266326,B,724,Correct
2,new_learn,68,490,A,23.976832790726977,52.32513872395497,1.1988416395363488,0.8219213570662188,B,1567,Correct
2,new_learn,68,491,B,63.15990268279043,47.24399485519273,3.1579951341395214,0.7421069358165373,A,848,Incorrect
2,new_learn,68,492,A,17.52025939569056,39.292869377283935,0.8760129697845279,0.6172109488706928,B,1080,Correct
2,new_learn,68,493,B,40.777096390573746,30.177511239706845,2.0388548195286873,0.47402723807143227,B,891,Correct
2,new_learn,68,494,A,51.32020420583412,76.83441265099611,2.566010210291706,1.20691213163628,A,937,Incorrect
2,new_learn,68,495,B,61.84018052220911,35.88509735734364,3.092009026110455,0.5636817911559264,B,1075,Correct
2,new_learn,68,496,A,38.034242102262944,58.731143033197,1.9017121051131471,0.9225466374501152,B,1555,Incorrect
2,new_learn,68,497,A,45.59201152285578,76.37516837951624,2.279600576142789,1.1996983394888585,A,640,Correct
2,new_learn,68,498,B,62.52263378170628,38.598433480925166,3.126131689085314,0.606302775318744,B,954,Correct
2,new_learn,68,499,B,48.913251611975426,23.502158184712417,2.4456625805987713,0.3691710374829888,B,662,Correct
2,new_learn,68,500,B,71.27888448073037,54.482254654895364,3.5639442240365184,0.8558052548741378,B,922,Correct
2,new_learn,68,501,B,75.51301280768737,47.45067308709154,3.7756506403843684,0.7453534298914885,A,857,Correct
2,new_learn,68,502,B,49.74790200574485,25.00522041008822,2.4873951002872423,0.3927810837086335,A,441,Incorrect
2,new_learn,68,503,A,29.103056154391574,45.99943769959259,1.4551528077195786,0.7225574777315075,A,614,Correct
2,new_learn,68,504,A,28.973667123200904,43.88481617051187,1.4486833561600452,0.6893410804270932,A,629,Correct
2,new_learn,68,505,B,74.21346613850959,42.01988962353996,3.7106733069254796,0.6600468827298356,A,794,Incorrect
2,new_learn,68,506,B,61.583692463350616,50.99500218114251,3.079184623167531,0.8010276211103637,A,813,Incorrect
2,new_learn,68,507,B,44.928739299702485,32.74095020157263,2.2464369649851244,0.5142936431240492,B,718,Correct
2,new_learn,68,508,B,83.32535037227207,65.1270638780785,4.166267518613603,1.0230135271462228,A,1650,Incorrect
2,new_learn,68,509,B,72.19405186145637,49.986688621390414,3.609702593072819,0.7851890687512031,B,875,Correct
2,new_learn,68,510,A,25.112165760742563,56.68051614913606,1.255608288037128,0.8903354656790174,B,1415,Correct
2,new_learn,68,511,B,75.06187994976257,42.73052852345292,3.7530939974881283,0.6712095724664441,B,846,Correct
2,new_learn,68,512,B,87.73933062190928,67.03020571388952,4.386966531095464,1.0529080091968395,A,1869,Correct
2,new_learn,68,513,A,43.1017553492419,72.9414655417962,2.1550877674620947,1.1457618614409,A,984,Correct
2,new_learn,68,514,A,19.096558512679582,33.7746922415661,0.9548279256339791,0.5305316251168013,B,704,Correct
2,new_learn,68,515,B,76.20700649483844,47.309671472598026,3.810350324741922,0.7431385817103029,B,797,Correct
2,new_learn,68,516,B,39.17018738821412,14.94358394656626,1.9585093694107059,0.23473326772417466,B,817,Correct
2,new_learn,68,517,A,25.635299396960797,46.38567575712179,1.2817649698480398,0.7286244909518599,A,623,Correct
2,new_learn,68,518,B,39.19963283266463,14.730652641346389,1.9599816416332316,0.23138855060318447,B,1012,Correct
2,new_learn,68,519,A,65.32472769732513,76.02491476917714,3.2662363848662563,1.1941965686431855,A,1792,Correct
2,new_learn,68,520,B,75.96591388775565,59.464540546925704,3.798295694387782,0.9340668186565708,B,1230,Correct
2,new_learn,68,521,A,38.697988298507,71.0811204461085,1.93489941492535,1.1165396290121283,A,868,Correct
2,new_learn,68,522,B,61.943309192585076,46.062699816736014,3.0971654596292537,0.7235511967438488,B,2836,Incorrect
2,new_learn,68,523,B,80.15856952729723,55.04376424635899,4.007928476364862,0.8646254269114496,B,1339,Correct
2,new_learn,68,524,A,51.30124086968887,78.43050430257458,2.5650620434844433,1.2319834806715546,B,1800,Correct
2,new_learn,68,525,B,57.135708084741765,32.17040169595685,2.856785404237088,0.5053314881552533,B,1099,Correct
2,new_learn,68,526,B,53.94056194307775,26.958553387486496,2.6970280971538876,0.423463966367679,B,955,Correct
2,new_learn,68,527,B,67.47717793248788,40.5397884787121,3.3738588966243936,0.6367975083140303,B,2408,Correct
2,new_learn,68,528,B,70.7249071673894,40.107858208167464,3.53624535836947,0.63001276349,B,790,Incorrect
2,new_learn,68,529,B,42.63743823809933,25.612604524102444,2.1318719119049665,0.40232185106110474,B,1225,Incorrect
2,new_learn,68,530,B,47.53507587545266,33.02275178953418,2.3767537937726333,0.5187201721165989,B,1482,Incorrect
2,new_learn,68,531,B,55.84921628721251,42.38628653461388,2.7924608143606258,0.6658022319504747,B,1545,Correct
2,new_learn,68,532,A,55.76668532888499,69.06258500925003,2.7883342664442496,1.0848325485149024,A,811,Correct
2,new_learn,68,533,B,76.05688843507251,62.6467593957748,3.8028444217536252,0.9840529954448672,A,985,Incorrect
2,new_learn,68,534,A,18.083508511078108,44.19590959575701,0.9041754255539054,0.6942277245237444,A,1016,Incorrect
2,new_learn,68,535,B,70.98479208871728,39.09905615786708,3.5492396044358645,0.61416653793925,B,937,Correct
2,new_learn,68,536,A,18.337685612602037,36.92731276747438,0.9168842806301017,0.5800528725355505,A,843,Incorrect
2,new_learn,68,537,A,48.01433274455724,63.285972525651836,2.4007166372278617,0.9940937318093664,A,2368,Incorrect
2,new_learn,68,538,A,31.479666923583544,62.23845436399819,1.5739833461791772,0.9776393550036014,A,1826,Correct
2,new_learn,68,539,A,26.04209552956152,57.16204772854772,1.302104776478076,0.8978993460407733,A,1605,Correct
2,new_learn,68,540,B,34.89753207611059,15.792222403102247,1.7448766038055297,0.24806364942721085,B,1284,Incorrect
2,new_learn,68,541,B,38.01904836378597,17.57345634233774,1.9009524181892985,0.27604320671634597,B,947,Incorrect
2,new_learn,68,542,B,60.67704151259056,35.09570895384931,3.033852075629528,0.5512821071096926,B,706,Incorrect
2,new_learn,68,543,B,53.10899182643434,38.57401114595077,2.655449591321717,0.6059191501780486,B,525,Correct
2,new_learn,68,544,B,85.92981077683254,67.10927024100654,4.296490538841627,1.0541499518845914,B,653,Correct
2,new_learn,68,545,A,58.19889467591672,85.9928081795599,2.909944733795836,1.3507718721923083,A,2317,Correct
2,new_learn,68,546,A,15.37750116007561,34.90622029066177,0.7688750580037805,0.5483056261486501,A,1217,Correct
2,new_learn,68,547,A,34.929040036659615,54.188030346446844,1.7464520018329808,0.8511835902444909,B,1952,Correct
2,new_learn,68,548,B,64.96848291936213,35.224916547333436,3.248424145968107,0.5533116952420813,B,724,Incorrect
2,new_learn,68,549,A,36.31142365264723,53.370684557916995,1.8155711826323613,0.8383447526210512,B,485,Incorrect
2,new_learn,68,550,B,79.89306323321412,56.245188496580255,3.9946531616607057,0.8834973549031484,B,557,Correct
2,new_learn,68,551,A,60.095705069703605,72.56419487733316,3.00478525348518,1.1398357077014398,B,482,Incorrect
2,new_learn,68,552,B,69.62301050385928,45.7315308072058,3.481150525192964,0.7183492061066652,A,490,Correct
2,new_learn,68,553,B,53.27696210387421,36.040647325612404,2.6638481051937104,0.5661251643438228,A,549,Correct
2,new_learn,68,554,B,84.26415412408817,56.34590404391099,4.213207706204408,0.885079391021131,A,724,Incorrect
2,new_learn,68,555,A,48.2722172123674,59.35699152042806,2.41361086061837,0.9323774424988422,B,799,Incorrect
2,new_learn,68,556,A,20.389848996097772,50.89506468742189,1.0194924498048885,0.7994578066299097,107,574,Correct
2,new_learn,68,557,A,33.28492015437336,48.44173000730815,1.664246007718668,0.7609209155906975,A,514,Incorrect
2,new_learn,68,558,B,31.07122283800945,13.046540762416566,1.5535611419004727,0.2049345830698383,B,588,Incorrect
2,new_learn,68,559,B,73.8770581679523,54.19563216636141,3.693852908397615,0.8513029993524786,B,332,Incorrect
2,new_learn,68,560,B,64.29328138124701,41.3366166969719,3.214664069062351,0.6493140566973206,B,608,Incorrect
2,new_learn,68,561,B,69.43849940539266,55.78037194966584,3.4719249702696335,0.8761960336578819,B,536,Incorrect
2,new_learn,68,562,B,38.399669100133536,12.25075562230229,1.9199834550066768,0.19243441931974364,B,551,Incorrect
2,new_learn,68,563,B,83.50526236781822,66.05581423939967,4.175263118390911,1.0376023037069504,B,1190,Correct
2,new_learn,68,564,B,58.63499496656215,35.12650776009988,2.9317497483281074,0.5517658936269731,B,816,Correct
2,new_learn,68,565,B,87.14821337464096,67.19243390735485,4.357410668732047,1.0554562837008186,B,559,Correct
2,new_learn,68,566,A,20.696341844583635,39.67875129426329,1.0348170922291817,0.6232723678483703,A,850,Correct
2,new_learn,68,567,B,37.73049065955253,18.532097756127946,1.8865245329776263,0.2911015108312972,A,203,Correct
2,new_learn,68,568,A,45.46060123155632,72.9247555367765,2.273030061577816,1.1454993812958434,A,726,Correct
2,new_learn,68,569,B,51.11515164089777,27.702195479112575,2.5557575820448886,0.43514506902744227,A,1335,Incorrect
2,new_learn,68,570,A,22.10058334087602,44.325331606926795,1.105029167043801,0.6962606807212635,B,391,Incorrect
2,new_learn,68,571,A,58.00442183729659,84.68706127742121,2.9002210918648297,1.3302612478162754,A,1056,Correct
2,new_learn,68,572,A,46.25210923716803,65.07020545403621,2.3126054618584018,1.0221203971098933,B,1248,Incorrect
2,new_learn,68,573,B,67.87981871111576,59.33264029427616,3.393990935555788,0.9319949343329187,107,563,Correct
2,new_learn,68,574,B,39.18703965036819,14.651411130229096,1.9593519825184098,0.2301438278572573,B,760,Incorrect
2,new_learn,68,575,A,38.95536021252137,59.12447540596861,1.9477680106260686,0.9287250879137068,B,453,Correct
2,new_learn,68,576,B,34.67417554644134,14.464191810406753,1.7337087773220672,0.22720299365843752,B,682,Correct
2,new_learn,68,577,B,81.4762119524463,67.71744353795849,4.073810597622315,1.06370311569366,B,856,Correct
2,new_learn,68,578,A,38.41694286564018,59.24801149683523,1.9208471432820091,0.9306655882913059,B,675,Correct
2,new_learn,68,579,B,63.792493142514665,41.68270071748671,3.189624657125733,0.6547503317791912,B,574,Incorrect
2,new_learn,68,580,B,64.2184750900109,31.767939996221365,3.210923754500545,0.49900963455905206,A,948,Incorrect
2,new_learn,68,581,A,36.75561893979269,68.08686738000128,1.8377809469896347,1.0695060118347728,B,1574,Incorrect
2,new_learn,68,582,B,57.601010380714406,47.57143135740351,2.8800505190357204,0.7472502963658499,B,974,Incorrect
2,new_learn,68,583,A,12.8567877829963,35.8255611084678,0.6428393891498149,0.5627465979454732,A,2843,Incorrect
2,new_learn,68,584,A,55.339012159809215,65.55323369738825,2.7669506079904607,1.029707787013849,B,638,Incorrect
2,new_learn,68,585,A,45.78266687349095,59.14013011003404,2.2891333436745476,0.9289709914301372,B,1074,Correct
2,new_learn,68,586,A,34.3482791465781,65.33200081379721,1.7174139573289051,1.0262326690047383,B,562,Correct
2,new_learn,68,587,B,45.70191366826935,31.181725688954316,2.2850956834134677,0.48980140175335507,B,507,Correct
2,new_learn,68,588,A,36.79439428066007,55.628059192722155,1.8397197140330035,0.8738035104665705,B,276,Incorrect
2,new_learn,68,589,A,27.363737384056236,47.77497024402168,1.3681868692028119,0.7504474777204474,A,966,Incorrect
2,new_learn,68,590,B,80.0340693501088,51.85322769493152,4.00170346750544,0.8145085959565784,B,682,Correct
2,new_learn,68,591,B,39.111186390336755,21.100391300959455,1.9555593195168377,0.331444171494821,B,856,Incorrect
2,new_learn,68,592,A,40.94674975059542,65.293149039195,2.047337487529771,1.0256223867563925,B,2811,Incorrect
2,new_learn,68,593,A,48.19241491464638,66.71039277761452,2.409620745732319,1.0478843993412166,A,1071,Correct
2,new_learn,68,594,A,29.935156766582026,58.551923875172214,1.4967578383291014,0.9197314694989493,120,873,Correct
2,new_learn,68,595,A,38.57422815278085,64.12321801163488,1.9287114076390424,1.0072451531494442,A,742,Correct
2,new_learn,68,596,A,43.34136706098388,53.82094175860821,2.167068353049194,0.8454173761906383,A,511,Incorrect
2,new_learn,68,597,A,55.59498582408546,78.78410830165666,2.779749291204273,1.237537879300536,B,1154,Incorrect
2,new_learn,68,598,A,31.986600220532882,63.22871208330306,1.599330011026644,0.9931942868842454,A,4524,Incorrect
2,new_learn,68,599,B,80.18760518922811,66.07185417769963,4.009380259461405,1.0378542584685864,A,1637,Incorrect
2,new_learn,68,600,A,47.2135127119518,82.08334559948587,2.36067563559759,1.2893621775870843,B,2400,Incorrect
2,new_learn,68,601,B,23.2230195577608,58.5896060120535,1.16115097788804,0.9203233791209382,B,3695,Correct
2,new_learn,68,602,B,62.998049474198446,13.974055326546022,3.1499024737099224,0.2195039477736715,B,890,Correct
2,new_learn,68,603,A,48.3803684868554,77.34006245085868,2.41901842434277,1.2148548601189673,A,1305,Correct
2,new_learn,68,604,A,69.50744856256381,58.099021367814935,3.4753724281281904,0.912617293549419,B,784,Incorrect
2,new_learn,68,605,A,33.99013957450833,86.74587084333355,1.6995069787254167,1.3626009528533285,A,910,Correct
2,new_learn,68,606,B,51.42740924571366,30.431433608412163,2.571370462285683,0.47801584131196595,B,867,Correct
2,new_learn,68,607,A,40.31652513531522,78.98958330249495,2.0158262567657608,1.2407654730661857,A,1075,Correct
2,new_learn,68,608,B,24.134865523229237,56.145216924017625,1.2067432761614618,0.8819270051134954,A,1155,Incorrect
2,new_learn,68,609,B,38.726906015340454,35.72552358071809,1.9363453007670228,0.5611752121341643,B,712,Correct
2,new_learn,68,610,B,53.082796869401115,29.915836488229587,2.654139843470056,0.4699168606870777,B,656,Correct
2,new_learn,68,611,B,52.6344581218179,32.942942571976374,2.6317229060908947,0.5174665318587571,B,441,Correct
2,new_learn,68,612,B,37.55934819570349,38.77748058442331,1.8779674097851744,0.6091152406437255,B,497,Correct
2,new_learn,68,613,A,57.16204772854772,73.95790447043848,2.858102386427386,1.1617280467961262,B,2276,Incorrect
2,new_learn,68,614,B,55.2340392866509,26.293454609754477,2.761701964332545,0.41301661919750676,B,647,Correct
2,new_learn,68,615,B,27.479856733754943,56.57845549927487,1.3739928366877472,0.8887323007398947,B,765,Correct
2,new_learn,68,616,A,40.555161244270316,71.23876334742415,2.027758062213516,1.1190158779154475,A,700,Correct
2,new_learn,68,617,B,26.278509459193636,45.46615959622328,1.3139254729596817,0.7141807648721805,B,1054,Correct
2,new_learn,68,618,B,46.25278999361488,22.489259771675222,2.3126394996807442,0.3532604664168367,B,834,Correct
2,new_learn,68,619,B,29.06627512566808,60.6812773801264,1.453313756283404,0.9531792761392481,A,861,Incorrect
2,new_learn,68,620,B,65.36251217080033,20.49746203001807,3.268125608540016,0.3219733806537025,B,524,Correct
2,new_learn,68,621,A,75.59991887543751,55.6877921652528,3.7799959437718758,0.8747417938049673,A,2036,Correct
2,new_learn,68,622,B,61.72093771701057,21.768438577937943,3.086046885850528,0.3419378335828524,B,650,Correct
2,new_learn,68,623,A,56.06309611510048,53.57447376022629,2.803154805755024,0.8415458659253303,A,900,Correct
2,new_learn,68,624,A,60.76949619351908,67.99907442438067,3.038474809675954,1.0681269633126993,A,742,Correct
2,new_learn,68,625,A,52.66135418738939,70.5915133269713,2.63306770936947,1.108848898368995,A,687,Correct
2,new_learn,68,626,A,72.40120176950808,60.25286120727593,3.620060088475404,0.9464497306327175,A,892,Correct
2,new_learn,68,627,A,60.21756912650829,71.141168313697,3.0108784563254143,1.1174828587105272,A,596,Correct
2,new_learn,68,628,A,40.952806716546576,86.64526285206216,2.047640335827329,1.3610206062219754,A,599,Correct
2,new_learn,68,629,B,56.245188496580255,20.10693676678588,2.8122594248290125,0.3158390241636451,B,863,Correct
2,new_learn,68,630,B,27.6558880233231,56.39854787610449,1.3827944011661548,0.8859063184035103,A,2293,Incorrect
2,new_learn,68,631,B,11.456818163244826,67.71925178368059,0.5728409081622413,1.063731519551042,A,3296,Incorrect
2,new_learn,68,632,B,60.349780224259625,21.653671367496187,3.017489011212981,0.34013507445686836,B,773,Correct
2,new_learn,68,633,A,83.55226890156024,45.66064048928627,4.177613445078012,0.717235663596732,A,2493,Correct
2,new_learn,68,634,B,65.74158107654236,21.82267249621033,3.287079053827118,0.34278973797895207,B,640,Correct
2,new_learn,68,635,B,68.59919971645674,11.390374717416464,3.429959985822837,0.17891958766935237,B,487,Correct
2,new_learn,68,636,A,79.24821866433416,37.7491909426823,3.962410933216708,0.5929629047224454,B,685,Incorrect
2,new_learn,68,637,B,16.99342181894194,67.69967606188729,0.849671090947097,1.0634240248321694,A,739,Incorrect
2,new_learn,68,638,A,76.02491476917714,34.67527230267487,3.8012457384588574,0.544677903636545,B,866,Incorrect
2,new_learn,68,639,A,44.19590959575701,81.91649148892189,2.2097954797878505,1.286741239347239,A,909,Correct
2,new_learn,68,640,A,77.42334914311253,45.940781258598726,3.871167457155627,0.7216361045109472,B,1269,Incorrect
2,new_learn,68,641,A,54.90373283751534,77.19176033562294,2.745186641875767,1.2125253359402852,A,813,Correct
2,new_learn,68,642,A,69.46607931554341,41.56878999835713,3.4733039657771707,0.6529610263872783,B,1424,Incorrect
2,new_learn,68,643,A,50.78905776905246,77.09216174265526,2.5394528884526233,1.2109608449004094,A,1859,Correct
2,new_learn,68,644,A,69.04946763752658,44.184224674516045,3.4524733818763287,0.6940441782101023,A,932,Correct
2,new_learn,68,645,A,51.10522690457584,76.38763131031156,2.5552613452287916,1.1998941067480022,A,601,Correct
2,new_learn,68,646,A,64.37844303391502,63.58374770253655,3.2189221516957507,0.9987711733499783,A,614,Correct
2,new_learn,68,647,B,10.22940214471054,66.00295147707683,0.511470107235527,1.0367719373781408,A,1022,Incorrect
2,new_learn,68,648,B,21.247588335005172,52.73142369878131,1.0623794167502587,0.8283032665271105,A,2210,Incorrect
2,new_learn,68,649,A,82.57838602534333,38.71956830071707,4.1289193012671666,0.6082055566185051,A,1451,Correct
2,new_learn,68,650,B,65.9325211722363,15.342823142651255,3.2966260586118152,0.24100450235140325,B,1209,Correct
2,new_learn,68,651,A,73.44834946431455,48.944526237745414,3.6724174732157273,0.7688188203096694,A,1099,Correct
2,new_learn,68,652,B,39.01521384960839,28.92256985417032,1.9507606924804193,0.45431466488399547,B,1490,Correct
2,new_learn,68,653,A,55.17288232334397,67.58475591324796,2.7586441161671984,1.0616188633585957,A,1421,Correct
2,new_learn,68,654,B,46.25685724824899,28.78070431645753,2.3128428624124497,0.4520862462286151,B,856,Correct
2,new_learn,68,655,A,45.99943769959259,70.89694384560843,2.2999718849796293,1.1136465897366576,A,878,Correct
2,new_learn,68,656,B,21.58861840596293,60.225507434388945,1.0794309202981465,0.946020058572969,A,2678,Incorrect
2,new_learn,68,657,B,26.85782883893799,62.96700019581043,1.3428914419468996,0.9890833261687255,B,1198,Correct
2,new_learn,68,658,A,70.61292957173634,51.32952684451194,3.5306464785868172,0.806282322234794,A,2022,Correct
2,new_learn,68,659,A,54.77779839564382,67.65482260497946,2.738889919782191,1.0627194683786207,A,1725,Correct
2,new_learn,68,660,B,40.0105143657384,52.444264591494466,2.0005257182869203,0.8237925818177917,B,1293,Correct
2,new_learn,68,661,B,46.15192582582877,29.309945400015792,2.3075962912914383,0.4603995457290378,B,719,Correct
2,new_learn,68,662,A,49.98033678728983,71.84388277296472,2.499016839364492,1.1285210716245615,A,1644,Correct
2,new_learn,68,663,B,33.02275178953418,52.46492412454734,1.6511375894767093,0.8241171010041192,B,1083,Correct
2,new_learn,68,664,B,22.2267454615694,57.203381234330145,1.11133727307847,0.8985486112313391,B,737,Correct
2,new_learn,68,665,B,47.16960902761006,33.78267667343201,2.358480451380503,0.5306570442792663,B,815,Correct
2,new_learn,68,666,A,49.502095190829586,57.50969571557334,2.475104759541479,0.903360187851148,A,960,Correct
2,new_learn,68,667,A,63.88643625570684,56.332999030650974,3.1943218127853417,0.8848766795468701,A,688,Correct
2,new_learn,68,668,B,60.855288423268505,12.584023133764788,3.0427644211634255,0.19766937314819727,B,1560,Correct
2,new_learn,68,669,B,30.45928054061728,36.87673729102942,1.5229640270308638,0.5792584348092938,B,887,Correct
2,new_learn,68,670,B,28.81123804528682,54.60196169059391,1.440561902264341,0.8576856085938057,B,597,Correct
2,new_learn,68,671,A,42.53627349078899,75.7848687424738,2.12681367453945,1.1904259344731125,A,967,Correct
2,new_learn,68,672,A,50.14287397438208,80.99341788961934,2.5071436987191036,1.272241633155781,A,5232,Correct
2,new_learn,68,673,B,27.741455300908484,52.900661653221036,1.3870727650454242,0.8309616500989925,B,1370,Correct
2,new_learn,68,674,A,81.00377680657749,49.585757700728735,4.050188840328874,0.7788912605764644,A,1016,Correct
2,new_learn,68,675,A,54.96137454486282,60.27415885706149,2.7480687272431408,0.9467842733332426,A,1739,Correct
2,new_learn,68,676,B,30.38386447336815,37.516305339967666,1.5191932236684074,0.5893047462293697,B,732,Correct
2,new_learn,68,677,A,59.35699152042806,51.7277827876326,2.967849576021403,0.8125381119605758,B,527,Incorrect
2,new_learn,68,678,A,42.761122358445554,70.69459172476328,2.138056117922278,1.1104680500552306,A,1332,Correct
2,new_learn,68,679,A,74.81386886773207,46.86598615637117,3.7406934433866037,0.736169189060483,A,1142,Correct
2,new_learn,68,680,B,64.08198007521781,19.587227371359532,3.2040990037608905,0.3076754480702801,B,782,Correct
2,new_learn,68,681,B,39.05623824431686,31.933646580283664,1.952811912215843,0.5016125474947599,B,592,Correct
2,new_learn,68,682,A,62.23845436399819,68.52033307641645,3.111922718199909,1.076314875071978,A,918,Correct
2,new_learn,68,683,B,30.328932115396494,48.136129023574,1.5164466057698247,0.7561205465635525,B,877,Correct
2,new_learn,68,684,A,71.86278932730382,59.14521714403944,3.5931394663651908,0.9290508983734369,A,1166,Correct
2,new_learn,68,685,B,46.73038977997209,43.51298850523681,2.3365194889986047,0.6835004251189454,B,1498,Correct
2,new_learn,68,686,A,31.743199218044452,87.40211330561957,1.5871599609022227,1.3729091853457855,B,955,Incorrect
2,new_learn,68,687,B,16.517150978083023,56.50275989452945,0.8258575489041512,0.8875432769610085,B,1233,Correct
2,new_learn,68,688,A,52.67081197385874,78.53425948107882,2.633540598692937,1.2336132632043588,A,1104,Correct
2,new_learn,68,689,B,22.732972415000294,59.15880614288673,1.1366486207500146,0.9292643538681785,A,1071,Incorrect
2,new_learn,68,690,B,41.97697263660834,45.9421417534689,2.0988486318304167,0.721657475114394,B,1364,Correct
2,new_learn,68,691,B,21.100391300959455,60.888813609663245,1.0550195650479728,0.9564392476095814,B,740,Correct
2,new_learn,68,692,A,72.56419487733316,39.904294930296395,3.6282097438666585,0.626815198998498,A,1180,Correct
2,new_learn,68,693,B,22.67936794006349,60.579677467511516,1.1339683970031744,0.9515833484438665,B,1277,Correct
2,new_learn,68,694,A,76.63520323433929,42.87756705284924,3.8317601617169648,0.6735192482851745,A,1634,Correct
2,new_learn,68,695,A,51.509173193738775,61.77419593282524,2.5754586596869387,0.9703468006199014,B,1158,Incorrect
2,new_learn,68,696,A,74.33151605535868,51.69243321446879,3.716575802767934,0.8119828421637809,A,998,Correct
2,new_learn,68,697,B,43.85418856961429,28.569832729861602,2.1927094284807143,0.4487738830921122,B,963,Correct
2,new_learn,68,698,B,36.28159052747723,34.65545827306602,1.8140795263738614,0.5443666655872591,B,943,Correct
2,new_learn,68,699,B,28.011815505619637,39.39389684640422,1.4005907752809819,0.618797884644688,B,572,Correct
2,new_learn,68,700,A,77.97274100244759,41.349699330883254,3.89863705012238,0.6495195582302481,A,963,Correct
2,new_learn,68,701,A,61.53436173242249,51.8730268260077,3.076718086621124,0.8148195999802602,B,1306,Incorrect
2,new_learn,68,702,A,56.69515706640116,66.61502199016843,2.834757853320058,1.0463863185151783,B,2800,Incorrect
2,new_learn,68,703,B,12.250755622302293,61.600330899866464,0.6125377811151147,0.9676157350686042,B,942,Correct
2,new_learn,68,704,B,38.61947879807749,52.02444053478015,1.9309739399038746,0.8171980009559218,B,892,Correct
2,new_learn,68,705,B,44.668000207135535,31.429258474304916,2.233400010356777,0.49368963765325535,B,650,Correct
2,new_learn,68,706,A,53.2829980569136,56.556281436823454,2.6641499028456797,0.8883839913814069,B,2094,Incorrect
2,new_learn,68,707,A,70.2046736539644,43.99656442648154,3.51023368269822,0.6910964179271222,A,832,Correct
2,new_learn,68,708,A,33.45252777266171,88.50929727820433,1.6726263886330854,1.390300790518009,A,1264,Correct
2,new_learn,68,709,B,45.7315308072058,30.376989496140723,2.28657654036029,0.47716063519624996,B,985,Correct
2,new_learn,68,710,B,55.78037194966584,30.561500594607338,2.789018597483292,0.48005892875349254,A,1894,Incorrect
2,new_learn,68,711,A,64.71066028465283,68.19067067461428,3.2355330142326415,1.0711365501736458,A,518,Correct
2,new_learn,68,712,A,76.37516837951624,54.40798847714422,3.818758418975812,0.854638684481972,A,558,Correct
2,new_learn,68,713,A,84.56661449361256,37.35149600202996,4.228330724680628,0.5867159272028293,A,703,Correct
2,new_learn,68,714,B,16.942592057001953,59.13387887593468,0.8471296028500975,0.9288727972745251,B,1967,Correct
2,new_learn,68,715,A,72.05685183225836,54.228853812138865,3.602842591612918,0.8518248437440514,A,2458,Correct
2,new_learn,68,716,A,74.20402166417779,54.403258618107664,3.710201083208889,0.8545643880299632,A,814,Correct
2,new_learn,68,717,A,73.10402437406388,37.090199342706285,3.655201218703194,0.5826114888761352,A,1660,Correct
2,new_learn,68,718,A,42.913650441513624,80.78432397638706,2.145682522075681,1.2689571936471769,A,1108,Correct
2,new_learn,68,719,B,53.64056354042084,27.793097822420293,2.682028177021042,0.43657295969709037,B,912,Correct
2,new_learn,68,720,B,65.1270638780785,16.67464962772793,3.256353193903925,0.26192478385826923,B,618,Correct
2,new_learn,68,721,A,60.37037854710655,50.592770252574084,3.018518927355327,0.7947093767512148,B,1240,Incorrect
2,new_learn,68,722,A,48.44173000730815,66.71507984562663,2.4220865003654075,1.0479580236333856,A,1119,Correct
2,new_learn,68,723,A,38.47117860672637,80.95528710424465,1.9235589303363185,1.2716426761797377,A,742,Correct
2,new_learn,68,724,A,70.36428304222792,56.885864222480386,3.5182141521113963,0.8935610656722542,A,1345,Correct
2,new_learn,68,725,B,15.579926005288677,66.24644625817824,0.7789963002644339,1.0405967444556188,A,785,Incorrect
2,new_learn,68,726,B,64.19654014406719,13.767222444500348,3.209827007203359,0.216255024459894,B,860,Correct
2,new_learn,68,727,B,22.982496135047928,56.60206339062485,1.1491248067523963,0.8891031326300539,B,610,Correct
2,new_learn,68,728,A,60.99688629472017,46.17010740895834,3.0498443147360086,0.7252383512571761,B,738,Incorrect
2,new_learn,68,729,B,13.04654076241657,68.92877716199055,0.6523270381208285,1.0827306997651873,B,653,Correct
2,new_learn,68,730,A,46.99495685003155,80.45613751143904,2.349747842501577,1.2638020527107352,B,717,Incorrect
2,new_learn,68,731,A,40.221833047701274,86.98103003530099,2.0110916523850637,1.3662948248028735,A,1067,Correct
2,new_learn,68,732,B,57.71760630709364,15.617116691235367,2.8858803153546817,0.24531309533719786,B,681,Correct
2,new_learn,68,733,B,54.482254654895364,28.72111551926963,2.724112732744768,0.4511502275912063,B,820,Correct
2,new_learn,68,734,B,39.92548316915352,52.91876681535279,1.9962741584576762,0.8312460453207183,B,643,Correct
2,new_learn,68,735,A,79.2626676721866,41.88894184289661,3.9631333836093297,0.6579899598014703,B,2047,Incorrect
2,new_learn,68,736,A,43.004872844169924,67.65920372098066,2.1502436422084963,1.0627882867878402,A,3357,Correct
2,new_learn,68,737,A,67.6389230898766,50.10747844893879,3.38194615449383,0.787086430925475,A,1297,Correct
2,new_learn,68,738,A,73.25341335945174,45.85086880679645,3.6626706679725873,0.7202237630207058,A,643,Correct
2,new_learn,68,739,B,39.49129700822909,35.86862634165513,1.9745648504114544,0.5634230650465055,B,1685,Correct
2,new_learn,68,740,B,66.18060013746874,22.50598645439443,3.309030006873437,0.35352320853458474,B,950,Correct
2,new_learn,68,741,B,27.302564464571354,52.483912925464196,1.3651282232285677,0.8244153763914236,A,1488,Incorrect
2,new_learn,68,742,B,16.81412168713942,67.4308726606439,0.8407060843569709,1.0592016708791385,B,1133,Correct
2,new_learn,68,743,A,78.74103132380301,36.08887289396359,3.9370515661901506,0.5668826898000592,A,1692,Correct
2,new_learn,68,744,B,32.26056232805048,36.73605512537532,1.613028116402524,0.5770486045187438,B,1042,Correct
2,new_learn,68,745,B,43.52838496320818,45.18951298675799,2.1764192481604088,0.7098352100924973,B,2874,Correct
2,new_learn,68,746,B,33.742351348990205,47.810117598280534,1.6871175674495102,0.750999571070111,B,880,Correct
2,new_learn,68,747,B,35.224916547333436,35.03151708063787,1.7612458273666718,0.5502737835231863,B,563,Correct
2,new_learn,68,748,B,47.61466978968243,41.884260124677716,2.3807334894841214,0.6579164195436571,B,853,Correct
2,new_learn,68,749,A,36.2423827444289,82.65615716403971,1.8121191372214451,1.2983598806025527,A,881,Correct
2,new_learn,68,750,B,47.45067308709154,24.486987192312625,2.372533654354577,0.38464069535958345,B,1244,Correct
2,new_learn,68,751,B,31.181725688954316,54.29808633173065,1.5590862844477158,0.8529123456187467,A,3100,Incorrect
2,new_learn,68,752,A,48.77979447525002,76.32730839675845,2.438989723762501,1.1989465566376944,A,1256,Correct
2,new_learn,68,753,B,42.952888931762196,43.00822205731331,2.1476444465881097,0.67557157229607,B,893,Correct
2,new_learn,68,754,A,54.557495237890244,64.24501027960848,2.7278747618945123,1.0091582616210937,A,972,Correct
2,new_learn,68,755,B,22.60134828521939,63.77200271816899,1.1300674142609695,1.0017282762205402,B,2188,Correct
2,new_learn,68,756,B,51.05364101355758,22.50153329258505,2.552682050677879,0.35345325843245673,B,750,Correct
2,new_learn,68,757,B,20.11404975479752,56.80057085461114,1.005702487739876,0.8922212805827643,B,723,Correct
2,new_learn,68,758,A,69.43738744122248,48.28723479425291,3.471869372061124,0.758494110458952,B,887,Incorrect
2,new_learn,68,759,B,52.74658568654992,18.66166515715038,2.637329284327496,0.29313675080728124,B,702,Correct
2,new_learn,68,760,A,30.34153017257687,88.48894580690721,1.5170765086288436,1.389981110354425,A,1330,Correct
2,new_learn,68,761,A,47.827233343570924,75.20796889276313,2.391361667178546,1.1813640128245717,B,822,Incorrect
2,new_learn,68,762,B,37.36205901430119,33.643588508473044,1.8681029507150595,0.5284722524930845,B,1213,Correct
2,new_learn,68,763,A,45.72403155425395,64.84093305822246,2.2862015777126974,1.0185189947380962,B,781,Incorrect
2,new_learn,68,764,B,46.210264588056944,28.703613049684975,2.310513229402847,0.45087529944187216,B,773,Correct
2,new_learn,68,765,A,32.90894770685283,88.00560422821479,1.6454473853426412,1.3823887985904522,A,776,Correct
2,new_learn,68,766,A,46.38567575712179,74.36470060303921,2.3192837878560892,1.1681179855045623,A,1057,Correct
2,new_learn,68,767,A,80.11783283528166,37.16169184226513,4.005891641764083,0.5837344904331394,B,1613,Incorrect
2,new_learn,68,768,B,13.171899556988755,59.110207349545455,0.6585949778494379,0.9285009658075069,B,1669,Correct
2,new_learn,68,769,A,79.133001065282,44.27345540029667,3.9566500532641,0.6954458111730368,101,1941,Correct
2,new_learn,68,770,A,40.557061692794214,87.06698020058867,2.0278530846397107,1.3676449268420867,A,1065,Correct
2,new_learn,68,771,B,20.614204118265675,66.79741085069965,1.0307102059132838,1.0492512760368857,B,1075,Correct
2,new_learn,68,772,B,42.391538549088814,31.915490846825676,2.1195769274544407,0.5013273579004992,B,797,Correct
2,new_learn,68,773,A,39.19709611426132,74.72824225466948,1.959854805713066,1.17382848441474,B,389,Incorrect
2,new_learn,68,774,B,65.18368455623707,10.258150814901995,3.2591842278118532,0.1611346561975613,B,744,Correct
2,new_learn,68,775,B,39.984147845831835,35.16013456671557,1.9992073922915918,0.5522941022701109,A,1775,Incorrect
2,new_learn,68,776,B,21.20024082420157,64.15818733844154,1.0600120412100784,1.0077944500504281,B,2801,Correct
2,new_learn,68,777,B,19.647979276556256,59.059808553264105,0.9823989638278128,0.9277093033667706,B,1295,Correct
2,new_learn,68,778,A,63.4933042511426,52.25779225173493,3.1746652125571297,0.8208634811543604,B,912,Incorrect
2,new_learn,68,779,B,23.590633611229524,47.8410151046478,1.1795316805614762,0.7514849079651994,B,950,Correct
2,new_learn,68,780,B,22.28179237888633,62.85697888574331,1.1140896189443166,0.9873551154714997,B,638,Correct
2,new_learn,68,781,A,57.789980179453494,65.29907558314005,2.889499008972675,1.0257154806909872,A,755,Correct
2,new_learn,68,782,A,35.20105610369559,83.71493661441244,1.7600528051847795,1.3149911493178663,A,1286,Correct
2,new_learn,68,783,A,66.71039277761452,51.80758508535362,3.335519638880726,0.8137916435218754,B,1003,Incorrect
2,new_learn,68,784,B,62.427067994824014,20.673606383055045,3.121353399741201,0.3247402496810639,B,817,Correct
2,new_learn,68,785,B,59.994601918558374,19.31881088483999,2.9997300959279185,0.30345917175951925,B,804,Correct
2,new_learn,68,786,A,34.91198664225459,87.6937828122776,1.7455993321127294,1.3774907192427508,A,736,Correct
2,new_learn,68,787,A,65.600047353432,66.09543879452983,3.2800023676716,1.0382247247634435,A,999,Correct
2,new_learn,68,788,B,65.54663032912478,14.35666768969908,3.2773315164562393,0.2255140087199429,A,958,Incorrect
2,new_learn,68,789,A,35.50772799038025,86.17805925342068,1.7753863995190127,1.3536817892558617,A,911,Correct
2,new_learn,68,790,B,48.78519262835601,23.91219833529732,2.4392596314178006,0.37561193310676066,B,1856,Correct
2,new_learn,68,791,A,67.07305760632349,47.12023210567681,3.353652880316174,0.7401628750932008,A,2506,Correct
2,new_learn,68,792,A,65.9934837214588,63.18451408954927,3.29967418607294,0.9925000264218439,A,2028,Correct
2,new_learn,68,793,B,23.15406163993963,48.94821151029086,1.1577030819969816,0.7688767084354455,B,824,Correct
2,new_learn,68,794,B,25.00522041008822,50.25209799425515,1.250261020504411,0.7893581094311317,B,449,Correct
2,new_learn,68,795,A,42.63839743526798,65.60856178990576,2.131919871763399,1.0305768786587999,B,1063,Incorrect
2,new_learn,68,796,B,28.039919288791296,45.543020145434326,1.4019959644395648,0.7153880875559422,B,603,Correct
2,new_learn,68,797,A,84.86205764013219,37.186215291765464,4.2431028820066095,0.5841197038770941,B,869,Incorrect
2,new_learn,68,798,A,30.994800740514904,85.51771318084789,1.5497400370257453,1.3433090974037538,A,1035,Correct
2,new_learn,68,799,B,21.56710085718297,48.58238759964884,1.0783550428591484,0.7631303598845433,B,1729,Correct
2,new_learn,68,800,A,83.36091369359744,43.24369337789604,4.168045684679872,0.6792703471504389,B,1785,Incorrect
2,new_learn,68,801,A,75.3575034174989,48.21782095579686,3.767875170874945,0.757403760434197,B,1075,Incorrect
2,new_learn,68,802,B,23.07283470264078,55.52181090231468,1.153641735132039,0.8721345662235674,B,701,Correct
2,new_learn,68,803,B,21.63824345990959,66.54505918307225,1.0819121729954795,1.045287345311189,B,835,Correct
2,new_learn,68,804,A,81.00477056370242,45.25533457934783,4.050238528185122,0.7108691332511363,A,1648,Correct
2,new_learn,68,805,B,33.551732125111364,52.03697208474966,1.6775866062555682,0.8173948460825334,B,1045,Correct
2,new_learn,68,806,A,51.989519397821404,67.53279467030218,2.59947596989107,1.0608026580630465,B,2072,Incorrect
2,new_learn,68,807,A,59.72032154552878,48.75807030563476,2.9860160772764393,0.765889977376984,B,1065,Incorrect
2,new_learn,68,808,A,44.56705645694211,77.81472038725781,2.2283528228471057,1.2223107695487652,A,1201,Correct
2,new_learn,68,809,B,13.424234048465863,64.6603226264572,0.6712117024232931,1.0156819727101192,B,1342,Correct
2,new_learn,68,810,B,55.96513473428161,19.682861623114007,2.7982567367140807,0.3091776673839972,A,2182,Incorrect
2,new_learn,68,811,B,31.377331273811002,58.960890197611434,1.56886656369055,0.9261554974696526,B,1774,Correct
2,new_learn,68,812,A,78.17229891945699,45.29733237098006,3.9086149459728494,0.7115288330194304,B,1423,Incorrect
2,new_learn,68,813,A,85.9928081795599,41.80110532408328,4.299640408977996,0.6566102269903661,A,1325,Correct
2,new_learn,68,814,B,13.160474530648045,65.79012393659384,0.6580237265324023,1.033428850189826,B,2067,Correct
2,new_learn,68,815,A,78.72773070290782,43.30635130154241,3.936386535145391,0.6802545755135221,A,2379,Correct
2,new_learn,68,816,A,78.43050430257458,48.69875913031113,3.921525215128729,0.7649583196136215,A,870,Correct
2,new_learn,68,817,A,51.5679655742,71.64287397354927,2.57839827871,1.1253636327868088,A,1955,Correct
2,new_learn,68,818,B,36.18137958018927,45.91426409130393,1.8090689790094638,0.7212195738211101,A,1637,Incorrect
2,new_learn,68,819,B,44.72488078980279,30.28967686755665,2.2362440394901397,0.47578913163362335,B,1093,Correct
2,new_learn,68,820,B,32.983247150411714,51.57451652274229,1.6491623575205858,0.810130611101463,A,5193,Incorrect
2,new_learn,68,821,B,60.831617962271324,13.031340375126902,3.041580898113566,0.20469581594463368,B,2615,Correct
2,new_learn,68,822,A,64.12321801163488,61.42577184721915,3.206160900581744,0.9648737678815321,A,1186,Correct
2,new_learn,68,823,B,35.12650776009988,41.36500503343785,1.7563253880049938,0.649759979643766,A,770,Incorrect
2,new_learn,68,824,B,28.79030218137882,49.511459497517386,1.439515109068941,0.777724187129546,A,780,Incorrect
2,new_learn,68,825,B,57.03448390875933,33.32725592300213,2.8517241954379666,0.5235033118600521,B,3138,Correct
2,new_learn,68,826,A,82.55172924473365,38.40961105182763,4.127586462236683,0.603336759538315,B,951,Incorrect
2,new_learn,68,827,B,55.04376424635899,19.84143047270277,2.7521882123179493,0.3116684610487784,B,1125,Correct
2,new_learn,68,828,B,48.96063958690502,41.96751462232597,2.448031979345251,0.6592241781346074,B,850,Correct
2,new_learn,68,829,B,22.876608054848155,53.556773605598686,1.1438304027424078,0.841267832546603,B,1173,Correct
2,new_learn,68,830,A,63.285972525651836,51.98566725544276,3.1642986262825916,0.8165889517083122,B,841,Incorrect
2,new_learn,68,831,B,57.61401080264663,18.590300960401933,2.880700540132332,0.29201576462610995,A,1300,Incorrect
2,new_learn,68,832,B,55.58220878143897,31.261596644353034,2.7791104390719488,0.4910560117869341,A,883,Incorrect
2,new_learn,68,833,B,51.47050938645609,39.19433385443933,2.5735254693228047,0.6156631564972616,B,870,Correct
2,new_learn,68,834,A,46.80506669824426,79.78074900347718,2.340253334912213,1.2531930748360756,A,1171,Correct
2,new_learn,68,835,A,68.55718866915043,46.236956479991434,3.4278594334575216,0.7262884140094603,A,1683,Correct
2,new_learn,68,836,B,42.73052852345292,24.93812005023743,2.1365264261726455,0.39172707372083115,A,1438,Incorrect
2,new_learn,68,837,B,16.247211551644227,53.99298952711463,0.8123605775822114,0.8481198962186699,B,1123,Correct
2,new_learn,68,838,B,23.104772856557936,47.85541411626123,1.1552386428278967,0.7517110871107178,B,523,Correct
2,new_learn,68,839,A,61.425490540838325,46.76511512547901,3.071274527041916,0.7345847106124288,B,1201,Incorrect
2,new_learn,68,840,A,42.545021079116125,67.47079375979371,2.1272510539558063,1.0598287500381998,B,974,Incorrect
2,new_learn,68,841,A,84.15585516895294,31.064049226101957,4.207792758447647,0.48795294419736807,A,985,Correct
2,new_learn,68,842,B,44.98626099463994,24.87680891832187,2.249313049731997,0.3907640007127852,A,724,Incorrect
2,new_learn,68,843,A,45.46151061517423,76.66311105248894,2.2730755307587116,1.2042213324191886,A,1049,Correct
2,new_learn,68,844,A,78.85043812917517,48.370412945421414,3.942521906458759,0.7598006698022028,A,3305,Correct
2,new_learn,68,845,A,74.15383440916301,37.20685481671569,3.70769172045815,0.5844439087768802,B,1480,Incorrect
2,new_learn,68,846,B,36.12028737869069,50.189062521238995,1.8060143689345347,0.7883679505364163,A,1786,Incorrect
2,new_learn,68,847,A,36.43981385441785,85.84141793614242,1.8219906927208924,1.3483938398095807,B,997,Incorrect
2,new_learn,68,848,A,57.97620571925903,70.655565620517,2.8988102859629516,1.1098550294432388,A,2431,Correct
2,new_learn,68,849,A,71.94818213704109,53.21171008446483,3.5974091068520546,0.8358475874315232,A,1599,Correct
2,new_learn,68,850,B,17.301525743147565,55.39164031179913,0.8650762871573783,0.8700898513691819,B,1696,Correct
2,new_learn,68,851,A,68.89510212188462,49.026179833083056,3.444755106094231,0.7701014319859291,A,1988,Correct
2,new_learn,68,852,A,37.756937973838305,78.90375329888602,1.8878468986919155,1.2394172585222085,A,1894,Correct
2,new_learn,68,853,B,15.42549083145419,69.07563216035047,0.7712745415727096,1.0850374926851394,B,1108,Correct
2,new_learn,68,854,A,84.21027620553501,36.15565871263664,4.21051381027675,0.5679317589865952,A,1634,Correct
2,new_learn,68,855,A,69.4082538848122,62.95773279310577,3.47041269424061,0.9889377541474513,B,3591,Incorrect
2,new_learn,68,856,A,58.68766761899174,51.301373307735524,2.934383380949587,0.8058400875132471,B,2416,Incorrect
2,new_learn,68,857,B,63.487978142998855,10.853788613116848,3.1743989071499423,0.1704909128529222,B,872,Correct
2,new_learn,68,858,A,71.75960653773004,50.83901716905187,3.5879803268865023,0.7985774142700937,A,939,Correct
2,new_learn,68,859,A,50.631208958711085,57.535773701603624,2.5315604479355542,0.9037698198978139,A,558,Correct
2,new_learn,68,860,A,74.4487607727523,55.135720094068674,3.7224380386376144,0.8660698659895464,A,605,Correct
2,new_learn,68,861,A,65.293149039195,59.05325024940458,3.2646574519597498,0.9276062857706451,A,924,Correct
2,new_learn,68,862,A,78.37917690030586,42.16219051423519,3.9189588450152932,0.6622821398938726,A,754,Correct
2,new_learn,68,863,A,80.4728676775077,36.734713180382585,4.023643383875385,0.5770275252960904,B,1807,Incorrect
2,new_learn,68,864,A,70.63477201433112,52.8980775742625,3.5317386007165563,0.8309210594816303,A,887,Correct
2,new_learn,68,865,B,40.5397884787121,32.522822067512124,2.0269894239356048,0.5108672944065205,B,2493,Correct
2,new_learn,68,866,A,75.26985472054261,38.39165002893196,3.7634927360271306,0.6030546284504151,A,1122,Correct
2,new_learn,68,867,A,78.78410830165666,44.40501417591454,3.939205415082833,0.6975123315880186,A,1354,Correct
2,new_learn,68,868,A,66.62929871041949,65.3595763944396,3.331464935520975,1.0266658252125616,A,939,Correct
2,new_learn,68,869,A,66.99938056268863,58.94168475105,3.349969028134432,0.925853819020521,A,700,Correct
2,new_learn,68,870,B,22.49457523144477,56.64912816930317,1.1247287615722386,0.8898424244447471,B,904,Correct
2,new_learn,68,871,A,48.48438936546808,58.855052215106916,2.424219468273404,0.9244929983281178,B,1095,Incorrect
2,new_learn,68,872,B,51.4793388767496,18.78030473802899,2.57396694383748,0.29500033698584727,A,1784,Incorrect
2,new_learn,68,873,A,81.1083495498499,47.02512513923867,4.055417477492495,0.7386689383578644,A,889,Correct
2,new_learn,68,874,B,39.21724696332184,46.774268201284,1.9608623481660918,0.7347284867909624,B,515,Correct
2,new_learn,68,875,B,45.08175126093852,35.308651476610876,2.2540875630469257,0.5546270004354156,B,462,Correct
2,new_learn,68,876,A,62.58430877599436,51.672000733313965,3.129215438799718,0.8116618895003277,B,1773,Incorrect
2,new_learn,68,877,B,54.022278103079856,22.220827491511784,2.701113905153993,0.34904394202009764,A,767,Incorrect
2,new_learn,68,878,B,46.08145645284655,28.942263656176607,2.3040728226423277,0.45462401440251643,A,2976,Incorrect
2,new_learn,68,879,A,75.75032668352327,50.286165937459,3.7875163341761633,0.7898932474315924,A,1459,Correct
2,new_learn,68,880,B,10.939163639160341,65.49549608045783,0.546958181958017,1.0288008466479268,B,1018,Correct
2,new_learn,68,881,B,61.5077363902242,25.52601989255855,3.0753868195112104,0.40096178284924433,B,767,Correct
2,new_learn,68,882,B,20.5109622649578,53.439530460802274,1.02554811324789,0.8394261815347219,B,850,Correct
2,new_learn,68,883,B,15.290780083036061,60.40463483017212,0.764539004151803,0.9488337851262143,B,459,Correct
2,new_learn,68,884,B,34.428374638634466,46.16367744944101,1.7214187319317233,0.7251373496892634,B,468,Correct
2,new_learn,68,885,B,23.860385689206108,49.159231230875946,1.1930192844603054,0.772191398455209,B,418,Correct
2,new_learn,68,886,B,13.867996768727068,58.25747332300928,0.6933998384363533,0.9151062510413466,B,444,Correct
2,new_learn,68,887,B,26.958553387486496,46.05943805692225,1.3479276693743247,0.7234999611405052,B,364,Correct
2,new_learn,68,888,B,25.680884837072448,42.33750689835336,1.2840442418536224,0.6650360032158706,B,331,Correct
2,new_learn,68,889,B,55.04680494056411,35.92552788970781,2.7523402470282052,0.5643168724732063,B,319,Correct
2,new_learn,68,890,A,40.17076447028792,78.15768054979421,2.008538223514396,1.227697975184257,A,614,Correct
2,new_learn,68,891,B,26.007230833639277,46.89700540582477,1.3003615416819638,0.7366564382914995,A,2853,Incorrect
2,new_learn,68,892,A,67.43951053505995,65.8646742592763,3.371975526752998,1.0345998839201358,A,3088,Correct
2,new_learn,68,893,A,43.95503325968093,82.75491048490231,2.1977516629840466,1.2999110941392504,A,1030,Correct
2,new_learn,68,894,A,61.095828144492536,65.76630179352854,3.0547914072246267,1.0330546528415925,A,1149,Correct
2,new_learn,68,895,A,36.757463095566806,73.21049852165861,1.8378731547783402,1.1499878216064454,A,784,Correct
2,new_learn,68,896,A,42.195724723715756,85.31408988327915,2.109786236185788,1.3401105901250454,A,745,Correct
2,new_learn,68,897,B,66.07185417769963,19.81239481077189,3.3035927088849815,0.31121236993770757,B,884,Correct
2,new_learn,68,898,B,67.19243390735485,12.85178662535904,3.3596216953677422,0.20187539223865758,B,992,Correct
