experiment,condition,subject,trial,cat,x,y,xt,yt,resp,rt,fb
2,relearn,67,0,B,59.45005072070074,50.83720852315298,2.972502536035037,0.7985490041267492,A,2899,Incorrect
2,relearn,67,1,B,61.173390511208,35.19548780599325,3.0586695255604,0.5528494296540878,A,6952,Incorrect
2,relearn,67,2,A,27.933737732485213,41.19027717725553,1.3966868866242605,0.6470153608969665,B,3702,Incorrect
2,relearn,67,3,A,57.15187238395618,83.855323822497,2.857593619197809,1.317196346425749,B,1399,Incorrect
2,relearn,67,4,B,45.74785914120888,16.368442541371063,2.287392957060444,0.2571148941933899,B,1594,Correct
2,relearn,67,5,B,68.98565291601797,50.706964974534216,3.4492826458008983,0.7965031432491583,B,3103,Correct
2,relearn,67,6,A,56.89688719614719,83.96012757028042,2.8448443598073596,1.3188425998462743,A,1396,Correct
2,relearn,67,7,A,21.73884710524779,45.52092161563506,1.0869423552623894,0.7150409646615796,A,1081,Correct
2,relearn,67,8,B,35.827958221030286,19.310305902600064,1.7913979110515144,0.30332557581089986,B,2318,Correct
2,relearn,67,9,B,37.116898740892715,25.289692216096576,1.8558449370446357,0.3972495563881799,A,3586,Incorrect
2,relearn,67,10,B,80.79296089003233,67.33791441869198,4.039648044501616,1.0577414862291046,107,1544,Incorrect
2,relearn,67,11,A,22.054914080204835,45.94717897712661,1.1027457040102417,0.7217365996385816,100,487,Incorrect
2,relearn,67,12,A,20.558295614433042,49.828926990039314,1.027914780721652,0.7827109548408485,A,1191,Correct
2,relearn,67,13,A,54.45435816221324,79.90412614577993,2.7227179081106616,1.2551310784554717,B,799,Incorrect
2,relearn,67,14,A,22.98234117258747,44.27194430564765,1.1491170586293735,0.6954220749537956,A,1219,Correct
2,relearn,67,15,B,34.02127674409839,11.641984808498552,1.7010638372049192,0.18287186973791514,B,1325,Correct
2,relearn,67,16,A,59.681041122798085,83.68869816955964,2.984052056139904,1.3145789967899106,A,597,Correct
2,relearn,67,17,B,50.258374521656506,40.97188239495825,2.512918726082825,0.6435848236787292,B,1211,Correct
2,relearn,67,18,B,83.99695302772069,66.74966606022151,4.199847651386034,1.0485013026218193,A,786,Incorrect
2,relearn,67,19,A,43.23209983214152,58.763150559629494,2.161604991607076,0.9230494104996148,A,1375,Correct
2,relearn,67,20,B,41.357162217212775,25.584436082283116,2.0678581108606386,0.40187938221169134,B,1137,Correct
2,relearn,67,21,A,48.783410974500796,75.06494063100462,2.4391705487250395,1.1791173301425903,B,1047,Incorrect
2,relearn,67,22,A,55.7576772536384,81.38458379478318,2.7878838626819196,1.2783860528257691,B,700,Incorrect
2,relearn,67,23,A,28.5013625465157,47.16609476202504,1.425068127325785,0.7408832840144894,A,859,Correct
2,relearn,67,24,B,86.34097853256138,58.28771200498851,4.317048926628069,0.9155812391471474,B,766,Correct
2,relearn,67,25,A,20.014461664713263,48.6177186586424,1.0007230832356633,0.7636853388614319,A,834,Correct
2,relearn,67,26,A,17.117409732244294,32.695463744693214,0.8558704866122148,0.5135791435301982,A,712,Correct
2,relearn,67,27,A,60.08949684508369,79.57819415765621,3.0044748422541843,1.2500113507581747,B,702,Incorrect
2,relearn,67,28,A,69.85161532017958,88.13003512721124,3.4925807660089787,1.3843433545812862,A,1033,Correct
2,relearn,67,29,B,53.72326286567261,43.098393227778416,2.6861631432836304,0.6769879777295639,B,1049,Correct
2,relearn,67,30,B,66.63433623786037,44.26502331016992,3.3317168118930183,0.6953133602110538,107,981,Incorrect
2,relearn,67,31,B,49.96983202077534,24.36970549659322,2.498491601038767,0.38279843879122033,B,3922,Correct
2,relearn,67,32,A,37.040965236750345,53.99323740335864,1.8520482618375171,0.8481237898496057,A,1176,Correct
2,relearn,67,33,A,30.752402828569167,58.28206565661366,1.5376201414284583,0.9154925465142773,A,1716,Correct
2,relearn,67,34,B,52.03753518924495,30.248602514441025,2.6018767594622476,0.47514393720362835,B,1697,Correct
2,relearn,67,35,A,19.03359290733561,45.635483805573806,0.9516796453667805,0.7168405033330332,A,786,Correct
2,relearn,67,36,B,63.63880821457067,35.822221581931416,3.1819404107285334,0.5626941407853073,100,3172,Correct
2,relearn,67,37,A,30.549001597252452,44.91168108227541,1.5274500798626227,0.7054710367422206,107,755,Correct
2,relearn,67,38,B,54.556006821495,37.95619670846753,2.72780034107475,0.5962145436876534,100,563,Correct
2,relearn,67,39,B,46.29967813106032,19.861079106319732,2.314983906553016,0.31197710106389903,100,502,Correct
2,relearn,67,40,B,58.13204836781658,29.28565344508432,2.906602418390829,0.4600179685932676,100,486,Correct
2,relearn,67,41,A,37.764415371567864,67.47524032722727,1.8882207685783932,1.0598985965561147,107,550,Correct
2,relearn,67,42,A,31.955503843789366,49.53790344567543,1.5977751921894683,0.7781395676958722,100,707,Incorrect
2,relearn,67,43,B,33.60642630643808,18.247394674202592,1.680321315321904,0.2866294052781419,107,539,Incorrect
2,relearn,67,44,A,30.224345296296477,56.98919422773014,1.5112172648148237,0.8951841695991943,A,860,Correct
2,relearn,67,45,A,46.307875719147816,64.4180593759666,2.315393785957391,1.011876510470239,100,805,Incorrect
2,relearn,67,46,A,47.186735975750636,56.62163243301371,2.359336798787532,0.8894105224290871,100,1631,Incorrect
2,relearn,67,47,A,63.002505643045446,77.92293875725207,3.1501252821522723,1.2240106597295524,A,1720,Correct
2,relearn,67,48,B,83.23726717614718,66.60718890047546,4.161863358807359,1.0462632766300066,107,775,Incorrect
2,relearn,67,49,A,48.36020506290016,74.49451059982124,2.418010253145008,1.170157036165827,A,1559,Correct
2,relearn,67,50,B,56.70488137164584,36.769456884665324,2.835244068582292,0.5775732781267561,B,951,Correct
2,relearn,67,51,B,50.494124291030104,42.4445567605497,2.5247062145515056,0.6667175385190897,107,1275,Incorrect
2,relearn,67,52,B,63.050025959232464,45.97262458290679,3.152501297961623,0.7221362982795074,107,1148,Incorrect
2,relearn,67,53,A,20.380620002065157,51.303016638539155,1.0190310001032579,0.8058659008931477,A,686,Correct
2,relearn,67,54,B,48.145507102181796,22.53629756932401,2.40727535510909,0.3539993344145091,A,1030,Incorrect
2,relearn,67,55,A,43.6501883594885,57.402215810391674,2.1825094179744253,0.9016718974485117,100,860,Incorrect
2,relearn,67,56,A,57.34834524128354,84.8971246960061,2.867417262064177,1.333560916279347,B,906,Incorrect
2,relearn,67,57,A,48.84140768949577,76.45609797598887,2.4420703844747886,1.2009695786175403,A,809,Correct
2,relearn,67,58,B,53.147615786846444,46.44010946739985,2.6573807893423225,0.7294795336734458,A,2578,Incorrect
2,relearn,67,59,B,45.06134528438014,29.080324301449565,2.253067264219007,0.4567926659472134,107,1211,Incorrect
2,relearn,67,60,A,50.538527290138845,75.61724187616947,2.5269263645069424,1.1877928578144825,100,3289,Incorrect
2,relearn,67,61,B,37.69883429672416,24.37006013192397,1.884941714836208,0.38280400938996934,A,1244,Incorrect
2,relearn,67,62,A,25.360670161481952,46.495559208302005,1.2680335080740976,0.7303505361667543,A,736,Correct
2,relearn,67,63,B,58.99406557990846,48.47011837165137,2.9497032789954227,0.7613668389750381,107,1202,Correct
2,relearn,67,64,B,84.01356377394845,64.9859128133134,4.200678188697423,1.020796331405661,B,763,Correct
2,relearn,67,65,A,44.140881740034374,75.34472812914056,2.207044087001719,1.1835122218861411,A,810,Correct
2,relearn,67,66,A,54.64979424379391,80.61486805924042,2.732489712189696,1.266295386325101,B,710,Incorrect
2,relearn,67,67,A,27.24840392713096,43.64817903764775,1.362420196356548,0.6856239930362309,A,612,Correct
2,relearn,67,68,A,22.754403724055653,37.52801201517747,1.1377201862027826,0.589488634253555,A,520,Correct
2,relearn,67,69,A,13.103625170388767,34.520342714931516,0.6551812585194383,0.5422442753631539,A,667,Correct
2,relearn,67,70,A,42.009258972040826,58.75364917547097,2.100462948602041,0.9229001631062579,A,1228,Correct
2,relearn,67,71,B,55.9157547476547,42.17203011659731,2.795787737382735,0.6624367000063481,B,662,Correct
2,relearn,67,72,B,58.20910716827531,26.49259191176476,2.910455358413765,0.41614466062276273,B,535,Correct
2,relearn,67,73,A,19.609970302584752,43.141642754661405,0.9804985151292377,0.677667339709198,A,585,Correct
2,relearn,67,74,B,61.4760631956935,45.92828602972132,3.0738031597846747,0.7214398299147161,B,601,Correct
2,relearn,67,75,B,39.55274234229822,28.251677742469465,1.9776371171149107,0.4437763162366417,A,1186,Incorrect
2,relearn,67,76,A,57.40892688507793,68.97316982096322,2.8704463442538963,1.0834280180216964,B,617,Incorrect
2,relearn,67,77,A,36.960953737738215,50.66252440024757,1.8480476868869107,0.795805072340657,A,903,Correct
2,relearn,67,78,B,78.21151536344433,65.64133535361046,3.9105757681722166,1.031091684593633,B,748,Correct
2,relearn,67,79,B,70.59415525511284,58.93629482896064,3.5297077627556415,0.9257691543223244,B,850,Correct
2,relearn,67,80,B,37.37143116054452,22.94302558658954,1.868571558027226,0.3603882031697617,107,846,Incorrect
2,relearn,67,81,A,39.41469334428006,67.0721052328634,1.9707346672140031,1.0535661653018258,A,1380,Correct
2,relearn,67,82,B,44.032832614494886,29.899090631377454,2.2016416307247444,0.46965381738275414,A,1256,Incorrect
2,relearn,67,83,B,66.85676810864408,53.01628857558718,3.342838405432204,0.8327779135483057,B,873,Correct
2,relearn,67,84,A,28.050100410830247,53.636356129642664,1.4025050205415124,0.8425179119110564,A,653,Correct
2,relearn,67,85,B,59.04193071819951,43.37986292788601,2.9520965359099756,0.6814092934398945,B,1220,Correct
2,relearn,67,86,A,29.263479160966178,41.48859034427154,1.4631739580483087,0.6517012531667995,B,698,Incorrect
2,relearn,67,87,B,82.99631782840065,61.811167597075624,4.149815891420032,0.9709275501639011,B,698,Correct
2,relearn,67,88,B,42.886290020959464,18.517314856288298,2.144314501047973,0.29086930158362223,B,1525,Correct
2,relearn,67,89,A,65.93150905894488,81.77308543645431,3.296575452947244,1.284488622342677,B,765,Incorrect
2,relearn,67,90,B,71.82521837182273,53.11828112804868,3.5912609185911366,0.8343800088159755,B,834,Correct
2,relearn,67,91,A,29.291703191180062,52.27240043021678,1.4645851595590031,0.821092945885365,A,890,Correct
2,relearn,67,92,B,42.949581969494886,25.733964247221543,2.1474790984747445,0.40422816513406795,A,2086,Incorrect
2,relearn,67,93,A,66.3157999345366,86.4931570731086,3.3157899967268296,1.35863133423333,B,944,Incorrect
2,relearn,67,94,B,84.34998128378145,60.44616513949456,4.217499064189073,0.9494861416995578,107,112,Correct
2,relearn,67,95,A,50.58425422367406,71.47228470066182,2.529212711183703,1.1226840227543866,100,993,Incorrect
2,relearn,67,96,B,84.46134535895902,58.08651968548739,4.223067267947951,0.9124209175826304,B,2874,Correct
2,relearn,67,97,B,38.338746006715354,20.24330211733464,1.9169373003357677,0.317981046081086,A,849,Incorrect
2,relearn,67,98,A,31.799852494502794,63.7936922225024,1.5899926247251397,1.0020689741579094,A,1088,Correct
2,relearn,67,99,B,58.17401245410799,35.909796472724274,2.9087006227053998,0.5640697639530762,B,778,Correct
2,relearn,67,100,B,82.30741756742006,54.19485616585994,4.115370878371003,0.8512908099651055,B,606,Correct
2,relearn,67,101,A,21.429901157023522,43.97590814235622,1.0714950578511762,0.6907719497748293,A,617,Correct
2,relearn,67,102,A,34.99327096826082,60.70003358426831,1.7496635484130412,0.9534738979049553,A,944,Correct
2,relearn,67,103,A,48.199688832076966,64.73906555550319,2.4099844416038483,1.0169188637471842,100,874,Incorrect
2,relearn,67,104,A,25.866149400934177,39.741552477305895,1.2933074700467089,0.6242588465247871,A,2651,Correct
2,relearn,67,105,A,51.3546836395639,71.19988221413774,2.5677341819781954,1.1184051345019685,B,1293,Incorrect
2,relearn,67,106,A,47.00743981660941,74.94003076291463,2.3503719908304705,1.1771552505228287,B,1319,Incorrect
2,relearn,67,107,B,71.55293183103785,55.58513450347404,3.577646591551893,0.873129251024573,107,3618,Correct
2,relearn,67,108,B,56.965233840135944,37.827108290889605,2.848261692006797,0.5941868275660216,A,1081,Incorrect
2,relearn,67,109,A,26.359488529190067,42.723617081032,1.3179744264595032,0.6711010077827678,A,2590,Correct
2,relearn,67,110,A,46.298329796073084,71.26667814817183,2.3149164898036543,1.1194543625802245,B,1433,Incorrect
2,relearn,67,111,B,75.17777897435171,62.53287857054551,3.7588889487175856,0.9822641596252419,B,1286,Correct
2,relearn,67,112,A,36.140416321739814,62.685613386341416,1.8070208160869907,0.984663312501501,B,1194,Incorrect
2,relearn,67,113,A,49.47371743600731,78.10132755012071,2.473685871800366,1.2268127843353467,107,3065,Incorrect
2,relearn,67,114,A,16.200101365750893,37.6172589904354,0.8100050682875447,0.5908905224626823,A,604,Correct
2,relearn,67,115,A,62.07578137240861,77.26478715039023,3.103789068620431,1.213672438464225,B,1620,Incorrect
2,relearn,67,116,B,60.63426154328778,32.31675565090886,3.031713077164389,0.5076304107037585,107,2332,Incorrect
2,relearn,67,117,B,39.744357094812386,30.504935114503088,1.9872178547406194,0.479170400269781,107,753,Incorrect
2,relearn,67,118,B,58.92139765027987,48.9725785295782,2.9460698825139935,0.7692594646793606,100,15,Correct
2,relearn,67,119,A,55.26658531056149,66.89344608575851,2.763329265528075,1.0507597939816191,107,1321,Correct
2,relearn,67,120,B,46.21028039463866,35.18024648991655,2.310514019731933,0.5526100196209996,100,935,Correct
2,relearn,67,121,B,61.69535323855977,54.3884714998904,3.0847676619279882,0.8543321125201676,100,468,Correct
2,relearn,67,122,B,86.2665844207921,60.87120512155572,4.313329221039606,0.956162654125184,100,521,Correct
2,relearn,67,123,A,57.89611349162753,65.67240761350175,2.894805674581377,1.0315797665106574,100,511,Incorrect
2,relearn,67,124,A,53.21004103909135,78.97159432883318,2.660502051954568,1.2404829029286784,100,749,Incorrect
2,relearn,67,125,B,81.90217526530665,60.49531511816657,4.0951087632653325,0.9502581877591583,100,848,Correct
2,relearn,67,126,B,65.08790879274719,44.01359088110753,3.254395439637359,0.6913638688509707,100,772,Correct
2,relearn,67,127,B,37.85383462208425,14.333854797809693,1.8926917311042126,0.2251556646521087,100,672,Correct
2,relearn,67,128,B,66.47430872066273,36.856423484943384,3.3237154360331367,0.5789393462894623,100,614,Correct
2,relearn,67,129,A,31.976484380626225,63.48438985088684,1.5988242190313113,0.9972104638658826,100,606,Incorrect
2,relearn,67,130,A,66.53670343827169,87.2293145458926,3.3268351719135842,1.3701948687752474,100,383,Incorrect
2,relearn,67,131,A,55.571843348939446,63.4726659822312,2.778592167446972,0.9970263057676814,100,756,Incorrect
2,relearn,67,132,B,43.470426907109946,18.836375732109225,2.1735213453554976,0.295881098101257,100,850,Correct
2,relearn,67,133,A,34.94834886682833,57.37929831631727,1.7474174433414165,0.9013119102933976,A,18693,Correct
2,relearn,67,134,A,56.620520347020076,69.18525267352318,2.831026017351004,1.08675940767947,B,1213,Incorrect
2,relearn,67,135,B,76.21205306176971,57.91491853128905,3.810602653088486,0.9097254129557453,107,1871,Incorrect
2,relearn,67,136,A,33.23211290476096,51.541093244159065,1.6616056452380479,0.8096055994691832,A,473,Correct
2,relearn,67,137,B,36.88565604624172,20.14736712821074,1.8442828023120859,0.3164741027958168,A,683,Incorrect
2,relearn,67,138,B,70.71859885398578,50.503156462683016,3.535929942699289,0.7933017266313044,B,818,Correct
2,relearn,67,139,A,30.427169310756973,59.97114793836278,1.5213584655378485,0.9420245889525358,B,1188,Incorrect
2,relearn,67,140,B,39.460750472669424,28.644466314233085,1.9730375236334712,0.4499462246939748,102,1913,Incorrect
2,relearn,67,141,B,52.024666304944446,21.5179499049257,2.6012333152472222,0.3380031667081388,100,1357,Incorrect
2,relearn,67,142,B,63.20255362763267,45.89251769583673,3.160127681381633,0.7208779822399014,B,718,Correct
2,relearn,67,143,B,70.58816926960674,37.925352833182515,3.529408463480337,0.5957300492276352,B,628,Correct
2,relearn,67,144,B,64.64632090654557,44.03791763151858,3.2323160453272783,0.691745992552856,B,616,Correct
2,relearn,67,145,A,47.5152010538294,69.77072395041068,2.37576005269147,1.0959559689912581,A,635,Correct
2,relearn,67,146,B,78.19111313431421,50.577162967061895,3.9095556567157104,0.794464218083677,B,658,Correct
2,relearn,67,147,A,37.30982837902329,48.79357551312456,1.8654914189511644,0.7664476918720546,B,653,Incorrect
2,relearn,67,148,B,52.455271821851525,27.783034436167384,2.622763591092576,0.4364148843954785,B,728,Correct
2,relearn,67,149,A,24.528961458719635,40.49393149056112,1.2264480729359817,0.6360771884285759,A,646,Correct
2,relearn,67,150,A,63.14376320908666,79.17143950262715,3.157188160454333,1.2436220635779112,100,1207,Incorrect
2,relearn,67,151,A,52.44279026002557,79.75406635180943,2.6221395130012786,1.252773944723787,107,796,Incorrect
2,relearn,67,152,A,56.3046922364275,85.36553093107773,2.815234611821375,1.3409186242143303,100,719,Incorrect
2,relearn,67,153,A,35.160938993300874,57.39283953507457,1.7580469496650437,0.9015246152602406,A,803,Correct
2,relearn,67,154,B,70.21576250823347,56.749379547432284,3.5107881254116733,0.8914171694099606,107,719,Incorrect
2,relearn,67,155,A,68.76677389522095,84.30123522855914,3.4383386947610473,1.3242007064129324,A,278,Correct
2,relearn,67,156,A,20.96605464604851,48.998580063598624,1.0483027323024254,0.7696678958206637,A,752,Correct
2,relearn,67,157,A,47.862562136415264,77.47682648899297,2.393128106820763,1.217003144606357,A,1448,Correct
2,relearn,67,158,B,69.46259934731293,43.21595350104201,3.4731299673656464,0.6788346101837583,B,721,Correct
2,relearn,67,159,A,35.92793745974871,50.61241363836319,1.7963968729874356,0.7950179343336482,100,1833,Incorrect
2,relearn,67,160,B,64.80872044901383,55.128560354114214,3.240436022450692,0.8659574010573337,B,786,Correct
2,relearn,67,161,B,48.411375405233336,28.308112628446978,2.4205687702616667,0.4446627933526074,A,764,Incorrect
2,relearn,67,162,A,19.27339464170023,42.62446166742713,0.9636697320850115,0.669543478188044,A,898,Correct
2,relearn,67,163,A,32.536358974665085,58.66055077402514,1.6268179487332544,0.9214377768360421,A,983,Correct
2,relearn,67,164,A,26.378938273869558,42.696771450285105,1.3189469136934777,0.6706793176010906,100,1307,Incorrect
2,relearn,67,165,B,77.54915712444705,54.51151497575294,3.8774578562223523,0.8562648749193771,B,780,Correct
2,relearn,67,166,A,12.089512342763246,34.96990203150938,0.6044756171381622,0.5493059365947232,A,738,Correct
2,relearn,67,167,A,15.59699136490351,37.5445808173682,0.7798495682451755,0.589748896389761,A,922,Correct
2,relearn,67,168,B,50.87047925422367,23.431612038565422,2.543523962711183,0.3680629012106164,B,6581,Correct
2,relearn,67,169,B,62.94036518571616,52.49722521688537,3.1470182592858076,0.8246244853760797,B,1735,Correct
2,relearn,67,170,B,80.6025808944662,64.38780363826834,4.03012904472331,1.01140125445383,B,1912,Correct
2,relearn,67,171,A,64.9160324685022,89.55527127928308,3.2458016234251095,1.4067309117061837,100,1304,Incorrect
2,relearn,67,172,A,31.63763573455052,59.70806555533818,1.5818817867275259,0.937892100543541,B,1187,Incorrect
2,relearn,67,173,B,76.37387041628776,54.879732644992956,3.818693520814388,0.862048824542409,B,988,Correct
2,relearn,67,174,B,64.9292065846056,48.86088305932356,3.24646032923028,0.7675049563354045,B,784,Correct
2,relearn,67,175,B,47.72677854185747,31.640829387709466,2.3863389270928734,0.4970129857895804,A,1068,Incorrect
2,relearn,67,176,B,48.36595867657284,25.34173646620128,2.418297933828642,0.39806706555713256,A,945,Incorrect
2,relearn,67,177,B,88.97188531108105,64.81030812508905,4.4485942655540525,1.0180379394133532,B,1062,Correct
2,relearn,67,178,B,47.267549459112686,27.32182217027331,2.363377472955634,0.42917017906408683,A,1910,Incorrect
2,relearn,67,179,B,39.35905407119398,12.32760981659419,1.967952703559699,0.1936416421806686,A,4343,Incorrect
2,relearn,67,180,B,38.41707773809842,13.970270433376399,1.920853886904921,0.21944449481078993,B,1136,Correct
2,relearn,67,181,B,88.9889029721229,69.34002839600039,4.449445148606145,1.0891906190429124,B,905,Correct
2,relearn,67,182,A,17.325465943560552,32.438593770167664,0.8662732971780275,0.5095442394057118,A,965,Correct
2,relearn,67,183,A,49.3422746349588,77.1175181641247,2.46711373174794,1.211359142637458,B,942,Incorrect
2,relearn,67,184,A,28.171585917946224,54.225282070753266,1.4085792958973113,0.8517687389615639,B,1093,Incorrect
2,relearn,67,185,B,73.42848924294351,42.83277690331022,3.6714244621471757,0.6728156862614498,B,687,Correct
2,relearn,67,186,A,35.363515291000226,43.601096919242906,1.7681757645500114,0.6848844288497503,B,1787,Incorrect
2,relearn,67,187,B,56.6325337080664,43.25352573171599,2.83162668540332,0.6794247934030802,107,2014,Incorrect
2,relearn,67,188,B,44.07222582770758,25.275014860073753,2.203611291385379,0.3970190050189028,100,2243,Correct
2,relearn,67,189,A,38.21164779787589,68.03420742205402,1.9105823898937944,1.0686788311496456,100,1149,Incorrect
2,relearn,67,190,B,45.18771624997427,25.876738330682496,2.2593858124987136,0.4064708551926876,B,577,Correct
2,relearn,67,191,B,72.02359334492155,40.33533957097923,3.6011796672460776,0.6335860323811902,A,1802,Incorrect
2,relearn,67,192,A,51.75578036415398,74.01588845309962,2.587789018207699,1.1626388570658968,A,1252,Correct
2,relearn,67,193,A,29.378964139531472,50.58948885791483,1.4689482069765736,0.7946578327244397,A,1561,Correct
2,relearn,67,194,A,23.11353890049287,50.29737730661007,1.1556769450246436,0.790069355206401,A,31523,Correct
2,relearn,67,195,B,75.89778389158369,44.90020893802764,3.7948891945791843,0.705290832721772,B,1255,Correct
2,relearn,67,196,A,41.763183810364744,66.20376611269093,2.0881591905182373,1.0399263262980336,100,671,Incorrect
2,relearn,67,197,B,79.38036051822883,63.38937743369173,3.969018025911441,0.9957180123065826,100,28,Correct
2,relearn,67,198,A,51.62219771035235,71.5750541199575,2.5811098855176176,1.1242983210177517,100,42,Correct
2,relearn,67,199,B,77.15500638082904,54.62330913537264,3.8577503190414517,0.8580209334722546,107,251,Incorrect
2,relearn,67,200,B,51.41486704863762,27.825722611589036,2.5707433524318812,0.43708542868697753,107,82,Correct
2,relearn,67,201,A,47.325472430927796,62.981754749653525,2.3662736215463895,0.9893150901585279,100,436,Correct
2,relearn,67,202,A,56.37301622744036,78.63579109406058,2.818650811372018,1.235208118051612,107,265,Correct
2,relearn,67,203,B,47.58174815910406,35.07498819131588,2.3790874079552027,0.5509566261329336,100,365,Correct
2,relearn,67,204,A,53.554505037010934,64.4687106516436,2.6777252518505468,1.012672138848048,107,178,Correct
2,relearn,67,205,A,30.157780770191934,56.11196299257742,1.5078890385095969,0.8814046535799178,100,1243,Correct
2,relearn,67,206,B,44.217475981903746,30.482529649525883,2.2108737990951877,0.4788184560489179,107,98,Incorrect
2,relearn,67,207,B,41.09223798834231,32.246411145971024,2.0546118994171154,0.506525441804093,107,125,Correct
2,relearn,67,208,B,56.711804035976066,24.7627760767906,2.8355902017988033,0.38897277702667216,107,621,Incorrect
2,relearn,67,209,A,32.54949374483592,48.95856799320699,1.6274746872417962,0.7690393876886772,107,174,Incorrect
2,relearn,67,210,B,65.82548732248125,39.020713999473706,3.2912743661240627,0.6129359421928748,100,419,Correct
2,relearn,67,211,A,27.288462357386507,47.910963548582444,1.3644231178693251,0.752583655553175,107,70,Incorrect
2,relearn,67,212,B,49.90102630569962,40.627374516017234,2.495051315284981,0.6381733065708045,107,96,Correct
2,relearn,67,213,B,38.445126427075586,19.61770998654918,1.9222563213537793,0.3081542678699901,100,47,Incorrect
2,relearn,67,214,B,77.90949712659081,63.68736004082942,3.8954748563295403,1.0003987121539892,107,333,Correct
2,relearn,67,215,B,58.626356163718576,49.29756161584428,2.931317808185929,0.7743642870611328,100,444,Incorrect
2,relearn,67,216,B,58.726438541060034,34.160719140787954,2.9363219270530014,0.5365953214702183,107,502,Incorrect
2,relearn,67,217,A,15.110528318987093,37.03713924407505,0.7555264159493547,0.581778022795842,100,299,Correct
2,relearn,67,218,A,44.67080697886674,64.61535448998319,2.2335403489433374,1.014975614874157,B,19,Incorrect
2,relearn,67,219,A,68.18899310587923,81.77727167448683,3.409449655293962,1.2845543796159227,107,270,Correct
2,relearn,67,220,B,63.11254477509881,40.41198903807529,3.1556272387549402,0.6347900393948429,100,215,Correct
2,relearn,67,221,B,53.001114364619426,24.447873463508294,2.650055718230971,0.3840262983442525,B,876,Correct
2,relearn,67,222,B,87.05918457489332,64.34797190850759,4.352959228744666,1.010775579105849,B,1862,Correct
2,relearn,67,223,A,52.71125185466805,71.20780633909446,2.635562592733402,1.1185296063657193,100,794,Incorrect
2,relearn,67,224,B,48.171152756531825,31.29153762434555,2.408557637826591,0.4915263236008629,B,972,Correct
2,relearn,67,225,A,31.28118198686694,47.40675139027546,1.5640590993433472,0.7446635094912355,A,7296,Correct
2,relearn,67,226,B,56.57656430985713,48.46443272680335,2.8288282154928566,0.7612775290746108,B,660,Correct
2,relearn,67,227,A,23.71887830354414,34.959015987426696,1.185943915177207,0.5491349390141392,100,806,Correct
2,relearn,67,228,A,45.92143565542151,54.34310423900811,2.2960717827710755,0.8536194852526612,B,14622,Incorrect
2,relearn,67,229,A,65.37457232135023,84.00246025397294,3.2687286160675115,1.3195075600867499,B,7518,Incorrect
2,relearn,67,230,B,37.725786266047734,12.03393403343988,1.8862893133023868,0.1890285937661946,A,1561,Incorrect
2,relearn,67,231,B,84.93171420312609,63.54002427681304,4.246585710156305,0.9980843673847649,B,934,Correct
2,relearn,67,232,A,30.062697016416287,63.169534610800966,1.5031348508208142,0.9922647293198924,A,1166,Correct
2,relearn,67,233,A,14.188283928600843,32.883797909576316,0.7094141964300421,0.5165374896742818,A,702,Correct
2,relearn,67,234,B,36.37572531005961,26.04615699155585,1.8187862655029803,0.40913207729459145,107,1257,Incorrect
2,relearn,67,235,A,39.296371844763826,70.8036039146662,1.9648185922381913,1.1121804095299843,B,807,Incorrect
2,relearn,67,236,A,17.995270905291587,46.92084566596078,0.8997635452645794,0.7370309202220143,A,754,Correct
2,relearn,67,237,B,86.06479527497453,66.80199304133612,4.303239763748726,1.0493232529190901,B,1171,Correct
2,relearn,67,238,A,41.79224391240601,49.94798687252628,2.0896121956203,0.78458114310164,A,3964,Correct
2,relearn,67,239,A,41.29345163385185,73.31985860087754,2.0646725816925926,1.1517056457137964,A,3762,Correct
2,relearn,67,240,B,61.17311219501284,44.681907867796646,3.0586556097506423,0.7018617675292296,B,1227,Correct
2,relearn,67,241,B,67.9200479974717,34.59542702013671,3.3960023998735847,0.5434236968713166,B,896,Correct
2,relearn,67,242,B,37.922308443118865,26.26747502733224,1.8961154221559433,0.41260853287110155,A,1109,Incorrect
2,relearn,67,243,B,58.17260577996083,46.22838575688211,2.9086302889980415,0.7261537854056793,B,8706,Correct
2,relearn,67,244,A,24.853898632790504,51.268182391550965,1.2426949316395253,0.8053187258209906,A,1117,Correct
2,relearn,67,245,A,49.410515272518424,74.02468303488901,2.470525763625921,1.1627770020336015,B,14175,Incorrect
2,relearn,67,246,B,41.593860735556625,14.999641007269894,2.0796930367778312,0.2356138099746165,B,10600,Correct
2,relearn,67,247,A,36.765302019081595,49.907122231943404,1.8382651009540796,0.7839392428284062,A,673,Correct
2,relearn,67,248,B,86.00474641460164,66.42488794945342,4.300237320730082,1.0433996999876403,B,8288,Correct
2,relearn,67,249,B,46.11263194004029,23.689729255885666,2.305631597002014,0.37211739697910806,107,688,Incorrect
2,relearn,67,250,B,40.91088965491296,13.144568484109556,2.045544482745648,0.20647439892143252,A,4177,Incorrect
2,relearn,67,251,B,54.6786914976879,31.567365808796005,2.733934574884395,0.4958590225904758,A,1275,Incorrect
2,relearn,67,252,B,57.72529680933055,45.59823291190373,2.8862648404665276,0.7162553676635653,107,1829,Incorrect
2,relearn,67,253,B,47.480660684371756,30.377970814918623,2.374033034218588,0.47717604971556743,B,1086,Correct
2,relearn,67,254,A,52.11114127776445,71.87676704056777,2.605557063888223,1.1290376164921634,B,2694,Incorrect
2,relearn,67,255,A,33.12649159713158,53.09782956681672,1.656324579856579,0.8340587564433717,A,1309,Correct
2,relearn,67,256,A,67.68788449779223,88.72159375929286,3.384394224889611,1.3936355358448624,A,8464,Correct
2,relearn,67,257,B,36.578232166199754,19.967302008386646,1.828911608309988,0.31364564650778104,A,886,Incorrect
2,relearn,67,258,B,67.27278765831677,57.39870556782486,3.3636393829158386,0.9016167586872107,B,1138,Correct
2,relearn,67,259,A,51.07490803283319,79.26842619093566,2.5537454016416596,1.245145526915341,A,2120,Correct
2,relearn,67,260,B,70.17628646542997,40.81541185440634,3.508814323271498,0.6411269901752236,B,3847,Correct
2,relearn,67,261,A,31.700489446504495,53.21711267442832,1.585024472325225,0.8359324511162214,A,958,Correct
2,relearn,67,262,B,81.50051478587655,61.014058899707976,4.075025739293827,0.9584065960250876,B,422,Correct
2,relearn,67,263,A,61.90295632202883,76.93708837404523,3.0951478161014414,1.2085249581224458,A,793,Correct
2,relearn,67,264,B,55.49169441983566,30.08199771346891,2.774584720991783,0.4725269151096944,100,4947,Correct
2,relearn,67,265,A,42.73013592948279,65.28044937566577,2.1365067964741398,1.02542290090816,B,551,Incorrect
2,relearn,67,266,B,59.29003904848164,28.20928239800356,2.964501952424082,0.4431103717230392,A,487,Incorrect
2,relearn,67,267,A,50.76774306336636,60.18283605365975,2.538387153168318,0.9453497780918819,B,170,Incorrect
2,relearn,67,268,A,56.57847246729317,72.04862296744815,2.8289236233646586,1.13173712307898,107,11669,Incorrect
2,relearn,67,269,A,24.942759720647963,48.49055306890252,1.2471379860323981,0.7616878264488509,100,1043,Incorrect
2,relearn,67,270,A,56.82434672258662,72.13299381486775,2.841217336129331,1.1330624172511323,100,399,Correct
2,relearn,67,271,B,84.51383484610507,66.94463306046808,4.225691742305253,1.0515638371001546,A,4724,Incorrect
2,relearn,67,272,B,62.13117364055584,51.606058942651416,3.106558682027792,0.8106260782747776,B,659,Correct
2,relearn,67,273,B,38.87175036891086,21.592381091858456,1.943587518445543,0.3391723290584684,B,346,Correct
2,relearn,67,274,A,65.61227541389506,87.80755283980693,3.280613770694753,1.379277814656175,100,807,Incorrect
2,relearn,67,275,B,42.66171245662191,27.808321214739838,2.1330856228310955,0.43681208818445927,100,1568,Correct
2,relearn,67,276,B,38.87952279297076,28.648495600918192,1.943976139648538,0.45000951658122057,107,9860,Incorrect
2,relearn,67,277,B,56.019551827389385,38.29369315497869,2.8009775913694694,0.601515925472514,107,435,Correct
2,relearn,67,278,B,75.42979373034093,58.66395890740007,3.7714896865170466,0.9214913116699079,107,633,Incorrect
2,relearn,67,279,B,61.160765177641544,47.22139470713881,3.058038258882077,0.7417519335210563,B,1440,Correct
2,relearn,67,280,A,29.437457410244036,58.79471123949341,1.4718728705122017,0.9235451644996285,B,6303,Incorrect
2,relearn,67,281,B,46.096057989528525,29.583720062338543,2.3048028994764262,0.4646999880684987,A,86,Incorrect
2,relearn,67,282,B,54.99793559891316,24.88981682888448,2.749896779945658,0.39096832849409546,107,14414,Incorrect
2,relearn,67,283,B,47.93803952699967,37.46124831648355,2.3969019763499833,0.5884399125268386,100,286,Correct
2,relearn,67,284,A,35.31384007160685,60.19499977409793,1.7656920035803423,0.9455408453657266,B,2202,Incorrect
2,relearn,67,285,A,29.16332440111711,58.837519593819195,1.4581662200558554,0.9242175965569394,100,293,Incorrect
2,relearn,67,286,B,30.110545952583795,13.137206992395402,1.5055272976291898,0.20635876487998928,B,1209,Correct
2,relearn,67,287,B,50.56897454283236,37.377631488077135,2.528448727141618,0.5871264624576484,107,705,Incorrect
2,relearn,67,288,A,54.7573331330759,62.25451039451401,2.7378666566537952,0.977891562541173,B,457,Incorrect
2,relearn,67,289,B,80.15632200121411,59.76047481358337,4.0078161000607055,0.9387153432469568,A,141,Incorrect
2,relearn,67,290,A,59.81061460436506,87.34957909553412,2.990530730218253,1.3720839799034528,A,402,Correct
2,relearn,67,291,A,49.17361625892587,69.01050466621375,2.4586808129462936,1.0840144723995062,100,583,Correct
2,relearn,67,292,A,34.21259694332773,50.56502986691386,1.7106298471663866,0.7942736317922252,107,4281,Correct
2,relearn,67,293,B,79.51919247708298,62.243095295157,3.9759596238541492,0.9777122545797732,A,8611,Incorrect
2,relearn,67,294,B,69.1274725227455,51.75632333281918,3.4563736261372755,0.8129864257960138,B,613,Correct
2,relearn,67,295,A,16.097827867714685,31.889784366418567,0.8048913933857342,0.500923561450516,A,1172,Correct
2,relearn,67,296,B,33.868592209940545,11.35508198212801,1.6934296104970272,0.1783652106798159,A,1489,Incorrect
2,relearn,67,297,B,54.05921215822661,33.39555946638367,2.70296060791133,0.52457622141056,A,1620,Incorrect
2,relearn,67,298,B,61.28684133631767,44.95080193850111,3.064342066815884,0.7060855457148245,B,624,Correct
2,relearn,67,299,B,39.29007908551348,14.864276034596607,1.964503954275674,0.2334875019560976,B,1509,Correct
2,relearn,67,300,A,29.634526021900115,61.546109528982036,1.4817263010950057,0.9667640277664137,A,993,Correct
2,relearn,67,301,A,33.243943897527494,61.630808136748676,1.6621971948763745,0.9680944703860583,B,1170,Incorrect
2,relearn,67,302,A,55.73879791652895,63.41744938071598,2.7869398958264475,0.9961589654192995,107,7152,Correct
2,relearn,67,303,B,67.43917285570716,36.29191308497002,3.371958642785358,0.5700720376623055,A,673,Correct
2,relearn,67,304,B,51.06623492203305,39.02795142755338,2.5533117461016523,0.613049627447305,B,7439,Correct
2,relearn,67,305,A,55.11845645024968,69.96137010593418,2.7559228225124843,1.098950631799397,B,513,Correct
2,relearn,67,306,A,27.671693884345856,42.50423454578701,1.383584694217293,0.6676549549775098,A,4024,Correct
2,relearn,67,307,A,39.92006991596651,56.75837239220777,1.9960034957983255,0.8915584286853684,100,2279,Correct
2,relearn,67,308,B,71.2597865441659,54.41789408028565,3.562989327208295,0.8547942813322644,B,2341,Correct
2,relearn,67,309,B,74.63899715402236,60.33016614901571,3.7319498577011183,0.9476640338179968,B,4512,Correct
2,relearn,67,310,A,27.91713554147959,55.73328153870909,1.3958567770739794,0.8754563392123007,A,9812,Correct
2,relearn,67,311,B,68.46723821637023,56.04478180066586,3.4233619108185116,0.880349373885074,107,6076,Correct
2,relearn,67,312,B,38.308519365803406,18.18202109514924,1.9154259682901704,0.28560251949967747,107,636,Incorrect
2,relearn,67,313,A,22.785821526377372,39.3044457707682,1.1392910763188686,0.6173927904343189,A,634,Correct
2,relearn,67,314,B,41.85327165251573,14.751820849187794,2.0926635826257867,0.2317210600344056,B,462,Incorrect
2,relearn,67,315,B,68.51601586306751,37.70818141207783,3.4258007931533756,0.5923187285220745,B,614,Correct
2,relearn,67,316,A,64.49321976497913,77.39644197882606,3.2246609882489565,1.215740467673343,B,631,Incorrect
2,relearn,67,317,B,44.48092669808585,31.968461536102268,2.2240463349042927,0.5021594195419338,100,1227,Incorrect
2,relearn,67,318,B,55.637860452316545,37.16152463576666,2.781893022615827,0.5837318639596033,A,585,Correct
2,relearn,67,319,A,31.45540584964755,40.587021983321,1.5727702924823777,0.6375394504694435,A,1390,Correct
2,relearn,67,320,A,60.424564687952184,74.77303903316316,3.021228234397609,1.1745321505658413,B,706,Incorrect
2,relearn,67,321,A,56.7809250731194,79.60422611474195,2.8390462536559697,1.2504202597838703,A,1202,Correct
2,relearn,67,322,A,48.91558035544331,77.49480560119751,2.4457790177721654,1.2172855598404564,A,24880,Correct
2,relearn,67,323,A,59.84232873665954,80.0529995381926,2.9921164368329767,1.2574695762350647,B,524,Incorrect
2,relearn,67,324,B,31.16616037532509,11.666925793142049,1.5583080187662546,0.18326364180856167,A,750,Correct
2,relearn,67,325,B,67.27993912720477,38.32028045772974,3.3639969563602388,0.6019335578475212,B,664,Incorrect
2,relearn,67,326,A,17.00907869170002,45.678385482843495,0.8504539345850008,0.7175144013037189,A,1035,Incorrect
2,relearn,67,327,B,74.92198588904401,61.90950494959386,3.7460992944522,0.9724722296851251,B,2140,Correct
2,relearn,67,328,A,11.953368456307704,36.480494815416165,0.5976684228153851,0.5730342725571598,A,779,Incorrect
2,relearn,67,329,B,60.22742855180643,43.28970271889406,3.0113714275903214,0.6799930601888184,B,822,Correct
2,relearn,67,330,A,26.111561917153438,48.787151829381905,1.305578095857672,0.7663467888837802,B,721,Correct
2,relearn,67,331,B,38.54201422748227,19.510794181437653,1.9271007113741134,0.306474838330535,107,657,Incorrect
2,relearn,67,332,B,71.99980089732824,62.49936375676512,3.599990044866412,0.9817377101614473,B,1928,Incorrect
2,relearn,67,333,B,66.15548386375202,37.23298847977493,3.3077741931876012,0.5848544153962716,A,727,Incorrect
2,relearn,67,334,A,66.41378177307669,83.57403572875842,3.3206890886538347,1.3127778833815917,B,636,Incorrect
2,relearn,67,335,B,71.81909817666075,50.35272203945064,3.5909549088330373,0.7909387082369349,B,636,Incorrect
2,relearn,67,336,A,27.607878171298495,50.018307010646545,1.3803939085649248,0.7856857292482303,107,753,Incorrect
2,relearn,67,337,B,54.53182293463181,34.551655109961686,2.726591146731591,0.5427361293141194,A,1008,Correct
2,relearn,67,338,A,62.76712357275581,78.51871088862266,3.1383561786377903,1.2333690264851893,A,842,Correct
2,relearn,67,339,B,63.71431976464897,34.98839762648415,3.185715988232449,0.5495964647212058,A,625,Incorrect
2,relearn,67,340,B,42.47093278385654,29.997669264936977,2.123546639192827,0.4712022869377117,B,2806,Correct
2,relearn,67,341,B,71.5500424100024,40.93601128190456,3.57750212050012,0.6430213615525013,B,7525,Correct
2,relearn,67,342,B,37.993921277981144,14.443186188825226,1.8996960638990572,0.22687303812621448,A,8380,Correct
2,relearn,67,343,B,32.24088237097019,11.494536715724927,1.6120441185485095,0.1805557605126979,B,1502,Correct
2,relearn,67,344,B,59.093126499504194,50.59884100911064,2.95465632497521,0.7948047359718998,B,842,Correct
2,relearn,67,345,B,66.5099659095604,40.149976063896204,3.32549829547802,0.6306743492207117,A,1325,Correct
2,relearn,67,346,B,52.11350331647034,24.730235590899092,2.605675165823517,0.38846163226956715,B,720,Incorrect
2,relearn,67,347,B,85.6421248021396,62.65274274296745,4.28210624010698,0.9841469816427889,B,1444,Correct
2,relearn,67,348,A,15.477552058226735,36.08639612192692,0.7738776029113368,0.566843784755884,B,4593,Incorrect
2,relearn,67,349,A,19.29599597990735,40.740203796595154,0.9647997989953674,0.6399456247656717,A,9348,Incorrect
2,relearn,67,350,B,73.46757561054677,51.168576198742166,3.6733787805273383,0.8037541154030896,A,273,Incorrect
2,relearn,67,351,B,45.20552554649647,18.54749339871105,2.2602762773248233,0.2913433450194791,B,1096,Correct
2,relearn,67,352,A,14.331398719385426,40.783129722564375,0.7165699359692712,0.6406199036340389,A,1576,Incorrect
2,relearn,67,353,A,20.964475584877214,35.67181474182163,1.0482237792438607,0.5603315556656145,A,1345,Correct
2,relearn,67,354,A,13.04758602762369,39.25397699051281,0.6523793013811846,0.6166000286878891,B,1546,Incorrect
2,relearn,67,355,A,46.39822235746214,73.70599667886192,2.319911117873107,1.1577710884591315,B,641,Correct
2,relearn,67,356,A,62.55845779482529,85.26243665761658,3.1279228897412645,1.3392992231536665,B,2856,Incorrect
2,relearn,67,357,A,29.800746322090756,45.14401853469573,1.4900373161045377,0.7091205849106079,A,5182,Correct
2,relearn,67,358,B,41.41623597474112,23.309399927498212,2.070811798737056,0.3661431978590742,B,1059,Incorrect
2,relearn,67,359,A,29.985137730063872,53.7084898410155,1.4992568865031937,0.8436509855996815,B,1433,Incorrect
2,relearn,67,360,A,43.42680246566239,74.75066929739776,2.1713401232831195,1.1741807675781244,100,558,Incorrect
2,relearn,67,361,A,29.873104523440787,54.253732157221,1.4936552261720393,0.852215631874769,107,29506,Correct
2,relearn,67,362,A,47.76260964989958,58.46939596524165,2.388130482494979,0.9184351241211794,100,27,Correct
2,relearn,67,363,A,13.065278308710667,32.76008280966123,0.6532639154355334,0.5145941774291249,100,836,Incorrect
2,relearn,67,364,A,22.888631754236002,37.11060703607011,1.1444315877118,0.5829320521738777,107,87,Correct
2,relearn,67,365,A,40.78731466848856,69.38856570712595,2.039365733424428,1.089953041343198,107,392,Correct
2,relearn,67,366,B,49.58365806793158,39.56731996703796,2.479182903396579,0.621522008653416,100,320,Incorrect
2,relearn,67,367,B,43.32212440117681,29.913670544052962,2.1661062200588406,0.46988283811551085,100,110,Incorrect
2,relearn,67,368,A,51.36174331793083,70.25493402519233,2.5680871658965416,1.103561923059899,107,777,Incorrect
2,relearn,67,369,A,29.56075377877778,56.54450175934158,1.478037688938889,0.8881989566402132,107,179,Correct
2,relearn,67,370,B,42.84713226904456,24.543591100330858,2.1423566134522276,0.38552982746755626,107,570,Correct
2,relearn,67,371,B,34.93965123806597,22.29459411820102,1.7469825619032986,0.35020266548253265,100,485,Incorrect
2,relearn,67,372,B,52.647468183653345,21.046382486719764,2.6323734091826676,0.3305958030245985,100,23,Correct
2,relearn,67,373,B,86.9864216489363,62.672356689074284,4.349321082446815,0.9844550767877744,100,1264,Correct
2,relearn,67,374,A,12.868902179938331,32.0832561599191,0.6434451089969165,0.5039626092762066,B,496,Incorrect
2,relearn,67,375,B,32.943147304197964,17.034737407239408,1.6471573652098983,0.26758102947207285,B,1858,Correct
2,relearn,67,376,B,60.60496388489888,41.932882307417664,3.030248194244944,0.6586801750041438,B,5732,Correct
2,relearn,67,377,B,52.064353262576546,27.687657064196063,2.6032176631288273,0.4349167001399594,B,8992,Correct
2,relearn,67,378,A,36.47980173613807,54.58301796905584,1.8239900868069037,0.8573880413117275,B,1209,Correct
2,relearn,67,379,A,52.82597116613677,78.15890546334654,2.641298558306838,1.227717216081343,B,622,Incorrect
2,relearn,67,380,A,41.957400682904066,51.51681039453098,2.097870034145203,0.809224165359184,107,335,Correct
2,relearn,67,381,A,36.83499468459105,64.3001093016229,1.8417497342295526,1.0100237550349962,107,1649,Incorrect
2,relearn,67,382,A,22.297070714583274,36.129600894636596,1.1148535357291636,0.5675224437386078,107,245,Incorrect
2,relearn,67,383,B,65.07192053828226,52.19659180369375,3.2535960269141126,0.8199021467645475,107,387,Correct
2,relearn,67,384,A,21.00190975187244,42.20091461950865,1.050095487593622,0.6628904167170924,B,1466,Correct
2,relearn,67,385,A,46.96726848363988,74.62697692426596,2.348363424181994,1.1722378123244448,107,320,Incorrect
2,relearn,67,386,B,81.76616923111118,67.0477620279992,4.088308461555559,1.0531837831339947,B,1256,Incorrect
2,relearn,67,387,A,19.481045884327294,41.988228922814976,0.9740522942163647,0.65954955760581,B,694,Incorrect
2,relearn,67,388,B,79.1469460896245,65.73421284317297,3.9573473044812255,1.0325506007881002,B,1232,Incorrect
2,relearn,67,389,B,73.30443721069749,54.542594022405524,3.6652218605348743,0.8567530634425987,B,3106,Correct
2,relearn,67,390,A,68.86454197725888,87.26619042829893,3.4432270988629443,1.370774113781559,B,1076,Correct
2,relearn,67,391,A,51.455209282578394,77.0705270992016,2.5727604641289195,1.210621008715724,107,3983,Incorrect
2,relearn,67,392,A,49.263257977940405,59.2640781228102,2.4631628988970204,0.9309179622619604,100,222,Correct
2,relearn,67,393,B,63.07972410525758,31.9607787441754,3.1539862052628793,0.5020387385285513,B,7244,Correct
2,relearn,67,394,A,66.2129488217553,78.41594003561444,3.310647441087765,1.2317547057011204,B,834,Incorrect
2,relearn,67,395,A,48.016670533139944,72.50399173148804,2.400833526656997,1.1388900388978898,A,4653,Correct
2,relearn,67,396,A,20.25480293790786,51.130031282827474,1.0127401468953932,0.8031486532797355,A,700,Correct
2,relearn,67,397,A,40.47199696818964,52.58717194047452,2.023599848409482,0.8260373652062903,B,3023,Incorrect
2,relearn,67,398,A,22.13754747828834,35.061346746785084,1.106877373914417,0.550742346823322,B,756,Incorrect
2,relearn,67,399,A,19.774479097787122,49.498175028899496,0.988723954889356,0.7775155151844619,B,658,Correct
2,relearn,67,400,B,79.2050010181452,56.28901812862095,3.96025005090726,0.8841858291532914,B,1420,Incorrect
2,relearn,67,401,B,51.15004297873633,34.288172483517876,2.5575021489368166,0.5385973538961973,B,3564,Incorrect
2,relearn,67,402,A,35.54545718017411,68.20349269297131,1.7772728590087055,1.071337957967019,107,2672,Correct
2,relearn,67,403,A,38.17578624564623,70.2264219816503,1.9087893122823116,1.1031140569272466,B,320,Correct
2,relearn,67,404,A,48.542805188884486,72.55734260526184,2.427140259444224,1.1397280724634415,B,916,Incorrect
2,relearn,67,405,B,51.26203227622035,44.35411747130678,2.5631016138110176,0.6967128480215803,107,552,Correct
2,relearn,67,406,B,33.31413460072147,19.5805434168201,1.6657067300360735,0.3075704567578901,107,5066,Incorrect
2,relearn,67,407,A,22.85907001542394,50.335288698564185,1.1429535007711968,0.7906648659586529,B,4189,Incorrect
2,relearn,67,408,A,38.48957831657211,62.76068383254185,1.9244789158286053,0.985842516312926,B,240,Incorrect
2,relearn,67,409,A,13.922694529854144,36.226526420749465,0.6961347264927071,0.5690449463425153,A,19390,Correct
2,relearn,67,410,B,31.708044446786985,10.391233681662506,1.5854022223393491,0.16322511698022873,A,6341,Incorrect
2,relearn,67,411,B,77.04922671499895,54.76078634797156,3.8524613357499478,0.8601804204779384,B,578,Correct
2,relearn,67,412,A,52.68267758950273,63.342307167246034,2.634133879475137,0.9949786342902412,B,7191,Incorrect
2,relearn,67,413,B,54.65899790435562,41.16626847110098,2.7329498952177813,0.6466382330225798,A,701,Correct
2,relearn,67,414,B,42.04697946571889,16.458532538132456,2.1023489732859444,0.25853002455332746,A,511,Correct
2,relearn,67,415,B,48.89297071691694,25.81219283729839,2.444648535845847,0.4054569769534985,B,944,Incorrect
2,relearn,67,416,B,65.88940029300608,36.965136551103676,3.2944700146503036,0.5806470071394543,A,540,Incorrect
2,relearn,67,417,A,17.147115090218524,36.044378972972126,0.8573557545109262,0.5661837809234782,A,834,Correct
2,relearn,67,418,B,52.06928227028188,24.25603845534524,2.6034641135140943,0.38101296108252064,B,2401,Correct
2,relearn,67,419,A,62.79402486809454,75.26402443853627,3.139701243404727,1.182244531278541,B,1680,Incorrect
2,relearn,67,420,A,43.252196315779486,62.77508928340384,2.1626098157889744,0.9860687966059243,B,8941,Incorrect
2,relearn,67,421,B,65.0163913081008,54.67123576739754,3.2508195654050396,0.8587737632476583,B,2278,Correct
2,relearn,67,422,A,53.9048988996533,71.35846741372028,2.695244944982665,1.1208961849918513,B,24491,Correct
2,relearn,67,423,B,78.99388036850463,61.93221505073788,3.9496940184252316,0.9728289591197067,B,223,Correct
2,relearn,67,424,A,11.352991149345382,36.97336342451773,0.5676495574672691,0.5807762345648523,A,6700,Correct
2,relearn,67,425,B,83.45364410989563,58.72256773217441,4.172682205494782,0.9224119369366407,B,726,Correct
2,relearn,67,426,B,76.16034007252256,55.27134398008212,3.808017003626128,0.8682002410093022,B,386,Correct
2,relearn,67,427,A,40.73967677713266,66.5249443819443,2.0369838388566333,1.0449713827539289,A,539,Correct
2,relearn,67,428,A,12.573788774739395,31.253709104274574,0.6286894387369698,0.49093211459710717,B,473,Incorrect
2,relearn,67,429,B,51.67519630898499,42.40544189008864,2.583759815449249,0.6661031235706567,100,447,Incorrect
2,relearn,67,430,A,59.88273075597748,84.72866535729455,2.994136537798874,1.3309147631747227,100,1012,Incorrect
2,relearn,67,431,B,69.70793348050458,58.25582636346499,3.485396674025229,0.9150803806613211,B,720,Correct
2,relearn,67,432,B,63.95803771938341,48.17591784669603,3.197901885969171,0.7567455479356283,B,1107,Incorrect
2,relearn,67,433,A,50.79306457370201,72.78479975123317,2.5396532286851006,1.1433009609573914,A,2721,Correct
2,relearn,67,434,A,29.758857986091755,39.35485431756595,1.4879428993045878,0.6181846060358087,A,1991,Incorrect
2,relearn,67,435,A,21.691552455365958,48.670382824551446,1.0845776227682977,0.7645125856450684,100,942,Incorrect
2,relearn,67,436,B,69.68549248590845,54.223229332917654,3.484274624295423,0.8517364946310435,107,779,Incorrect
2,relearn,67,437,B,70.00227514835439,41.91182178442289,3.5001137574177195,0.658349357082538,A,3138,Incorrect
2,relearn,67,438,A,40.45971318915961,63.17185884644984,2.0229856594579805,0.9923012383280909,B,5872,Correct
2,relearn,67,439,B,83.28817146873584,61.6396880402076,4.164408573436792,0.9682339555834141,107,726,Incorrect
2,relearn,67,440,A,17.410634140167197,33.15373512923861,0.8705317070083598,0.5207776536053893,A,714,Correct
2,relearn,67,441,B,75.91193177285923,63.689841145326284,3.7955965886429617,1.00043768525229,B,770,Correct
2,relearn,67,442,A,61.725868663058876,87.50906330290893,3.0862934331529437,1.3745891519747142,B,1257,Correct
2,relearn,67,443,A,26.54666164607605,55.926530230693515,1.3273330823038025,0.8784918825675712,A,1718,Correct
2,relearn,67,444,A,45.42754543837602,70.12121311100042,2.271377271918801,1.1014614398516158,B,857,Correct
2,relearn,67,445,A,23.331581432140492,44.18684277407732,1.1665790716070246,0.6940853032218428,A,1005,Correct
2,relearn,67,446,B,74.8752398233114,43.32751434777713,3.74376199116557,0.680587003866415,B,1614,Incorrect
2,relearn,67,447,A,54.60911757286684,71.96316310526726,2.730455878643342,1.1303947227029583,B,1803,Incorrect
2,relearn,67,448,A,37.325662572826175,69.6908977988021,1.8662831286413086,1.094702062733969,107,5351,Incorrect
2,relearn,67,449,A,18.438532402676007,44.756706350544306,0.9219266201338003,0.7030366993487281,A,772,Incorrect
2,relearn,67,450,A,65.62227072023727,88.39792460911646,3.2811135360118637,1.3885513527229234,B,890,Incorrect
2,relearn,67,451,B,63.31769409731409,41.390851748395875,3.165884704865704,0.6501659788929236,B,705,Correct
2,relearn,67,452,A,27.14791491212397,44.865931867229385,1.3573957456061985,0.7047524097527402,A,988,Incorrect
2,relearn,67,453,A,32.066665286485446,61.91011826014088,1.6033332643242721,0.9724818635446694,B,508,Correct
2,relearn,67,454,A,35.52672676400856,48.646351194832405,1.776336338200428,0.7641350976881727,B,1081,Correct
2,relearn,67,455,B,40.31665547306358,26.454392990362724,2.015832773653179,0.4155446333685043,B,286,Correct
2,relearn,67,456,B,39.900256140486974,17.300634992023515,1.995012807024349,0.271757738966898,107,917,Incorrect
2,relearn,67,457,A,38.923590024923556,67.41115165786313,1.9461795012461778,1.0588918940918512,B,1168,Correct
2,relearn,67,458,A,32.319157190724155,47.2753325834108,1.6159578595362079,0.7425991877002877,100,129,Correct
2,relearn,67,459,B,83.26233177613462,58.51450161551209,4.163116588806731,0.9191436420188044,100,335,Correct
2,relearn,67,460,A,60.53076261883937,75.03819064554277,3.0265381309419683,1.1786971423535375,100,346,Incorrect
2,relearn,67,461,A,52.1215134480793,76.11342721280823,2.606075672403965,1.195586918856499,107,493,Incorrect
2,relearn,67,462,B,82.10187611425017,63.45506181130877,4.105093805712508,0.9967497800974693,100,854,Incorrect
2,relearn,67,463,A,45.2810903793659,55.31732454503034,2.2640545189682952,0.8689225020345483,107,281,Correct
2,relearn,67,464,B,58.26894146568748,48.137430796037016,2.9134470732843742,0.7561409947575848,107,117,Correct
2,relearn,67,465,B,63.13843529861639,30.89650303947532,3.1569217649308197,0.4853211348521519,107,114,Incorrect
2,relearn,67,466,A,28.537014378476435,58.81439436140917,1.4268507189238218,0.9238543462556799,107,63,Correct
2,relearn,67,467,A,69.65851626784479,87.12971986538098,3.4829258133922396,1.3686304391920876,107,163,Correct
2,relearn,67,468,B,64.36889372678782,34.71145906709115,3.2184446863393905,0.5452463240027818,100,62,Correct
2,relearn,67,469,A,51.18501809396905,79.8662016359021,2.5592509046984526,1.254535361647356,100,92,Incorrect
2,relearn,67,470,A,53.55166248362485,74.43555211114172,2.6775831241812424,1.1692309183913152,107,148,Incorrect
2,relearn,67,471,B,70.91457643655905,47.265108246199816,3.5457288218279523,0.7424385841869385,100,167,Incorrect
2,relearn,67,472,A,17.86924444638673,42.053374011358876,0.8934622223193365,0.6605728542637449,107,176,Incorrect
2,relearn,67,473,B,38.7211150014036,16.579651540900457,1.9360557500701798,0.2604325573998578,107,238,Incorrect
2,relearn,67,474,A,60.419966688870375,81.832575012907,3.0209983344435187,1.2854230824244215,100,133,Incorrect
2,relearn,67,475,B,69.95542386435716,47.13534716138852,3.497771193217858,0.7404003018331135,100,152,Incorrect
2,relearn,67,476,A,33.63600426478373,56.60761441549895,1.6818002132391865,0.889190327924876,100,157,Incorrect
2,relearn,67,477,B,77.34189136978523,61.43071438947957,3.8670945684892617,0.964951405153809,100,94,Incorrect
2,relearn,67,478,B,65.85345236876064,32.638093823187425,3.2926726184380324,0.5126779789105,100,392,Incorrect
2,relearn,67,479,B,85.2807178281841,67.93408514033725,4.264035891409205,1.067106114026135,100,641,Correct
2,relearn,67,480,A,49.200095171254034,71.31807675721184,2.4600047585627016,1.1202617300430484,100,820,Correct
2,relearn,67,481,B,30.643134616788696,15.350891478941389,1.5321567308394348,0.2411312394814821,107,24,Incorrect
2,relearn,67,482,B,60.92983192188205,53.48291982149359,3.046491596094102,0.840107740018681,107,72,Incorrect
2,relearn,67,483,B,47.923829817213715,23.60788424345158,2.396191490860686,0.3708317785301285,107,59,Correct
2,relearn,67,484,B,58.42033810447209,27.380341686722698,2.9210169052236044,0.430089401478932,107,381,Incorrect
2,relearn,67,485,B,69.668267225562,39.33738407387115,3.4834133612781,0.6179101840895687,107,290,Correct
2,relearn,67,486,B,85.7199230616102,68.52782838177906,4.28599615308051,1.076432611053296,100,289,Correct
2,relearn,67,487,B,48.90575064880305,25.010503667135758,2.445287532440153,0.3928640729162714,107,238,Correct
2,relearn,67,488,B,49.29406238158968,39.65638680840013,2.464703119079484,0.622921067325925,107,38,Incorrect
2,relearn,67,489,A,47.66664979271252,61.16409936442754,2.383332489635626,0.9607634261336084,107,117,Incorrect
2,relearn,67,490,B,46.805981746689056,16.950590020296577,2.3402990873344525,0.26625924540888096,A,1643,Incorrect
2,relearn,67,491,A,28.832359421688906,60.1104485097593,1.4416179710844454,0.9442127172112366,100,2914,Correct
2,relearn,67,492,A,49.79929066497349,75.5194673130967,2.4899645332486746,1.1862570185691956,A,2075,Correct
2,relearn,67,493,B,55.608030401082374,27.774496236993944,2.780401520054119,0.4362807666764877,100,1684,Incorrect
2,relearn,67,494,B,56.8501114268272,35.49107747079223,2.84250557134136,0.5574925412511353,100,92,Correct
2,relearn,67,495,B,57.28881802840094,45.03457088446624,2.864440901420047,0.7074013852410397,100,3087,Correct
2,relearn,67,496,B,71.53620765211703,56.9260192333664,3.576810382605851,0.8941918191082755,A,400,Incorrect
2,relearn,67,497,A,43.40494034309185,53.87115985094146,2.1702470171545927,0.8462062001403956,100,1091,Correct
2,relearn,67,498,B,69.68672871670262,38.71635705379178,3.484336435835131,0.6081551144697581,100,878,Incorrect
2,relearn,67,499,B,82.69546487393959,58.30282312643796,4.13477324369698,0.9158186040878127,100,1413,Incorrect
2,relearn,67,500,B,48.792838215348375,34.126727090616754,2.4396419107674188,0.5360613755947269,100,2957,Incorrect
2,relearn,67,501,B,43.916413235508415,21.92799541207803,2.1958206617754206,0.34444414647267513,107,368,Correct
2,relearn,67,502,B,79.0180475513682,55.12178801602791,3.95090237756841,0.8658510214194359,107,137,Correct
2,relearn,67,503,B,81.22943990163493,59.30143286430955,4.061471995081747,0.9315047291693159,A,2852,Incorrect
2,relearn,67,504,A,28.014425211623596,48.64472794948789,1.4007212605811799,0.7641095998099262,A,1503,Correct
2,relearn,67,505,A,57.19797402586134,73.70340074804145,2.8598987012930674,1.1577303116731572,107,67,Incorrect
2,relearn,67,506,A,30.561863655863625,60.206834914140394,1.5280931827931812,0.9457267513107847,100,80,Incorrect
2,relearn,67,507,A,39.28420559875607,67.31661896934281,1.9642102799378034,1.0574069780929536,107,26,Correct
2,relearn,67,508,A,25.582796370831435,57.67103444241263,1.2791398185415717,0.9058944906460374,107,109,Correct
2,relearn,67,509,A,47.11015306419567,64.34805270900739,2.355507653209784,1.010776848317132,100,131,Incorrect
2,relearn,67,510,B,75.52430758376688,43.84923509967427,3.776215379188344,0.6887821742733418,100,45,Incorrect
2,relearn,67,511,A,35.864988318803725,53.04561241300146,1.7932494159401864,0.8332385313092846,107,175,Correct
2,relearn,67,512,B,73.59330339362204,59.74434651484533,3.6796651696811016,0.9384620005228054,107,31,Incorrect
2,relearn,67,513,B,48.270890501052776,30.060411782119882,2.4135445250526386,0.47218784409295933,107,26,Correct
2,relearn,67,514,B,45.99094282128766,35.852232023174025,2.299547141064383,0.5631655436940013,107,95,Correct
2,relearn,67,515,B,59.322782439401735,41.11912559766553,2.966139121970087,0.6458977144983102,100,154,Correct
2,relearn,67,516,A,67.47332687988114,79.69623102264121,3.3736663439940573,1.251865469497623,107,55,Correct
2,relearn,67,517,A,38.68614441639841,50.724631813268125,1.9343072208199206,0.7967806533030514,107,65,Correct
2,relearn,67,518,A,67.54378006085597,80.08829072560494,3.3771890030427985,1.2580239289106203,107,122,Correct
2,relearn,67,519,A,47.807659265756854,57.802335231140994,2.3903829632878426,0.9079569586124352,107,120,Incorrect
2,relearn,67,520,A,34.00059556564648,52.42863921786221,1.700029778282324,0.8235471390227281,107,188,Correct
2,relearn,67,521,A,18.22514816011769,47.41401875996123,0.9112574080058846,0.7447776650673142,107,35,Incorrect
2,relearn,67,522,A,35.20207025974052,66.6612971789446,1.7601035129870264,1.0471132074806915,100,30,Incorrect
2,relearn,67,523,B,33.172459040818765,13.872230935562321,1.6586229520409381,0.21790449398031828,100,162,Correct
2,relearn,67,524,A,38.047429928668336,63.74590001094009,1.9023714964334169,1.0013182558541944,107,134,Incorrect
2,relearn,67,525,B,89.32521417932087,68.24595145657582,4.466260708966043,1.0720048986661213,107,129,Correct
2,relearn,67,526,B,82.14373579131879,67.22764014816603,4.10718678956594,1.0560093020382832,100,86,Incorrect
2,relearn,67,527,B,31.865161404415833,16.438388446787545,1.5932580702207917,0.2582136019064154,100,35,Correct
2,relearn,67,528,B,43.16284104275999,30.732416383932588,2.1581420521379995,0.4827436676941261,107,19,Incorrect
2,relearn,67,529,A,24.92273122971534,42.6823580490624,1.246136561485767,0.6704529124241181,100,18,Correct
2,relearn,67,530,A,44.37268223233312,52.72899327822166,2.218634111616656,0.8282650895702337,107,3,Correct
2,relearn,67,531,A,34.811151913489745,52.338992085669105,1.7405575956744872,0.8221389651631619,100,63,Correct
2,relearn,67,532,B,60.010317786156584,49.798138899347315,3.000515889307829,0.7822273366431681,107,51,Incorrect
2,relearn,67,533,B,38.085590857820925,16.497894638198417,1.9042795428910464,0.2591483229753129,100,54,Incorrect
2,relearn,67,534,B,42.7277352179881,34.78570690772655,2.1363867608994047,0.5464126063562073,100,47,Correct
2,relearn,67,535,A,16.078640536104526,41.351968087339685,0.8039320268052264,0.6495551957733295,100,78,Correct
2,relearn,67,536,B,77.610178154181,58.23343306616981,3.8805089077090495,0.9147286275699601,107,130,Correct
2,relearn,67,537,A,11.982618479820996,31.853969857963175,0.5991309239910498,0.5003609884672391,107,6,Incorrect
2,relearn,67,538,A,23.845754711037777,45.64182799004386,1.192287735551889,0.7169401575496539,100,127,Correct
2,relearn,67,539,B,54.08534110014342,44.532703541721425,2.704267055007171,0.6995180714558209,107,27,Correct
2,relearn,67,540,B,58.21020902505034,48.16218564587764,2.9105104512525166,0.7565298430295851,107,104,Incorrect
2,relearn,67,541,B,77.327934930842,52.3569305190335,3.8663967465421,0.8224207414155345,107,148,Incorrect
2,relearn,67,542,A,15.84879309400095,34.953013405521446,0.7924396547000475,0.5490406506780586,107,117,Correct
2,relearn,67,543,A,50.43105630138671,57.333991462636924,2.521552815069336,0.9006002319000004,107,104,Correct
2,relearn,67,544,B,84.31368217261172,63.380088311624675,4.215684108630586,0.9955720991183619,100,27,Correct
2,relearn,67,545,A,47.04146330398381,75.44793197504121,2.3520731651991906,1.1851333441066598,107,4,Incorrect
2,relearn,67,546,B,41.98855559547834,18.799906100473024,2.099427779773917,0.29530823446711996,100,6,Incorrect
2,relearn,67,547,B,83.88236271982919,64.0166150084881,4.194118135991459,1.0055706370917616,107,145,Correct
2,relearn,67,548,A,62.86021377906844,76.73726579436365,3.143010688953422,1.2053861523807008,107,183,Correct
2,relearn,67,549,A,53.54638496607337,66.83038029534231,2.6773192483036685,1.0497691588622973,107,131,Correct
2,relearn,67,550,A,23.30700370441373,37.782322654277614,1.1653501852206865,0.5934833364311888,107,16,Correct
2,relearn,67,551,A,31.426240355896667,50.68376008445876,1.5713120177948332,0.7961386416882162,107,85,Incorrect
2,relearn,67,552,A,61.440794008293935,75.01401985344175,3.072039700414697,1.1783174684390576,100,20,Correct
2,relearn,67,553,B,67.81063372248256,40.0198865640204,3.3905316861241284,0.6286309081351168,100,3,Incorrect
2,relearn,67,554,A,51.69324290323398,65.70506802291578,2.584662145161699,1.032092795022049,107,395,Correct
2,relearn,67,555,A,40.00590208919909,50.00049909492184,2.0002951044599544,0.7854060031621478,107,446,Incorrect
2,relearn,67,556,A,48.29567897230141,60.48680136434692,2.4147839486150704,0.9501244540268868,100,84,Incorrect
2,relearn,67,557,A,42.995147223663025,68.69281350603637,2.149757361183151,1.079024191324888,100,2181,Correct
2,relearn,67,558,A,41.26045840145184,62.99294449147046,2.063022920072592,0.9894908582119661,100,125,Incorrect
2,relearn,67,559,B,37.89064751155205,18.417396010344927,1.8945323755776025,0.2892997800217679,107,42,Correct
2,relearn,67,560,A,39.16405981802543,69.58482687890235,1.9582029909012715,1.093035904620386,100,329,Incorrect
2,relearn,67,561,B,30.750101143235195,12.87800915641844,1.53750505716176,0.20228729479333135,107,241,Correct
2,relearn,67,562,B,62.55745134420224,34.40821104676805,3.127872567210112,0.5404829152384684,107,104,Correct
2,relearn,67,563,A,33.496822336065335,57.818423645284874,1.6748411168032669,0.9082096748308468,100,6,Incorrect
2,relearn,67,564,A,51.09911424813634,66.51424713842744,2.554955712406817,1.0448033508456978,100,436,Correct
2,relearn,67,565,A,32.563990125622695,64.19817213533713,1.6281995062811347,1.0084225297713405,100,326,Correct
2,relearn,67,566,B,66.31524453868808,33.47871511327171,3.315762226934404,0.5258824272573999,100,865,Correct
2,relearn,67,567,B,84.55613225400238,64.79405504537563,4.227806612700118,1.0177826366342237,B,1357,Incorrect
2,relearn,67,568,B,63.65646996291713,46.15628244102935,3.1828234981458565,0.725021189168767,107,113,Correct
2,relearn,67,569,B,53.166611462258004,35.11955546074543,2.6583305731129,0.5516566871640857,107,6,Incorrect
2,relearn,67,570,A,22.946090375193318,45.39162096373302,1.147304518759666,0.7130099147709804,107,61,Correct
2,relearn,67,571,B,58.95343950511246,27.205420276401185,2.947671975255623,0.42734174239082373,107,49,Correct
2,relearn,67,572,A,19.53274041428799,45.068498154795655,0.9766370207143994,0.7079343135571559,107,4,Incorrect
2,relearn,67,573,A,19.873946752759128,42.80583337290807,0.9936973376379563,0.6723924582755839,A,78,Correct
2,relearn,67,574,B,54.99022085585387,36.51979552860561,2.749511042792694,0.5736516067163439,107,79,Incorrect
2,relearn,67,575,B,66.75569946564586,43.925174477457695,3.337784973282293,0.6899750272301549,100,207,Correct
2,relearn,67,576,A,55.691108666597984,72.38401879809211,2.784555433329899,1.1370055084669584,100,207,Incorrect
2,relearn,67,577,A,45.68502052408346,72.37466578040599,2.284251026204173,1.1368585916087002,107,205,Correct
2,relearn,67,578,B,54.822851256114426,24.79058335073563,2.7411425628057215,0.38940957266438253,100,160,Correct
2,relearn,67,579,A,41.25579725277945,64.09118039140468,2.0627898626389727,1.0067419073876758,B,908,Incorrect
2,relearn,67,580,A,25.946666706090387,57.13903230837797,1.2973333353045193,0.8975378206661505,107,52,Correct
2,relearn,67,581,B,43.932100854543535,18.873847337587964,2.196605042727177,0.29646970070370815,100,272,Correct
2,relearn,67,582,B,34.513658210084046,17.26594287512881,1.7256829105042022,0.2712127964690285,107,84,Correct
2,relearn,67,583,B,73.98578885680897,51.20951846550754,3.6992894428404486,0.8043972350255468,107,499,Correct
2,relearn,67,584,B,34.18274477642332,21.580470893269624,1.7091372388211659,0.33898524409652103,107,369,Incorrect
2,relearn,67,585,A,35.08526998650151,57.3811184889718,1.7542634993250754,0.9013405014985961,B,235,Incorrect
2,relearn,67,586,A,22.34881493430532,39.97935062793054,1.117440746715266,0.6279941711399855,100,192,Incorrect
2,relearn,67,587,A,30.07307936330859,50.61453311602956,1.5036539681654295,0.795051227010979,107,73,Incorrect
2,relearn,67,588,A,50.35688062212411,58.942448185890946,2.5178440311062054,0.9258658110269601,107,20,Correct
2,relearn,67,589,B,86.47041426337016,58.50522927074893,4.3235207131685085,0.9189979923678568,100,109,Incorrect
2,relearn,67,590,B,80.44429682626736,50.827142075211185,4.022214841313368,0.7983908807322406,107,179,Correct
2,relearn,67,591,B,73.50560582788063,49.69219585185503,3.6752802913940315,0.7805631871446649,100,23,Correct
2,relearn,67,592,B,83.6261675982696,58.33764756918202,4.18130837991348,0.9163656251552634,100,299,Correct
2,relearn,67,593,B,73.37673568787211,40.840108355937254,3.6688367843936054,0.641514921914118,107,652,Correct
2,relearn,67,594,B,46.86168980412174,21.007868888546685,2.343084490206087,0.3299908328391792,100,1780,Incorrect
2,relearn,67,595,A,39.94389384329359,51.3085188371346,1.9971946921646793,0.8059523292265779,107,3363,Correct
2,relearn,67,596,A,17.55770199158204,33.734030640642544,0.8778850995791019,0.529892914183078,100,141,Incorrect
2,relearn,67,597,B,50.13989891699675,39.695973539928445,2.5069949458498373,0.6235428942506701,100,818,Incorrect
2,relearn,67,598,B,77.86265010404786,63.389143815558114,3.8931325052023933,0.9957143426415213,100,92,Incorrect
2,relearn,67,599,A,65.67462820578197,87.492326186128,3.2837314102890987,1.3743262459591081,100,230,Incorrect
2,relearn,67,600,A,63.39522106376549,87.32935540539759,3.169761053188274,1.371766306921646,100,252,Correct
2,relearn,67,601,A,16.013869423372743,42.18032802202818,0.8006934711686371,0.6625670432000571,A,918,Correct
2,relearn,67,602,B,81.16180437532189,61.3176231641626,4.058090218766094,0.9631749723406027,B,505,Correct
2,relearn,67,603,A,56.52054826292392,68.836545355152,2.826027413146196,1.0812819259312305,A,170,Correct
2,relearn,67,604,B,59.90739724661001,41.224910428941975,2.9953698623305005,0.6475593787423067,B,492,Correct
2,relearn,67,605,B,65.76942606446973,55.55176494290204,3.2884713032234862,0.8726050831928405,100,526,Incorrect
2,relearn,67,606,B,70.73042237610194,44.46101927707609,3.5365211188050973,0.6983920576598821,102,6366,Correct
2,relearn,67,607,A,22.414103944808485,37.63124471145356,1.1207051972404243,0.5911102096547112,102,72,Incorrect
2,relearn,67,608,B,50.45078217511667,40.68425377920578,2.5225391087558338,0.6390667639476783,107,70,Correct
2,relearn,67,609,A,36.4044226114699,49.323365518620406,1.8202211305734948,0.7747696138181099,B,713,Incorrect
2,relearn,67,610,B,67.33422128920506,41.072248205289775,3.366711064460253,0.6451613661407746,102,201,Correct
2,relearn,67,611,B,75.08471917182342,58.304630084747,3.754235958591171,0.915846987722558,107,478,Correct
2,relearn,67,612,B,56.73083719767433,41.64423510141313,2.836541859883716,0.6541461152948285,102,1189,Correct
2,relearn,67,613,B,48.70874468379694,39.698916841539045,2.435437234189847,0.6235891275242558,107,200,Correct
2,relearn,67,614,B,46.63752347531486,31.860036454478234,2.331876173765743,0.500456282342459,107,158,Correct
2,relearn,67,615,B,75.04617101235988,44.58158672700725,3.752308550617994,0.700285926734711,102,354,Correct
2,relearn,67,616,B,48.69099459853333,22.763406516905956,2.4345497299266667,0.3575667534209489,107,91,Correct
2,relearn,67,617,B,47.24562409383543,20.591135788614643,2.3622812046917714,0.3234448046129082,107,207,Correct
2,relearn,67,618,B,61.047132143339034,30.88651909797069,3.052356607166952,0.4851643074657278,102,189,Correct
2,relearn,67,619,A,21.702534063544466,45.29052662201735,1.0851267031772232,0.7114219285647133,107,40,Incorrect
2,relearn,67,620,B,72.04740773108867,50.38763354851605,3.602370386554434,0.7914870969389631,107,223,Correct
2,relearn,67,621,B,31.38197100932663,10.69499391718431,1.5690985504663315,0.16799657160206877,107,519,Correct
2,relearn,67,622,B,65.24589181584545,43.91634992485092,3.2622945907922722,0.6898364114819515,102,167,Correct
2,relearn,67,623,B,34.63541959153834,21.863670620507154,1.7317709795769167,0.3434337350094613,107,139,Correct
2,relearn,67,624,A,42.523375220013065,67.28696418717148,2.1261687610006534,1.056941161863887,107,283,Incorrect
2,relearn,67,625,B,75.08829648235861,42.62963436134449,3.7544148241179305,0.6696247306740943,107,334,Correct
2,relearn,67,626,A,17.442380756658483,31.160707556180103,0.8721190378329241,0.4894712496957768,107,158,Incorrect
2,relearn,67,627,B,32.6561309262095,13.549399206855885,1.632806546310475,0.2128334650440691,102,59,Correct
2,relearn,67,628,B,74.71360505300322,58.48556619337816,3.735680252650161,0.918689125470782,107,244,Correct
2,relearn,67,629,B,53.28396231498039,28.876157939101127,2.66419811574902,0.4535856282268934,102,251,Correct
2,relearn,67,630,A,35.312016550225295,65.30787315385908,1.7656008275112647,1.0258536726086889,107,183,Incorrect
2,relearn,67,631,B,68.81112601387723,38.33322005104619,3.4405563006938618,0.6021368125040383,102,33,Correct
2,relearn,67,632,B,38.746416750440275,28.718551295937043,1.937320837522014,0.4511099488652872,107,337,Correct
2,relearn,67,633,B,63.81299487553534,40.33368836617585,3.1906497437767665,0.6335600953167908,102,231,Correct
2,relearn,67,634,A,23.614257991274805,52.34762349914254,1.1807128995637401,0.8222745470889532,107,983,Incorrect
2,relearn,67,635,B,68.18591278666322,47.10556229950863,3.409295639333161,0.7399324423167631,107,1313,Correct
2,relearn,67,636,A,13.308349295554557,38.699014316889226,0.6654174647777279,0.6078826953955271,107,1804,Incorrect
2,relearn,67,637,B,49.74487248477672,19.935064536984257,2.487243624238836,0.31313926149114074,100,67,Incorrect
2,relearn,67,638,A,46.695280627773045,60.634787382037146,2.3347640313886524,0.952449012956935,B,311,Incorrect
2,relearn,67,639,B,46.80881635572756,39.74047589677629,2.3404408177863782,0.6242419356373732,107,214,Correct
2,relearn,67,640,B,81.8110787341407,68.46146511033993,4.0905539367070345,1.0753901792231892,107,217,Incorrect
2,relearn,67,641,A,13.444059710409146,41.92261608336533,0.6722029855204573,0.6585189135338291,107,926,Correct
2,relearn,67,642,B,71.13701754776902,37.942633669575976,3.5568508773884506,0.5960014959709431,100,145,Correct
2,relearn,67,643,A,38.43716083609441,48.45916753322726,1.9218580418047202,0.7611948236073188,100,81,Incorrect
2,relearn,67,644,A,41.50473111716328,70.08981138072652,2.0752365558581642,1.1009681826259237,107,286,Incorrect
2,relearn,67,645,B,88.48292546568862,63.06559937642211,4.424146273284431,0.9906321184760236,B,246,Correct
2,relearn,67,646,A,54.51885037636288,72.3171404040244,2.725942518818144,1.1359549851095234,107,383,Incorrect
2,relearn,67,647,B,46.20699102647244,28.391190349057588,2.310349551323622,0.4459677751363438,107,556,Correct
2,relearn,67,648,B,65.0971702865747,47.454863527464404,3.2548585143287347,0.745419253174942,107,2236,Correct
2,relearn,67,649,A,31.210367816262718,59.20481746001576,1.5605183908131357,0.9299870979475513,B,1532,Incorrect
2,relearn,67,650,A,20.95282805154086,36.34890351308229,1.047641402577043,0.5709672412137178,107,362,Correct
2,relearn,67,651,B,73.65036059358394,51.39630839899357,3.6825180296791973,0.8073313244395679,107,117,Incorrect
2,relearn,67,652,A,18.744322240260903,33.31399072094274,0.9372161120130451,0.5232949425533613,100,430,Incorrect
2,relearn,67,653,B,50.6824233054965,43.787716370423354,2.5341211652748252,0.6878158403339777,107,50,Incorrect
2,relearn,67,654,A,22.936827326080998,34.58875981307743,1.14684136630405,0.5433189686277297,100,343,Incorrect
2,relearn,67,655,B,75.60539969434627,45.852583282312764,3.7802699847173136,0.7202506939391397,107,1354,Correct
2,relearn,67,656,A,59.52017281672505,84.77549859101924,2.9760086408362527,1.3316504178897894,B,4392,Incorrect
2,relearn,67,657,B,49.92100850477706,29.696844225764096,2.4960504252388533,0.4664769382723048,107,307,Incorrect
2,relearn,67,658,B,36.12585831109273,17.812123121287065,1.8062929155546363,0.2797921757133617,100,42,Incorrect
2,relearn,67,659,B,52.9715810942215,24.57003170627133,2.6485790547110746,0.3859451555344515,B,242,Correct
2,relearn,67,660,B,47.94406983845372,27.661581725410805,2.397203491922686,0.4345071096761214,107,2527,Incorrect
2,relearn,67,661,A,15.684525483577648,38.184176143236385,0.7842262741788824,0.5997956362748503,100,3748,Correct
2,relearn,67,662,A,53.02822739968701,71.60677619270412,2.6514113699843507,1.124796610171239,B,372,Incorrect
2,relearn,67,663,A,64.64482733664192,87.24282357305074,3.2322413668320964,1.3704070680776332,100,523,Incorrect
2,relearn,67,664,B,58.76059012839232,51.18468303404683,2.9380295064196162,0.8040071209804183,107,219,Incorrect
2,relearn,67,665,B,75.7618564679185,52.18025829606388,3.7880928233959255,0.8196455806266608,100,3089,Correct
2,relearn,67,666,A,41.53489572170871,48.757347295207026,2.0767447860854356,0.7658786203557427,100,33,Incorrect
2,relearn,67,667,A,20.896754717681166,44.130166564864126,1.0448377358840581,0.6931950354093553,100,194,Incorrect
2,relearn,67,668,A,58.40009617030698,72.41605458950902,2.9200048085153494,1.1375087255017948,100,95,Correct
2,relearn,67,669,B,53.61065174517203,34.06010221848341,2.680532587258601,0.5350148345505245,100,212,Incorrect
2,relearn,67,670,A,42.877009557043635,75.20625127431997,2.143850477852182,1.1813370325371582,107,38,Correct
2,relearn,67,671,B,73.33648172632829,58.29897987685636,3.6668240863164145,0.9157582344645557,107,363,Incorrect
2,relearn,67,672,A,35.44887544206284,62.90025482242128,1.772443772103142,0.9880348922952233,107,365,Correct
2,relearn,67,673,A,12.085468460008517,38.552465782836734,0.6042734230004259,0.6055807164056588,B,661,Incorrect
2,relearn,67,674,A,32.14779717973681,57.696800931397604,1.6073898589868407,0.9062992297085571,100,114,Incorrect
2,relearn,67,675,A,20.892161613509217,32.99169765474481,1.0446080806754607,0.5182323749080096,107,314,Correct
2,relearn,67,676,A,27.602715588002432,42.60962844073679,1.3801357794001217,0.669310478408047,100,2010,Incorrect
2,relearn,67,677,A,62.85930693580315,77.65654315115071,3.1429653467901573,1.2198261273341693,100,341,Incorrect
2,relearn,67,678,B,75.99307547645272,58.83937619219226,3.7996537738226355,0.9242467599359869,B,303,Correct
2,relearn,67,679,A,16.191885061669435,41.47809610787577,0.8095942530834718,0.6515364100869696,107,848,Incorrect
2,relearn,67,680,A,47.8926866795619,57.00746084266597,2.394634333978095,0.895471100915636,107,666,Correct
2,relearn,67,681,B,55.9648861784517,42.23048447575491,2.798244308922585,0.6633548989328472,107,68,Correct
2,relearn,67,682,A,55.36204419046128,62.63070641515146,2.768102209523064,0.9838008358148946,100,1280,Incorrect
2,relearn,67,683,A,45.17035159946218,58.072264433805216,2.258517579973109,0.9121969966128316,100,50,Correct
2,relearn,67,684,A,53.029793598283874,80.60542990653573,2.6514896799141936,1.2661471321690985,107,844,Incorrect
2,relearn,67,685,B,59.67940886417997,35.686094878502075,2.9839704432089986,0.5605558675280522,107,124,Correct
2,relearn,67,686,B,49.663754178438666,23.74319209545643,2.483187708921933,0.37295718929928584,107,2509,Correct
2,relearn,67,687,B,76.2738394006119,58.160080986322505,3.8136919700305953,0.9135764157940909,107,48,Correct
2,relearn,67,688,A,28.33232489021041,44.96224393948429,1.4166162445105204,0.7062652762459801,100,48,Incorrect
2,relearn,67,689,A,20.820539755298718,36.42507263548089,1.0410269877649359,0.5721637029905068,107,191,Incorrect
2,relearn,67,690,A,24.822059066455118,41.43380194849637,1.241102953322756,0.6508406390584531,100,53,Correct
2,relearn,67,691,A,57.23512265156677,79.99422145731215,2.8617561325783383,1.2565462922996342,107,43,Incorrect
2,relearn,67,692,A,30.273242584547823,43.93692332253933,1.5136621292273913,0.690159577657138,100,221,Incorrect
2,relearn,67,693,B,79.11217376232264,60.18506943238644,3.955608688116132,0.9453848599228843,107,279,Incorrect
2,relearn,67,694,A,51.983659291469095,67.46575850614414,2.5991829645734548,1.0597496564588278,100,369,Incorrect
2,relearn,67,695,B,54.33544380626469,30.70698398995777,2.7167721903132347,0.4823441765837536,100,4312,Incorrect
2,relearn,67,696,B,45.94322685456048,21.926283464928183,2.2971613427280237,0.34441725526972866,100,9975,Correct
2,relearn,67,697,A,53.40201148162367,77.49968001698207,2.670100574081183,1.2173621269845527,100,158,Correct
2,relearn,67,698,B,50.54424962242372,25.11243091834319,2.527212481121186,0.3944651424342408,100,168,Incorrect
2,relearn,67,699,A,51.191076316890076,62.97836716412627,2.5595538158445037,0.9892618780894987,100,190,Incorrect
2,relearn,67,700,B,51.284107347495336,41.7306566215737,2.564205367374767,0.655503621359071,100,45,Correct
2,relearn,67,701,B,68.6958865342597,51.98153736877128,3.434794326712985,0.8165240796001757,107,213,Incorrect
2,relearn,67,702,B,51.97919109390122,42.80708784731633,2.5989595546950612,0.6724121635135094,A,462,Incorrect
2,relearn,67,703,A,14.986171615816342,30.687063400180204,0.7493085807908172,0.48203126469125174,B,702,Incorrect
2,relearn,67,704,A,32.96247168225523,51.27611932011844,1.6481235841127613,0.8054433988033888,107,10460,Correct
2,relearn,67,705,B,31.861685688944387,15.182185502413741,1.5930842844472193,0.2384812121991024,107,433,Incorrect
2,relearn,67,706,A,31.405422935122317,53.60249686480547,1.570271146756116,0.8419860518227139,B,1201,Incorrect
2,relearn,67,707,B,68.13149470207826,57.38117362706002,3.406574735103913,0.9013413676056607,107,137,Correct
2,relearn,67,708,B,54.92843245280887,43.855497149455125,2.746421622640444,0.6888805383212817,107,2684,Correct
2,relearn,67,709,A,52.93260761835228,77.25084643179059,2.646630380917614,1.213453458168533,B,285,Incorrect
2,relearn,67,710,A,68.24386398816686,81.43281761353208,3.4121931994083434,1.2791437078789494,107,632,Correct
2,relearn,67,711,B,58.706235845678115,39.70261871867386,2.9353117922839056,0.6236472764743121,100,21,Correct
2,relearn,67,712,B,65.64908250761141,34.81882778527335,3.2824541253805704,0.5469328678841145,100,255,Incorrect
2,relearn,67,713,B,45.85961966451138,22.684887792443725,2.292980983225569,0.35633338418124993,100,130,Incorrect
2,relearn,67,714,B,80.68726652376127,64.38676996632147,4.034363326188063,1.0113850175728574,107,94,Correct
2,relearn,67,715,A,42.83348934996467,56.19777984704962,2.1416744674982335,0.8827526615777381,A,859,Correct
2,relearn,67,716,B,82.17623590555219,66.41384686641257,4.108811795277609,1.0432262670607961,107,3869,Incorrect
2,relearn,67,717,B,35.49600194231574,11.468881722486227,1.7748000971157871,0.18015277282126496,107,526,Incorrect
2,relearn,67,718,B,79.16124187829794,64.92179500016738,3.9580620939148967,1.019789171151942,107,438,Correct
2,relearn,67,719,B,68.64580438482244,45.37004732428329,3.432290219241122,0.7126710368349481,107,551,Correct
2,relearn,67,720,B,34.74350369861675,16.733840482492642,1.7371751849308372,0.26285455163071186,107,511,Correct
2,relearn,67,721,A,53.86988253544625,70.09086460900593,2.693494126772313,1.1009847266970494,100,532,Incorrect
2,relearn,67,722,A,38.52076916056419,57.910196300307426,1.9260384580282095,0.9096512363249433,107,857,Incorrect
2,relearn,67,723,B,63.35860134102164,37.31404576586179,3.167930067051082,0.5861276602687236,107,198,Correct
2,relearn,67,724,B,76.70463200537884,58.876180474850095,3.835231600268942,0.9248248802560795,100,219,Correct
2,relearn,67,725,A,60.84234225447613,83.23415924762614,3.0421171127238065,1.307439116100326,107,1706,Incorrect
2,relearn,67,726,A,56.75143676791763,71.70843086494938,2.8375718383958817,1.1263933980288825,B,561,Incorrect
2,relearn,67,727,A,45.18160324780784,62.29849173333965,2.259080162390392,0.9785824197959215,107,374,Correct
2,relearn,67,728,A,38.71612844781066,52.57596085146158,1.9358064223905331,0.8258612618318814,100,364,Incorrect
2,relearn,67,729,A,64.47737089705126,89.3906107872105,3.223868544852563,1.4041444307450253,A,2760,Correct
2,relearn,67,730,A,57.15948276269511,76.22819087325828,2.8579741381347556,1.1973896222193439,B,482,Incorrect
2,relearn,67,731,A,62.492179816455355,76.05672185971127,3.124608990822768,1.1946961932529558,B,545,Incorrect
2,relearn,67,732,A,39.72452650361095,58.4979878388728,1.9862263251805476,0.9188842442219394,107,567,Correct
2,relearn,67,733,A,24.089111178961723,35.994820475956175,1.2044555589480863,0.5654053178727368,A,684,Correct
2,relearn,67,734,A,22.48551182906374,52.57047747738732,1.124275591453187,0.8257751291933385,A,549,Correct
2,relearn,67,735,A,31.961473262002343,62.08774463829941,1.5980736631001173,0.9752720121682024,A,830,Correct
2,relearn,67,736,B,83.5893829775896,66.85663337066906,4.1794691488794795,1.0501815412052007,107,661,Incorrect
2,relearn,67,737,B,49.861770940862144,20.314385628079187,2.493088547043107,0.31909762325681823,B,388,Correct
2,relearn,67,738,B,55.87841943966675,25.917994444128034,2.7939209719833378,0.40711890470726847,B,405,Correct
2,relearn,67,739,B,43.347723869556305,32.936774269932656,2.1673861934778156,0.5173696403968288,B,232,Correct
2,relearn,67,740,A,69.02820484554391,86.51097085836952,3.4514102422771953,1.3589111525178719,B,431,Incorrect
2,relearn,67,741,B,39.35298507426219,18.832355598679214,1.9676492537131096,0.29581794999300615,107,125,Correct
2,relearn,67,742,B,63.75990637559725,40.27289553424013,3.1879953187798624,0.6326051637457899,107,57,Incorrect
2,relearn,67,743,A,43.13216955163364,73.63280546765299,2.156608477581682,1.156621403601925,B,12,Incorrect
2,relearn,67,744,B,68.6620810932989,38.92640055138795,3.4331040546649443,0.6114544700146703,100,789,Incorrect
2,relearn,67,745,B,81.25583656940933,56.09184407636066,4.062791828470466,0.881088626382994,107,232,Incorrect
2,relearn,67,746,B,42.44899215094015,19.321252537220772,2.1224496075470074,0.30349752514542966,100,9,Incorrect
2,relearn,67,747,B,65.71640299641736,35.23359748873056,3.285820149820868,0.5534480551506786,107,152,Incorrect
2,relearn,67,748,B,56.79046653063143,38.5036172489702,2.8395233265315714,0.6048134054299902,100,285,Incorrect
2,relearn,67,749,A,34.45771753150421,44.98588349486312,1.7228858765752104,0.7066366055135415,100,23,Correct
2,relearn,67,750,A,58.107919177917395,79.66526561999873,2.9053959588958698,1.2513790660903377,100,206,Correct
2,relearn,67,751,A,47.779902629770945,64.61800267735248,2.3889951314885476,1.0150172125040808,100,76,Correct
2,relearn,67,752,B,31.815254428434024,11.0558399000329,1.5907627214217013,0.17366472704604138,100,58,Incorrect
2,relearn,67,753,B,31.98304436087066,14.326349652161579,1.5991522180435331,0.2250377740999475,100,317,Incorrect
2,relearn,67,754,B,32.897770791161555,16.80581980721663,1.6448885395580777,0.2639852002195279,107,95,Correct
2,relearn,67,755,B,38.50612995309709,25.536877990616574,1.9253064976548544,0.40113234145469956,100,27,Correct
2,relearn,67,756,A,64.60310837465784,86.06678574515081,3.230155418732892,1.3519339090752625,107,175,Incorrect
2,relearn,67,757,A,41.686362354889916,71.94488114187887,2.084318117744496,1.1301075502935873,100,37,Correct
2,relearn,67,758,A,23.63164210875428,46.79757908507656,1.181582105437714,0.7350946532973194,107,230,Incorrect
2,relearn,67,759,A,26.767610875925868,41.863451248442175,1.3383805437962935,0.6575895544801019,107,74,Correct
2,relearn,67,760,A,65.48642692311893,83.26311645664936,3.274321346155946,1.3078939748760052,100,48,Incorrect
2,relearn,67,761,B,82.77376966291385,60.5252042729625,4.1386884831456925,0.9507276855048029,107,326,Incorrect
2,relearn,67,762,B,52.66426548318216,28.498363570087136,2.633213274159108,0.4476512481555837,100,220,Correct
2,relearn,67,763,A,39.96964099245808,56.29698247858702,1.9984820496229043,0.8843109328700115,107,319,Incorrect
2,relearn,67,764,B,47.36502058705084,25.995499037387777,2.368251029352542,0.40833634401128993,100,175,Incorrect
2,relearn,67,765,A,33.165082985960034,54.15777514251248,1.6582541492980016,0.8507083426124256,107,2401,Correct
2,relearn,67,766,A,13.277293568842978,34.065826285427754,0.6638646784421489,0.5351047479838296,100,541,Incorrect
2,relearn,67,767,A,43.967603340649205,70.45418784705963,2.19838016703246,1.1066917947747892,107,582,Correct
2,relearn,67,768,A,64.73995219974408,80.21999041492278,3.2369976099872044,1.260092662792825,100,176,Correct
2,relearn,67,769,B,75.19575501190162,58.78516383412846,3.759787750595081,0.9233951942068518,100,164,Incorrect
2,relearn,67,770,A,43.35204345856988,61.21690518882812,2.167602172928494,0.9615928980836265,107,423,Correct
2,relearn,67,771,B,61.133028086110706,49.71621336891029,3.0566514043055353,0.7809404534203561,100,72,Correct
2,relearn,67,772,A,55.84950944890912,72.41990642835587,2.7924754724454557,1.1375692300449152,100,256,Correct
2,relearn,67,773,A,40.99982171430158,65.86931810575791,2.0499910857150794,1.034672829290091,100,903,Incorrect
2,relearn,67,774,B,57.39739718038431,26.18436689797386,2.8698698590192158,0.4113030734278722,100,297,Correct
2,relearn,67,775,B,64.87533295771013,35.73948834684631,3.2437666478855065,0.561394570167552,107,1598,Correct
2,relearn,67,776,B,39.74980802343808,24.30225514034595,1.987490401171904,0.38173893107287815,100,398,Incorrect
2,relearn,67,777,A,32.310903324306466,53.853382625829994,1.6155451662153235,0.8459269561413385,100,864,Correct
2,relearn,67,778,B,37.440703067009466,11.365781824200884,1.872035153350473,0.1785332834060695,A,26,Incorrect
2,relearn,67,779,A,66.42127003040818,83.88580739775146,3.3210635015204093,1.3176751813061214,100,1454,Correct
2,relearn,67,780,A,13.220012858173114,34.84686181277811,0.6610006429086556,0.547373225358412,107,384,Correct
2,relearn,67,781,A,16.229538567593174,43.71428092503227,0.8114769283796588,0.6866623190552089,100,329,Correct
2,relearn,67,782,A,38.23886723337925,67.43054539021256,1.9119433616689627,1.0591965301272244,107,2044,Incorrect
2,relearn,67,783,B,59.52049369147429,31.520704403866617,2.9760246845737144,0.49512606695581396,107,1289,Correct
2,relearn,67,784,B,83.04852711263717,57.01437690026804,4.152426355631859,0.8955797380944085,107,120,Incorrect
2,relearn,67,785,A,29.002173843890887,48.68214024913868,1.4501086921945443,0.7646972708386103,107,815,Incorrect
2,relearn,67,786,A,56.79708713896342,69.04122682107628,2.8398543569481713,1.0844970548795991,107,409,Correct
2,relearn,67,787,B,49.2912094533161,25.722936192560436,2.464560472665805,0.4040549368565344,100,36,Incorrect
2,relearn,67,788,A,56.07450965575213,81.67653958799103,2.8037254827876064,1.2829720837013425,107,114,Incorrect
2,relearn,67,789,A,31.971465777332675,42.832473518698244,1.5985732888666337,0.6728109207071088,100,141,Correct
2,relearn,67,790,A,21.420097778242233,42.8560715986665,1.0710048889121118,0.6731815984804443,A,652,Correct
2,relearn,67,791,A,33.747319360293595,49.816855084812104,1.6873659680146798,0.7825213297969651,B,506,Incorrect
2,relearn,67,792,B,53.89774996729498,29.44671146553587,2.6948874983647486,0.46254786206252907,100,3031,Correct
2,relearn,67,793,B,69.30219664714429,39.63665717784627,3.4651098323572143,0.6226111550138949,100,237,Incorrect
2,relearn,67,794,A,18.348861249729676,45.16912505641306,0.9174430624864839,0.7095149572315296,100,145,Correct
2,relearn,67,795,A,58.51912664544609,78.77879286938689,2.9259563322723046,1.237454384685689,107,629,Correct
2,relearn,67,796,A,56.95611767489859,67.4814400859226,2.8478058837449294,1.0599959821379712,B,913,Incorrect
2,relearn,67,797,B,57.03173039365259,39.53055288684177,2.851586519682629,0.6209444727082244,107,467,Incorrect
2,relearn,67,798,B,67.15034665567289,38.23300387559695,3.3575173327836443,0.6005626205012273,100,437,Incorrect
2,relearn,67,799,A,51.146287305119046,65.97776303511725,2.5573143652559525,1.0363762782570627,107,200,Correct
2,relearn,67,800,A,27.923586954028117,59.31609584052827,1.3961793477014057,0.9317350546611585,107,5965,Correct
2,relearn,67,801,B,88.61919319422304,64.94107685565322,4.430959659711152,1.0200920498296515,100,173,Incorrect
2,relearn,67,802,A,60.50846607138407,84.66999830096037,3.0254233035692035,1.3299932232087868,100,199,Correct
2,relearn,67,803,A,37.061208764123876,56.4991526495223,1.8530604382061937,0.8874866144889376,A,361,Correct
2,relearn,67,804,B,35.55725084158177,15.574628475911254,1.7778625420790886,0.24464569201156594,100,1262,Correct
2,relearn,67,805,A,66.58492219550966,82.05230492952178,3.329246109775483,1.2888745918834759,100,1855,Correct
2,relearn,67,806,B,60.54233812693433,40.781787954515764,3.0271169063467163,0.6405988271908172,100,98,Incorrect
2,relearn,67,807,A,41.077382216916774,50.99064958461898,2.0538691108458385,0.800959250684052,100,95,Incorrect
2,relearn,67,808,B,50.96203981483725,37.555016258512275,2.5481019907418623,0.589912815915937,100,91,Incorrect
2,relearn,67,809,B,55.16630382690406,24.899824405414186,2.758315191345203,0.39112552713862525,107,86,Correct
2,relearn,67,810,A,49.430945872081054,76.02544460660359,2.471547293604053,1.194204891310018,107,1344,Correct
2,relearn,67,811,A,13.895453435590824,33.74267057384602,0.6947726717795412,0.5300286299364757,107,506,Correct
2,relearn,67,812,B,59.76296171136354,34.36500946158417,2.988148085568177,0.5398043063252829,107,136,Correct
2,relearn,67,813,B,62.538490256650995,48.70069991113702,3.1269245128325496,0.7649888053275458,100,120,Incorrect
2,relearn,67,814,B,65.89728966754379,57.09233996442094,3.294864483377189,0.8968043790423789,B,1095,Correct
2,relearn,67,815,A,44.60613058452374,65.78652788430743,2.230306529226187,1.0333723635326015,B,709,Incorrect
2,relearn,67,816,B,38.37593625755497,23.184004665987782,1.9187968128777484,0.36417349369729346,100,188,Incorrect
2,relearn,67,817,A,64.0709939882237,88.39587808939727,3.203549699411185,1.3885192060663472,B,1068,Incorrect
2,relearn,67,818,A,20.881408090887955,35.57649339422248,1.0440704045443978,0.5588342514388758,107,341,Correct
2,relearn,67,819,B,41.24881843206204,22.434201249657352,2.062440921603102,0.3523956091753924,B,2166,Correct
2,relearn,67,820,A,10.835490603512426,34.652605568096845,0.5417745301756213,0.544321855402389,107,68,Correct
2,relearn,67,821,B,41.94458343362035,23.476341851179193,2.0972291716810174,0.3687655154641358,100,180,Incorrect
2,relearn,67,822,A,23.98073939468329,34.5536157107479,1.1990369697341645,0.5427669263592523,107,301,Incorrect
2,relearn,67,823,A,14.679439118376067,39.431540588163074,0.7339719559188034,0.6193891911575043,A,386,Correct
2,relearn,67,824,B,69.38067624501694,58.898405266965554,3.4690338122508475,0.9251739864742669,107,503,Incorrect
2,relearn,67,825,B,63.93484551472323,41.01187011972841,3.1967422757361614,0.6442129493905876,107,403,Correct
2,relearn,67,826,B,87.25124199771831,64.01287575450597,4.362562099885915,1.0055119010275606,100,172,Incorrect
2,relearn,67,827,A,15.960549249671253,33.91642063374402,0.7980274624835627,0.5327578894951573,B,1325,Incorrect
2,relearn,67,828,A,48.26283081169582,66.62973811091415,2.413141540584791,1.0466174787992988,107,131,Incorrect
2,relearn,67,829,A,25.60039271247725,39.927204045465075,1.2800196356238627,0.6271750545380687,B,1373,Incorrect
2,relearn,67,830,B,37.66820037479674,16.369919415346263,1.883410018739837,0.25713809287554373,107,1022,Incorrect
2,relearn,67,831,B,33.902696134779944,21.3944851704977,1.6951348067389973,0.3360637871948567,100,186,Correct
2,relearn,67,832,A,11.490750651027664,36.014114115577556,0.5745375325513833,0.5657083816552146,100,53,Incorrect
2,relearn,67,833,A,26.51398983132022,54.64440094741576,1.325699491566011,0.8583522428810824,100,89,Correct
2,relearn,67,834,A,39.53268665938542,72.4813261539729,1.976634332969271,1.1385340088388352,107,201,Incorrect
2,relearn,67,835,A,11.731162488768163,37.42994698833661,0.5865581244384082,0.5879482324140686,107,233,Incorrect
2,relearn,67,836,A,55.01617431149367,81.62900094173854,2.7508087155746836,1.2822253483922006,100,33,Incorrect
2,relearn,67,837,A,48.88486046666087,61.73198803455844,2.4442430233330437,0.9696838005043091,100,149,Correct
2,relearn,67,838,B,47.954339092936706,40.362139453615995,2.3977169546468353,0.6340070039532337,107,227,Correct
2,relearn,67,839,B,42.92037743556013,13.926957440718034,2.146018871778006,0.21876413591308744,107,37,Correct
2,relearn,67,840,A,57.26573477234214,77.0949246372074,2.8632867386171075,1.2110042443465476,107,74,Correct
2,relearn,67,841,A,14.070230214932039,42.46919148407193,0.7035115107466019,0.6671044998512928,100,56,Correct
2,relearn,67,842,B,51.27955087764811,42.21805962261427,2.5639775438824057,0.6631597297961043,107,26,Incorrect
2,relearn,67,843,B,60.46355972189048,51.21491238128538,3.0231779860945243,0.8044819624564553,107,172,Incorrect
2,relearn,67,844,A,22.119630282994386,42.13955649161317,1.1059815141497193,0.6619266054979202,107,52,Correct
2,relearn,67,845,A,51.38750068207606,60.46990935078311,2.5693750341038033,0.9498591148983048,107,39,Correct
2,relearn,67,846,B,35.23782319629879,22.860015075864048,1.7618911598149396,0.359084277116432,100,100,Incorrect
2,relearn,67,847,A,54.58837858453502,78.83139660537961,2.729418929226751,1.2382806822384196,107,45,Incorrect
2,relearn,67,848,A,26.897911971995153,48.619460537125946,1.3448955985997577,0.7637127002246686,107,161,Incorrect
2,relearn,67,849,B,36.26534694227167,20.11699382154635,1.8132673471135834,0.31599700001040637,107,188,Incorrect
2,relearn,67,850,A,31.777014588217085,52.873818409577055,1.588850729410854,0.8305399974138401,100,81,Correct
2,relearn,67,851,B,55.023252907925134,44.59086684383008,2.7511626453962568,0.7004316984688862,107,38,Correct
2,relearn,67,852,A,53.96068997161387,73.10490083369768,2.698034498580693,1.1483290970027749,100,107,Incorrect
2,relearn,67,853,B,43.860477627660586,21.008053443017314,2.1930238813830294,0.32999373181402475,100,52,Incorrect
2,relearn,67,854,A,38.275458136542056,71.28328732882277,1.9137729068271028,1.1197152589797998,107,172,Correct
2,relearn,67,855,B,50.99928019976907,29.885111165956832,2.5499640099884533,0.4694342284534215,107,162,Incorrect
2,relearn,67,856,B,62.27586081104913,40.59976664260682,3.1137930405524568,0.6377396431093677,107,34,Correct
2,relearn,67,857,A,47.76381803867201,56.839070882422796,2.3881909019336005,0.8928260376054449,100,167,Correct
2,relearn,67,858,B,43.79809650640047,27.333006568904644,2.1899048253200233,0.4293458631869619,107,245,Correct
2,relearn,67,859,B,85.69102079779519,59.79509259154118,4.2845510398897595,0.939259118031536,107,105,Incorrect
2,relearn,67,860,B,84.93646279166364,69.46374743860682,4.246823139583182,1.09113399321972,100,38,Incorrect
2,relearn,67,861,B,64.74284540940268,32.7083120644599,3.237142270470134,0.5137809644651482,B,503,Correct
2,relearn,67,862,B,54.686419682773916,40.908946664650294,2.734320984138696,0.6425962315388102,107,749,Correct
2,relearn,67,863,A,65.1552465660614,81.29156387255162,3.2577623283030697,1.276924899304168,107,163,Correct
2,relearn,67,864,A,58.30803053909747,70.8298163677362,2.915401526954873,1.1125921537799708,100,297,Correct
2,relearn,67,865,A,28.01564993860604,51.20765839509005,1.4007824969303018,0.8043680171077531,100,72,Incorrect
2,relearn,67,866,A,28.540346411364567,46.94855827313838,1.4270173205682284,0.7374662288376193,B,391,Incorrect
2,relearn,67,867,A,22.52816358513878,36.442911401251976,1.1264081792569391,0.5724439136679845,100,583,Incorrect
2,relearn,67,868,A,54.1117476986468,73.93953457521962,2.7055873849323397,1.1614394931567924,100,313,Correct
2,relearn,67,869,B,40.08384957893173,20.403763213678108,2.0041924789465866,0.32050156308838407,107,126,Incorrect
2,relearn,67,870,B,62.17139193847313,48.927790239087685,3.1085695969236564,0.7685559318575014,B,542,Correct
2,relearn,67,871,A,53.86463886127515,66.05736904595389,2.6932319430637572,1.0376267265511927,B,452,Incorrect
2,relearn,67,872,A,16.47406682484622,36.27209912016146,0.8237033412423109,0.5697608006309002,107,351,Correct
2,relearn,67,873,B,80.57449756251,49.56425902788536,4.028724878125501,0.7785535602131313,107,22,Incorrect
2,relearn,67,874,B,50.83733027409099,41.67414193833733,2.5418665137045493,0.6546158907906942,100,32,Incorrect
2,relearn,67,875,B,60.482916351479176,46.18160231445148,3.0241458175739586,0.7254189128104307,107,114,Incorrect
2,relearn,67,876,B,40.304340740059104,14.665983317853708,2.015217037002955,0.23037272724519833,107,390,Correct
2,relearn,67,877,B,53.76493639876757,37.06860399523197,2.6882468199383784,0.58227226995125,100,283,Incorrect
2,relearn,67,878,B,66.35964963002883,37.136576978746014,3.317982481501441,0.5833399870795015,107,336,Correct
2,relearn,67,879,A,67.26130167481057,84.62584154529792,3.3630650837405285,1.3292996105128092,100,256,Incorrect
2,relearn,67,880,A,35.5640429449094,67.19804538005525,1.77820214724547,1.0555444285078757,100,70,Incorrect
2,relearn,67,881,B,74.96200115675428,43.56896369300395,3.748100057837714,0.6843796813123082,100,25,Correct
2,relearn,67,882,B,74.67699401545194,46.86272121235411,3.733849700772597,0.7361179034397913,107,244,Incorrect
2,relearn,67,883,B,43.64778742474914,28.14669443282899,2.182389371237457,0.4421272422650614,107,183,Incorrect
2,relearn,67,884,B,47.400619857340764,17.89117154330545,2.370030992867038,0.28103386542281583,107,12,Correct
2,relearn,67,885,A,54.40210908625846,79.13451313148495,2.720105454312923,1.2430420254963905,100,162,Incorrect
2,relearn,67,886,A,24.059899653237323,41.43325602323313,1.2029949826618662,0.6508320636844711,107,308,Correct
2,relearn,67,887,B,43.62574998533513,19.35147505491589,2.1812874992667566,0.3039722593432495,B,733,Correct
2,relearn,67,888,A,49.77423965631653,77.27650224622285,2.4887119828158264,1.2138564587592442,B,619,Incorrect
2,relearn,67,889,A,16.583090710596956,43.44537868744546,0.8291545355298479,0.6824384125845262,A,584,Correct
2,relearn,67,890,A,48.61948954593076,70.24118472453645,2.4309744772965383,1.1033459495502365,B,1061,Incorrect
2,relearn,67,891,A,31.326850144968112,46.09801014463158,1.5663425072484056,0.7241058500774118,A,350,Correct
2,relearn,67,892,A,27.118059589278833,39.28289784651588,1.3559029794639417,0.617054316431663,A,613,Correct
2,relearn,67,893,A,46.20608886028847,61.51903153468676,2.3103044430144233,0.9663386876266536,100,671,Incorrect
2,relearn,67,894,B,66.69020529022654,56.38805720378487,3.3345102645113274,0.8857415313080577,B,571,Correct
2,relearn,67,895,A,22.543460616696706,47.435508746586144,1.1271730308348353,0.7451152289878471,A,486,Correct
2,relearn,67,896,A,62.24357466916522,87.54141250109234,3.112178733458261,1.375097291991527,107,528,Incorrect
2,relearn,67,897,B,60.5255618948183,52.257475594633,3.026278094740915,0.8208585071162346,100,72,Correct
2,relearn,67,898,B,59.6628810916274,35.46268296444764,2.98314405458137,0.557046521388463,100,289,Correct
