experiment,condition,subject,trial,cat,x,y,xt,yt,resp,rt,fb
2,new_learn,60,0,A,15.702218477215904,41.07194311356456,0.7851109238607953,0.6451565737711615,A,2085,Correct
2,new_learn,60,1,A,56.102081562569246,75.55724442282609,2.805104078128462,1.186850420021194,B,921,Incorrect
2,new_learn,60,2,B,84.82126690357913,67.20139480346629,4.241063345178957,1.0555970411277849,B,926,Correct
2,new_learn,60,3,B,78.97406496848657,52.37113589566549,3.9487032484243287,0.822643878949877,B,836,Correct
2,new_learn,60,4,B,34.09601424355884,17.261128834158395,1.704800712177942,0.27113717769029483,A,681,Incorrect
2,new_learn,60,5,A,41.6655846738916,74.00263682375888,2.0832792336945802,1.1624307009589718,B,1117,Incorrect
2,new_learn,60,6,A,49.80986495839224,66.02114825762112,2.490493247919612,1.0370577717385254,A,1365,Correct
2,new_learn,60,7,A,42.103606162495396,72.98291504985377,2.10518030812477,1.1464129487909427,A,905,Correct
2,new_learn,60,8,B,39.27812282868601,17.477904424819346,1.9639061414343004,0.274542280705785,B,1112,Correct
2,new_learn,60,9,A,19.556680194164933,48.215642077585464,0.9778340097082466,0.757369534695287,A,1328,Correct
2,new_learn,60,10,B,69.37981275570766,40.81746087444629,3.4689906377853834,0.6411591761067463,B,731,Correct
2,new_learn,60,11,B,67.17335669866458,53.606228973030454,3.358667834933229,0.842044675641624,B,620,Correct
2,new_learn,60,12,B,63.16417037732867,46.3216203118493,3.158208518866433,0.7276183103704076,B,653,Correct
2,new_learn,60,13,A,58.87907331486248,69.86923761782016,2.943953665743124,1.0975034180603171,A,875,Correct
2,new_learn,60,14,A,19.449986212691744,36.092920731925304,0.9724993106345872,0.5669462730900764,B,745,Incorrect
2,new_learn,60,15,B,36.503237097648935,20.06681466121773,1.8251618548824466,0.3152087876031479,A,1020,Incorrect
2,new_learn,60,16,A,60.304039104330826,84.70067551337102,3.0152019552165417,1.3304750997344963,B,866,Incorrect
2,new_learn,60,17,A,54.35970583713139,64.48900628590583,2.7179852918565697,1.0129909419255387,B,652,Incorrect
2,new_learn,60,18,A,47.48011118334279,59.99758487971031,2.3740055591671396,0.9424398594561398,A,1873,Correct
2,new_learn,60,19,A,25.303036746116724,39.96923389852242,1.2651518373058364,0.6278352579260508,A,1991,Correct
2,new_learn,60,20,A,47.40979400211208,60.74939665242745,2.370489700105604,0.9542492911663923,A,963,Correct
2,new_learn,60,21,B,76.55924941561274,48.43912343764216,3.827962470780637,0.7608799716901288,B,621,Correct
2,new_learn,60,22,A,47.26352552955927,69.81216103920688,2.3631762764779634,1.0966068612599995,B,631,Incorrect
2,new_learn,60,23,A,55.06234580167889,77.96147769716447,2.753117290083944,1.224616027982082,A,664,Correct
2,new_learn,60,24,B,44.449068102360506,19.541171250135225,2.2224534051180256,0.30695200020982444,B,2461,Correct
2,new_learn,60,25,B,35.008836935600485,22.7013713672713,1.750441846780024,0.35659230756916593,B,1071,Correct
2,new_learn,60,26,B,52.407022031970584,32.531647874106,2.6203511015985295,0.5110059298523072,B,923,Correct
2,new_learn,60,27,A,64.8218014537335,88.83313656845597,3.2410900726866747,1.3953876461940002,A,940,Correct
2,new_learn,60,28,B,40.817845061213646,22.81541725493753,2.040892253060682,0.35838373618348773,A,1719,Incorrect
2,new_learn,60,29,B,45.86291518359177,17.78161359542169,2.2931457591795885,0.2793129332017459,B,672,Correct
2,new_learn,60,30,B,53.51537294491528,35.75408345920991,2.6757686472457642,0.561623829656451,B,780,Correct
2,new_learn,60,31,A,60.7014431722455,73.02768953991577,3.035072158612275,1.147116264836178,A,1379,Correct
2,new_learn,60,32,B,86.43092368254817,60.18431412616778,4.321546184127408,0.9453729956005454,A,979,Incorrect
2,new_learn,60,33,A,57.395418268644065,80.93719836920346,2.869770913432203,1.2713585389941469,B,1149,Incorrect
2,new_learn,60,34,A,41.71722218664871,60.465700814075056,2.0858611093324355,0.949793007358283,A,1125,Correct
2,new_learn,60,35,B,81.88660318840766,60.44830157482625,4.094330159420383,0.9495197007472724,B,1011,Correct
2,new_learn,60,36,A,17.826903603522187,47.995454299576906,0.8913451801761093,0.7539108331662773,B,1118,Incorrect
2,new_learn,60,37,B,42.77539280222363,29.472507343292257,2.1387696401111813,0.4629530627627909,B,794,Correct
2,new_learn,60,38,B,35.285335083182346,15.580107266145582,1.7642667541591175,0.24473175264731956,A,3138,Incorrect
2,new_learn,60,39,B,68.91175381336518,36.34725040547258,3.445587690668259,0.5709412742601064,B,622,Correct
2,new_learn,60,40,A,43.936313100646515,75.92110474619678,2.1968156550323257,1.1925659246153646,B,701,Incorrect
2,new_learn,60,41,A,49.29021808671287,59.76243977525868,2.4645109043356435,0.9387462087927756,A,1574,Correct
2,new_learn,60,42,B,45.756659296798944,26.828110256804834,2.2878329648399474,0.4214149704623752,A,2165,Incorrect
2,new_learn,60,43,B,49.67590196277357,42.50982081295174,2.4837950981386787,0.6677427038569383,B,1052,Correct
2,new_learn,60,44,B,53.234763821548384,28.756799392526446,2.661738191077419,0.4517107485615825,B,3818,Correct
2,new_learn,60,45,A,26.004180132704086,37.682905920705764,1.3002090066352041,0.5919217020320227,A,892,Correct
2,new_learn,60,46,A,21.674103884505765,53.01699119328206,1.0837051942252882,0.8327889502412484,A,930,Correct
2,new_learn,60,47,B,38.13509569699307,29.21664004631888,1.9067547848496533,0.45893390866046374,B,2611,Correct
2,new_learn,60,48,B,61.54275885979966,47.856393085254034,3.0771379429899834,0.7517264647196973,B,1113,Correct
2,new_learn,60,49,B,69.78290767027906,49.219427082110705,3.489145383513953,0.7731369526752875,B,1936,Correct
2,new_learn,60,50,B,58.61786550608392,48.50677048403769,2.930893275304196,0.761942569010095,B,721,Correct
2,new_learn,60,51,A,18.559990586271923,42.49553278512557,0.9279995293135961,0.6675182680406734,A,719,Correct
2,new_learn,60,52,A,29.36186918733972,55.99709746004913,1.468093459366986,0.87960035001421,A,577,Correct
2,new_learn,60,53,A,20.278831863552615,36.94792195970169,1.0139415931776308,0.5803766009700391,A,606,Correct
2,new_learn,60,54,B,44.487045580548106,24.285532949567667,2.2243522790274053,0.3814762595143732,B,892,Correct
2,new_learn,60,55,A,53.482368451621674,64.16400036653013,2.674118422581084,1.0078857608821195,B,610,Incorrect
2,new_learn,60,56,B,40.440226945118795,18.890497116538,2.02201134725594,0.29673123481987473,A,1136,Incorrect
2,new_learn,60,57,B,56.63068039577399,32.258541170234416,2.8315340197886996,0.5067159797796617,B,697,Correct
2,new_learn,60,58,A,56.22795987354986,74.85885402025441,2.8113979936774927,1.17588012923091,B,852,Incorrect
2,new_learn,60,59,B,64.89634868919566,41.365577516814625,3.2448174344597827,0.6497689721916197,A,656,Incorrect
2,new_learn,60,60,B,82.55604371316251,58.92281944570284,4.127802185658125,0.9255574834970892,B,2592,Correct
2,new_learn,60,61,B,70.49498820969119,49.61869716371151,3.5247494104845596,0.7794086724510638,B,3361,Correct
2,new_learn,60,62,B,76.84130989406479,54.62557229673357,3.84206549470324,0.8580564831277815,A,970,Incorrect
2,new_learn,60,63,A,19.89911443811001,51.23666636430697,0.9949557219055006,0.8048236732226902,A,788,Correct
2,new_learn,60,64,B,46.523559406007614,18.379361512150936,2.326177970300381,0.2887023355212219,A,640,Incorrect
2,new_learn,60,65,B,75.92072592891144,60.12956596313256,3.796036296445572,0.9445130134666007,B,700,Correct
2,new_learn,60,66,B,73.55359475207216,62.58112802319738,3.677679737603608,0.9830220602551961,B,2299,Correct
2,new_learn,60,67,A,51.85842614135085,80.33867013700821,2.592921307067542,1.2619568795079934,B,2694,Incorrect
2,new_learn,60,68,A,18.168010097552,43.86490506560247,0.9084005048775999,0.6890283175225522,A,1023,Correct
2,new_learn,60,69,B,84.93941347242898,60.50798013068744,4.246970673621449,0.9504571293106241,A,918,Incorrect
2,new_learn,60,70,A,46.19545391594689,69.99479350937317,2.309772695797345,1.0994756453929062,B,686,Incorrect
2,new_learn,60,71,A,43.783499329077195,71.83100106627614,2.1891749664538596,1.1283187262490688,A,769,Correct
2,new_learn,60,72,B,83.51622202950733,54.788598233032346,4.175811101475366,0.8606172885468856,A,911,Incorrect
2,new_learn,60,73,B,34.025752811497206,19.355621669806837,1.7012876405748603,0.3040373942176428,B,597,Correct
2,new_learn,60,74,A,47.261311426809776,57.7090846573448,2.363065571340489,0.9064921820245293,B,642,Incorrect
2,new_learn,60,75,B,49.77686787053633,19.803740943054308,2.4888433935268166,0.31107643530147405,A,695,Incorrect
2,new_learn,60,76,B,60.67038853749246,49.372628799361955,3.033519426874623,0.7755434396224568,A,744,Incorrect
2,new_learn,60,77,B,34.73310713944231,12.352806798821423,1.7366553569721157,0.1940374354519572,B,692,Correct
2,new_learn,60,78,A,52.326240996430016,65.30684191220715,2.6163120498215005,1.0258374739026999,B,698,Incorrect
2,new_learn,60,79,B,54.568257253956354,25.068057706292667,2.7284128626978177,0.3937681296492702,A,881,Incorrect
2,new_learn,60,80,A,34.713616120681266,46.8373019855471,1.7356808060340632,0.7357186191588069,B,785,Incorrect
2,new_learn,60,81,A,50.996367815691286,78.85396570153912,2.5498183907845644,1.238635196771884,A,7603,Correct
2,new_learn,60,82,A,67.89397144087376,85.88572258567518,3.394698572043688,1.3490897756170406,A,643,Correct
2,new_learn,60,83,B,50.92788265072815,35.8602498316218,2.5463941325364075,0.5632914871345883,B,1098,Correct
2,new_learn,60,84,A,35.681158864694346,48.08134164061486,1.7840579432347172,0.7552599483644833,B,1048,Incorrect
2,new_learn,60,85,A,42.198471350734366,65.68170644536706,2.1099235675367183,1.0317258322200324,A,621,Correct
2,new_learn,60,86,A,41.5778491970058,69.95557387353593,2.07889245985029,1.0988595847937928,A,773,Correct
2,new_learn,60,87,B,46.82365649362798,16.569413572363416,2.341182824681399,0.2602717397661396,A,1184,Incorrect
2,new_learn,60,88,A,30.999084654253238,56.32521266017269,1.5499542327126619,0.8847543715254065,A,1045,Correct
2,new_learn,60,89,A,46.542361078494565,61.136214047081104,2.3271180539247283,0.9603254045930155,A,917,Correct
2,new_learn,60,90,B,53.7259129012498,45.78092608804588,2.68629564506249,0.7191251053637112,A,2761,Incorrect
2,new_learn,60,91,B,41.085525619296426,25.133662691540096,2.0542762809648214,0.39479865034773115,A,821,Incorrect
2,new_learn,60,92,A,45.576799529928,63.8761140422942,2.2788399764964002,1.0033636530756762,B,516,Incorrect
2,new_learn,60,93,A,50.26996882179169,78.56617266663545,2.5134984410895846,1.2341145543508458,B,3655,Incorrect
2,new_learn,60,94,A,52.986983984801064,76.88539347855574,2.6493491992400533,1.2077129366029564,A,571,Correct
2,new_learn,60,95,A,42.22757850762432,57.805582927779405,2.111378925381216,0.9080079733119367,B,1550,Incorrect
2,new_learn,60,96,A,50.65819628816662,70.42815121331313,2.532909814408331,1.106282812288278,A,1228,Correct
2,new_learn,60,97,B,56.14696416535824,25.088182006460894,2.807348208267912,0.3940842414171059,A,875,Incorrect
2,new_learn,60,98,B,47.172708478913805,24.84060721515938,2.3586354239456906,0.3901953456892716,B,1073,Correct
2,new_learn,60,99,A,27.107564750848084,48.83900462937164,1.3553782375424044,0.7671612907613591,A,6624,Correct
2,new_learn,60,100,B,53.46871473887693,45.659556677141694,2.6734357369438464,0.7172186391153756,B,831,Correct
2,new_learn,60,101,A,64.34605464933657,79.86363448374765,3.217302732466828,1.2544950369156103,A,1891,Correct
2,new_learn,60,102,B,43.6391022314737,33.59370969736828,2.1819551115736853,0.5276887579604019,B,1202,Correct
2,new_learn,60,103,B,76.23004336568218,58.672359500896064,3.811502168284109,0.9216232678839719,A,4024,Incorrect
2,new_learn,60,104,A,31.244658983460823,58.79395810573631,1.5622329491730411,0.9235333343022363,A,1151,Correct
2,new_learn,60,105,B,45.11724591816346,18.804033121468837,2.255862295908173,0.2953730615613282,A,7164,Incorrect
2,new_learn,60,106,B,56.98222573754564,37.777612200394124,2.849111286877282,0.5934093447946117,A,5497,Incorrect
2,new_learn,60,107,B,46.98404240756756,29.372005228494608,2.349202120378378,0.46137437923519825,A,2385,Incorrect
2,new_learn,60,108,A,42.96852227071112,64.49341721244461,2.148426113535556,1.0130602285975874,B,6928,Incorrect
2,new_learn,60,109,B,56.701266425015405,31.956038159948662,2.8350633212507703,0.501964273605649,B,6099,Correct
2,new_learn,60,110,B,62.60268516313058,44.802155773503166,3.130134258156529,0.7037506172151154,B,778,Correct
2,new_learn,60,111,B,44.904543872526894,23.1877569560971,2.2452271936263446,0.36423243453250137,A,1172,Incorrect
2,new_learn,60,112,A,45.90314243359273,73.96776862132458,2.2951571216796363,1.1618829925159146,B,812,Incorrect
2,new_learn,60,113,A,61.62899027291344,80.61065345655832,3.081449513645672,1.2662291835009816,A,1453,Correct
2,new_learn,60,114,A,34.298529358895195,62.178796761448396,1.7149264679447598,0.9767022555740955,A,15980,Correct
2,new_learn,60,115,A,40.76757882966739,60.79245370681757,2.0383789414833697,0.9549256297951784,B,1003,Incorrect
2,new_learn,60,116,B,76.93365817073945,50.996778683127474,3.8466829085369727,0.8010555263382891,B,1536,Correct
2,new_learn,60,117,B,54.81308120321227,36.31110959538412,2.7406540601606135,0.5703735757427629,B,925,Correct
2,new_learn,60,118,B,49.54745142451152,41.20391465515826,2.477372571225576,0.64722957789893,B,724,Correct
2,new_learn,60,119,A,58.19493432266785,81.5133334895196,2.9097467161333923,1.280408448301448,B,2982,Incorrect
2,new_learn,60,120,A,63.87316279326703,76.37178052674676,3.1936581396633517,1.1996451232219985,A,699,Correct
2,new_learn,60,121,A,21.76445297225326,37.80154435185804,1.088222648612663,0.5937852701507298,A,1750,Correct
2,new_learn,60,122,A,18.770980190613393,40.55248367555721,0.9385490095306696,0.6369969239997528,A,963,Correct
2,new_learn,60,123,B,67.15570480017864,43.66484920348118,3.3577852400089316,0.685885847388813,B,6258,Correct
2,new_learn,60,124,A,49.50370541258914,60.72812407790887,2.4751852706294573,0.9539151423472398,B,9999,Incorrect
2,new_learn,60,125,B,46.5204276002375,38.19769967420621,2.3260213800118748,0.6000080634025773,B,1829,Correct
2,new_learn,60,126,B,41.91307608477766,32.0494645595408,2.095653804238883,0.503431812058699,A,4315,Incorrect
2,new_learn,60,127,A,13.212817290858354,30.440943645041656,0.6606408645429177,0.4781652246180188,A,937,Correct
2,new_learn,60,128,A,50.37407536725282,73.31009321674055,2.518703768362641,1.1515522514184753,B,1809,Incorrect
2,new_learn,60,129,B,80.85564216198186,52.350408150751655,4.042782108099093,0.8223182882941433,B,1294,Correct
2,new_learn,60,130,B,51.93675014614023,27.463298005083786,2.5968375073070114,0.4313924762805922,A,1542,Incorrect
2,new_learn,60,131,A,27.303045939160363,47.13498084121007,1.3651522969580183,0.7403945476892059,A,1000,Correct
2,new_learn,60,132,A,57.076687220669974,77.42910455189835,2.8538343610334986,1.2162535301713993,A,1689,Correct
2,new_learn,60,133,B,81.52729435610733,51.14618495393517,4.076364717805367,0.8034023945521377,B,1604,Correct
2,new_learn,60,134,B,52.59870006365999,29.300474883563908,2.6299350031829993,0.4602507832044831,B,1672,Correct
2,new_learn,60,135,A,36.38237196780525,65.66830728869512,1.8191185983902625,1.031515358759208,A,5133,Correct
2,new_learn,60,136,A,34.26099787298501,58.60334004790134,1.7130498936492504,0.9205391128515569,A,5997,Correct
2,new_learn,60,137,B,66.50065029017873,45.529324968173796,3.325032514508936,0.7151729642145855,B,1689,Correct
2,new_learn,60,138,A,41.994589697544946,49.222269830042656,2.099729484877247,0.7731816064553826,B,2984,Incorrect
2,new_learn,60,139,B,53.00588199331443,31.15422156949961,2.650294099665722,0.4893693680552433,B,2396,Correct
2,new_learn,60,140,B,87.58864202235985,60.120460092388825,4.379432101117993,0.9443699787834354,B,2241,Correct
2,new_learn,60,141,A,31.826177770461918,54.46063151564058,1.591308888523096,0.8554655993969861,B,3203,Incorrect
2,new_learn,60,142,A,31.01538210060542,41.68133575753218,1.550769105030271,0.6547288910383633,A,1698,Correct
2,new_learn,60,143,B,43.24851174110514,23.4776338833503,2.162425587055257,0.3687858106580206,A,3222,Incorrect
2,new_learn,60,144,A,42.671754702656415,59.940054027591145,2.1335877351328207,0.9415361669442782,B,7005,Incorrect
2,new_learn,60,145,A,55.58655496924778,68.86384346034579,2.779327748462389,1.0817107235648993,A,7516,Correct
2,new_learn,60,146,A,67.22436426761553,79.6409097890959,3.3612182133807766,1.2509964855931557,A,2747,Correct
2,new_learn,60,147,A,38.396633393048916,56.26230349307601,1.9198316696524458,0.8837661966394347,A,6501,Correct
2,new_learn,60,148,B,77.39288372372525,62.952726410582315,3.8696441861862625,0.9888591140746678,B,1885,Correct
2,new_learn,60,149,A,34.43283609781467,63.812194429755515,1.7216418048907338,1.0023596061498172,A,2222,Correct
2,new_learn,60,150,B,60.97702464739073,49.84440420602671,3.0488512323695365,0.7829540703810685,B,1253,Correct
2,new_learn,60,151,B,86.46866801939896,66.22063071827657,4.3234334009699475,1.0401912349031013,B,1342,Correct
2,new_learn,60,152,A,65.94405238186181,87.28470088369713,3.2972026190930905,1.371064875335027,A,1117,Correct
2,new_learn,60,153,A,57.746221856026736,73.19005388990954,2.887311092801337,1.1496666780819043,B,5359,Incorrect
2,new_learn,60,154,B,81.47254761022761,62.13598333634424,4.07362738051138,0.9760297438651844,B,1158,Correct
2,new_learn,60,155,A,37.76603352774051,68.57921399366806,1.8883016763870257,1.0772397743573496,A,9889,Correct
2,new_learn,60,156,B,39.933833211786094,26.733651920622318,1.9966916605893048,0.41993122238726865,B,1158,Correct
2,new_learn,60,157,A,49.96402861716203,60.95454220022721,2.4982014308581015,0.957471709895814,A,3647,Correct
2,new_learn,60,158,B,76.87507130940095,46.20573783597772,3.843753565470047,0.7257980326960178,B,5727,Correct
2,new_learn,60,159,B,63.996475691974574,31.386327717067083,3.1998237845987285,0.4930152828954983,B,6459,Correct
2,new_learn,60,160,B,62.87970447530927,38.85662138243809,3.1439852237654633,0.610358381391938,B,2344,Correct
2,new_learn,60,161,A,25.4616489603594,51.458490068307896,1.27308244801797,0.8083080718170971,A,1192,Correct
2,new_learn,60,162,B,41.68956925495225,14.554384212527541,2.084478462747612,0.22861973259799895,A,1197,Incorrect
2,new_learn,60,163,A,48.97862771974021,79.01507108196084,2.4489313859870108,1.2411658341698175,A,868,Correct
2,new_learn,60,164,A,44.13438693335973,60.25908755988509,2.2067193466679864,0.9465475339507955,A,1282,Correct
2,new_learn,60,165,A,57.012255421700296,77.53071350495424,2.850612771085015,1.2178495998736958,A,1443,Correct
2,new_learn,60,166,B,46.64766363041587,36.43516468956335,2.3323831815207936,0.5723222286053323,B,775,Correct
2,new_learn,60,167,B,61.200854190935004,40.20711882376315,3.06004270954675,0.6315719455937311,B,2461,Correct
2,new_learn,60,168,B,84.60659769570024,65.22180806484073,4.230329884785013,1.0245017653517356,A,1284,Incorrect
2,new_learn,60,169,B,62.59858562189575,29.855483812563346,3.129929281094787,0.46896884307459,B,2142,Correct
2,new_learn,60,170,B,71.7483103594385,57.53246676096541,3.5874155179719254,0.9037178745957396,B,2459,Correct
2,new_learn,60,171,A,15.823726292882746,41.740064211941345,0.7911863146441374,0.6556513954430058,A,7616,Correct
2,new_learn,60,172,B,76.6995429555381,54.92496266419694,3.8349771477769052,0.8627592960226739,B,953,Correct
2,new_learn,60,173,A,38.24531921338377,54.815220010357685,1.9122659606691885,0.8610354624472396,B,3267,Incorrect
2,new_learn,60,174,A,49.79004279004015,66.15342323828136,2.4895021395020076,1.0391355422760051,A,5080,Correct
2,new_learn,60,175,B,78.96371985019098,49.41364748359258,3.948185992509549,0.776187759607651,B,950,Correct
2,new_learn,60,176,A,28.40783627946717,53.55477830175983,1.4203918139733585,0.8412364903871937,A,1301,Correct
2,new_learn,60,177,B,52.12076640118255,21.96083125425964,2.6060383200591275,0.34495993067553604,B,975,Correct
2,new_learn,60,178,A,47.56227667887715,65.85637370286771,2.3781138339438574,1.0344694990849663,A,1047,Correct
2,new_learn,60,179,B,49.62701148885749,37.0405345165725,2.4813505744428745,0.5818313556115167,A,1110,Incorrect
2,new_learn,60,180,B,73.03218125845721,51.007692951292896,3.651609062922861,0.8012269672617283,B,991,Correct
2,new_learn,60,181,A,15.25969574328677,35.60803567487226,0.7629847871643385,0.5593297164247099,A,811,Correct
2,new_learn,60,182,A,47.16181720559893,62.81559581704277,2.3580908602799466,0.9867050717484366,A,4072,Correct
2,new_learn,60,183,A,57.83443916612528,71.21725735929026,2.8917219583062637,1.1186780626437993,A,1177,Correct
2,new_learn,60,184,A,55.96794979411073,66.88047490051063,2.7983974897055366,1.0505560430802037,A,1771,Correct
2,new_learn,60,185,B,63.483381214565746,53.49778454482806,3.1741690607282873,0.8403412345468071,B,1223,Correct
2,new_learn,60,186,B,38.501929441617875,27.09657050990519,1.9250964720808939,0.4256319342569799,B,1211,Correct
2,new_learn,60,187,A,19.46722442307505,35.278050038168544,0.9733612211537525,0.5541463141644172,A,894,Correct
2,new_learn,60,188,B,60.99105241578402,35.041775333935774,3.049552620789201,0.5504349197891832,B,1953,Correct
2,new_learn,60,189,B,50.677955498116845,21.50559346663863,2.5338977749058422,0.3378090722294029,B,1806,Correct
2,new_learn,60,190,B,83.61296291671272,62.62063537634825,4.180648145835636,0.9836426403073039,B,2030,Correct
2,new_learn,60,191,A,40.358405953010674,60.249411863752734,2.0179202976505337,0.9463955484713565,A,1672,Correct
2,new_learn,60,192,B,72.44084990930598,46.435077293194205,3.6220424954652994,0.7294004884658656,B,2141,Correct
2,new_learn,60,193,B,50.67726404420004,41.96627697119514,2.533863202210002,0.6592047371561058,A,2056,Incorrect
2,new_learn,60,194,A,12.538676923600235,36.79372983796975,0.6269338461800118,0.5779545567856667,A,743,Correct
2,new_learn,60,195,B,57.577642633479954,46.10097439082976,2.878882131673998,0.7241524123478098,B,17148,Correct
2,new_learn,60,196,B,77.75359804203478,51.79572726851704,3.8876799021017394,0.8136053813705684,B,1196,Correct
2,new_learn,60,197,B,35.074447356396284,19.13535768136292,1.7537223678198144,0.3005774955779138,A,943,Incorrect
2,new_learn,60,198,A,25.3177840225134,50.653635876124945,1.26588920112567,0.7956654517302327,A,1098,Correct
2,new_learn,60,199,B,87.0418704397268,63.13507171083269,4.3520935219863395,0.9917233873530837,B,700,Correct
2,new_learn,60,200,A,63.479619880482886,74.46246474329305,3.1739809940241446,1.1696536610285924,A,1311,Correct
2,new_learn,60,201,B,82.69652794105927,59.02358084265846,4.134826397052964,0.9271402398192954,A,1080,Incorrect
2,new_learn,60,202,B,48.502155475999054,21.457129666769045,2.4251077737999527,0.3370478046412262,B,1289,Correct
2,new_learn,60,203,A,32.176459758043386,43.61853082863335,1.6088229879021694,0.6851582800580721,B,1159,Incorrect
2,new_learn,60,204,A,48.88421439249632,74.40552867243584,2.4442107196248157,1.1687593113189456,A,1324,Correct
2,new_learn,60,205,B,46.55631027053792,20.34444410248724,2.327815513526896,0.31956978066871056,B,675,Correct
2,new_learn,60,206,B,80.14343474550415,52.188550184372886,4.007171737275208,0.8197758293036406,B,840,Correct
2,new_learn,60,207,B,49.55036054390469,22.87253243512085,2.4775180271952344,0.35928089933584967,B,1200,Correct
2,new_learn,60,208,A,39.20414801482404,61.513419722854984,1.9602074007412023,0.9662505374925335,A,2172,Correct
2,new_learn,60,209,A,50.74940136427723,71.44100795365742,2.5374700682138616,1.1221927287613005,A,1118,Correct
2,new_learn,60,210,A,35.51607214762939,58.02211856524344,1.7758036073814694,0.9114093071514237,A,951,Correct
2,new_learn,60,211,A,38.92276874026274,64.30592948779785,1.946138437013137,1.010115178305645,A,711,Correct
2,new_learn,60,212,B,78.2835592959076,56.02769356988,3.9141779647953796,0.8800809525835755,B,1274,Correct
2,new_learn,60,213,B,64.58800753703855,51.51905727045511,3.2294003768519275,0.8092594592036679,B,1764,Correct
2,new_learn,60,214,A,56.35669524660363,79.43829501996184,2.817834762330181,1.2478138202420537,A,1594,Correct
2,new_learn,60,215,A,38.97155537209047,59.79270074526189,1.9485777686045236,0.9392215469980384,B,4770,Incorrect
2,new_learn,60,216,B,68.77998622203424,47.24373205595499,3.4389993111017123,0.7421028077757642,B,10466,Correct
2,new_learn,60,217,A,58.07021564320736,70.43855184570806,2.903510782160368,1.1064461850399012,B,756,Incorrect
2,new_learn,60,218,B,56.4795614195984,44.07707690675819,2.8239780709799196,0.6923611050099191,B,1489,Correct
2,new_learn,60,219,A,38.06105480842751,58.12109141991625,1.9030527404213755,0.9129639691171483,A,6389,Correct
2,new_learn,60,220,A,24.05550415467048,55.046732154922125,1.2027752077335239,0.8646720467101421,A,1131,Correct
2,new_learn,60,221,B,70.31761894104896,39.725422999254896,3.515880947052448,0.6240054852760311,B,1514,Correct
2,new_learn,60,222,B,38.75572028039817,16.0193419967581,1.9377860140199088,0.2516312356617885,B,1464,Correct
2,new_learn,60,223,B,50.80215803694776,30.69421947584339,2.5401079018473878,0.48214367206491177,B,637,Correct
2,new_learn,60,224,B,56.524411217157926,47.57070732725249,2.8262205608578963,0.747238923326833,B,1228,Correct
2,new_learn,60,225,A,46.147707434015004,66.96099230586849,2.30738537170075,1.0518208075259954,A,1386,Correct
2,new_learn,60,226,B,68.53812620407514,40.272247995952554,3.4269063102037567,0.632594992238154,B,12313,Correct
2,new_learn,60,227,B,83.65932332307105,67.53170999982599,4.182966166153552,1.0607856200990484,A,2270,Incorrect
2,new_learn,60,228,A,34.8490575888012,47.147688230671946,1.74245287944006,0.7405941548961047,A,764,Correct
2,new_learn,60,229,B,75.40729592921811,43.464113218342426,3.770364796460905,0.6827326939076979,B,2680,Correct
2,new_learn,60,230,B,64.29259026855745,42.799874831138226,3.214629513427872,0.6722988617203327,B,1720,Correct
2,new_learn,60,231,A,35.138305857235395,59.253812262278174,1.7569152928617697,0.9307567065018095,A,1040,Correct
2,new_learn,60,232,B,80.38110769280584,57.257830006329876,4.019055384640292,0.8994038905418957,B,1103,Correct
2,new_learn,60,233,B,32.87925641539214,19.54263176654114,1.643962820769607,0.30697494194788083,B,1503,Correct
2,new_learn,60,234,A,61.55977733973731,80.48713848860405,3.0779888669868654,1.2642890149213137,A,942,Correct
2,new_learn,60,235,B,63.86464068516047,44.23972969459042,3.193232034258023,0.6949160490266174,B,2260,Correct
2,new_learn,60,236,A,24.74316044244477,50.16903207960956,1.2371580221222385,0.7880533130950602,B,1873,Incorrect
2,new_learn,60,237,B,57.379503671779275,43.095318820381685,2.868975183588964,0.6769396850511052,B,1414,Correct
2,new_learn,60,238,A,19.47445992057019,32.42642297885494,0.9737229960285094,0.5093530610628296,A,1975,Correct
2,new_learn,60,239,A,53.48423693436532,67.517266468034,2.6742118467182663,1.0605587416322004,A,1422,Correct
2,new_learn,60,240,A,54.57923035574341,81.59990196122155,2.728961517787171,1.2817682626751048,A,784,Correct
2,new_learn,60,241,B,60.16893055214374,29.226072567272933,3.008446527607187,0.4590820743531342,B,1297,Correct
2,new_learn,60,242,B,58.40516458218339,46.567972446699045,2.9202582291091694,0.7314880006556083,B,3838,Correct
2,new_learn,60,243,B,69.81213159317498,47.74154330144028,3.490606579658749,0.7499224085342189,B,935,Correct
2,new_learn,60,244,B,84.68489484595906,54.881636272421304,4.234244742297953,0.8620787266521294,A,2774,Incorrect
2,new_learn,60,245,B,72.9557810851524,60.307531256184916,3.64778905425762,0.9473084857528368,B,1612,Correct
2,new_learn,60,246,B,36.762545055061494,27.16179045048301,1.8381272527530745,0.4266564066879141,B,3999,Correct
2,new_learn,60,247,A,35.56602365316303,54.71823863683848,1.7783011826581514,0.8595120825943247,A,790,Correct
2,new_learn,60,248,A,47.70264167241807,62.24447393661627,2.385132083620903,0.9777339102291751,A,4398,Correct
2,new_learn,60,249,A,40.46741991280089,70.4778285478867,2.0233709956400445,1.1070631420350094,A,3016,Correct
2,new_learn,60,250,A,61.31832246402436,75.76915613569619,3.065916123201218,1.190179121423006,A,841,Correct
2,new_learn,60,251,A,56.80701218373851,79.40334679991594,2.8403506091869253,1.2472648548852925,A,1208,Correct
2,new_learn,60,252,B,50.673756255471424,35.22388936438185,2.533687812773571,0.5532955602900083,B,780,Correct
2,new_learn,60,253,B,73.31464805197277,56.49643109113016,3.665732402598638,0.8874438643496826,A,1662,Incorrect
2,new_learn,60,254,A,61.05279668825581,83.59267351498109,3.0526398344127905,1.3130706450429734,A,1369,Correct
2,new_learn,60,255,A,36.18327443087838,59.80111751932548,1.809163721543919,0.939353757375864,B,1567,Incorrect
2,new_learn,60,256,A,18.65475210579153,42.31699111884347,0.9327376052895765,0.6647137421049159,B,3825,Incorrect
2,new_learn,60,257,B,51.11296849141861,42.296189913266,2.5556484245709306,0.6643869975317758,B,2400,Correct
2,new_learn,60,258,A,60.16158671172111,83.34378856629327,3.0080793355860553,1.3091611694110397,A,692,Correct
2,new_learn,60,259,B,72.46806268795022,61.71861783883528,3.6234031343975115,0.9694737819610043,B,4291,Correct
2,new_learn,60,260,A,40.80581111569754,63.371730717593714,2.040290555784877,0.9954408183383151,B,4566,Incorrect
2,new_learn,60,261,B,56.954393009141945,40.75125207978251,2.8477196504570976,0.6401191707921525,B,1000,Correct
2,new_learn,60,262,A,34.99202238563234,67.0138064902064,1.749601119281617,1.0526504107936023,A,1309,Correct
2,new_learn,60,263,B,86.02116061295244,64.10721690875002,4.301058030647622,1.006993808413082,B,757,Correct
2,new_learn,60,264,A,15.981980156861304,32.920118668650616,0.7990990078430653,0.5171080148236848,A,1070,Correct
2,new_learn,60,265,B,49.25475771060986,33.16462853190566,2.4627378855304927,0.5209487667743464,B,1489,Correct
2,new_learn,60,266,A,38.53133238743401,50.06654619656335,1.9265666193717008,0.7864434686086871,B,861,Incorrect
2,new_learn,60,267,B,59.46289206097235,37.332826942846694,2.9731446030486177,0.5864226743069314,B,1410,Correct
2,new_learn,60,268,A,43.43185412356581,68.83208999289518,2.1715927061782905,1.081211941264555,A,1030,Correct
2,new_learn,60,269,A,45.48353178274557,65.47689823702466,2.2741765891372783,1.0285087124064158,A,1164,Correct
2,new_learn,60,270,A,30.798574772777492,56.31298988754767,1.5399287386388747,0.8845623766619803,A,7144,Correct
2,new_learn,60,271,B,72.80852672149136,53.15079933352699,3.6404263360745683,0.8348908035931683,B,6348,Correct
2,new_learn,60,272,B,50.55984149273611,42.75212410145498,2.5279920746368054,0.6715487950124505,B,1522,Correct
2,new_learn,60,273,A,46.96391198200835,67.28269698980576,2.3481955991004173,1.0568741328844093,A,1103,Correct
2,new_learn,60,274,B,45.41687770366855,36.68484078587026,2.270843885183427,0.576244131555006,B,851,Correct
2,new_learn,60,275,A,62.189923678217085,76.56437358662465,3.1094961839108546,1.2026703679322222,A,786,Correct
2,new_learn,60,276,A,44.34465774163234,69.745914385755,2.217232887081617,1.0955662612609527,A,1423,Correct
2,new_learn,60,277,A,31.141194070408943,41.575486517792115,1.5570597035204472,0.653066215068586,B,861,Incorrect
2,new_learn,60,278,A,38.070328925928465,45.898623966727776,1.9035164462964231,0.720973899318762,A,1330,Correct
2,new_learn,60,279,A,54.77564370545653,79.39461325536084,2.738782185272827,1.247127668688222,B,772,Incorrect
2,new_learn,60,280,A,25.91462569329525,41.69599652876648,1.2957312846647624,0.6549591818943914,A,1051,Correct
2,new_learn,60,281,B,37.6374720135822,23.666407447906135,1.88187360067911,0.37175105887602333,B,2027,Correct
2,new_learn,60,282,B,52.584363768764206,36.34343979924603,2.62921818843821,0.5708814173974712,B,2923,Correct
2,new_learn,60,283,B,72.50862076643507,39.68225870275657,3.6254310383217536,0.6233274620921483,B,842,Correct
2,new_learn,60,284,B,59.80386437239142,42.06384973317371,2.990193218619571,0.6607374065172176,B,711,Correct
2,new_learn,60,285,A,23.39203869697208,42.383868402587986,1.169601934848604,0.665764248021435,A,1386,Correct
2,new_learn,60,286,A,12.461076177635874,31.30712084797237,0.6230538088817937,0.4917711043051893,A,663,Correct
2,new_learn,60,287,A,48.60991881555741,60.89570091078035,2.4304959407778703,0.956547433082544,A,926,Correct
2,new_learn,60,288,B,31.134273692005035,10.991086765112176,1.5567136846002518,0.17264758718122206,B,2059,Correct
2,new_learn,60,289,B,61.22777132298921,45.030673814368896,3.0613885661494606,0.7073401702070979,A,997,Incorrect
2,new_learn,60,290,A,20.318827410311787,42.60925976633729,1.0159413705155893,0.6693046872841218,A,4222,Correct
2,new_learn,60,291,A,23.20183354942952,38.23012432835715,1.160091677471476,0.6005173886789562,A,1101,Correct
2,new_learn,60,292,A,35.25875930374973,63.51383242304942,1.7629379651874866,0.9976729467079264,A,960,Correct
2,new_learn,60,293,B,52.78933580446258,31.605941056380626,2.639466790223129,0.496464961162587,B,889,Correct
2,new_learn,60,294,B,61.80744139416714,39.120671073702326,3.090372069708357,0.6145060642432297,B,2825,Correct
2,new_learn,60,295,B,46.59927634420623,29.186201180375598,2.3299638172103116,0.4584557760723086,B,2254,Correct
2,new_learn,60,296,A,61.612553850473745,79.80369428451615,3.0806276925236875,1.2535534984678085,A,1240,Correct
2,new_learn,60,297,B,88.13577555284577,65.36429166624202,4.406788777642288,1.0267398925288325,B,3536,Correct
2,new_learn,60,298,A,65.83538481843195,89.40277732238313,3.2917692409215977,1.404335542232615,A,641,Correct
2,new_learn,60,299,B,60.51533572216118,28.54304221713214,3.025766786108059,0.4483530587022282,B,1140,Correct
2,new_learn,60,300,B,48.17668715728935,21.1119928990429,2.4088343578644675,0.33162640897136525,B,864,Correct
2,new_learn,60,301,B,44.17009447522114,16.166790903850902,2.208504723761057,0.2539473576783014,B,776,Correct
2,new_learn,60,302,A,43.43211517111869,68.93644924213451,2.1716057585559345,1.0828512125182772,A,1296,Correct
2,new_learn,60,303,A,36.027112965756245,63.149909815607515,1.8013556482878124,0.9919564637578527,A,1153,Correct
2,new_learn,60,304,B,40.95711936619989,20.132361253428822,2.0478559683099946,0.31623839106593893,B,981,Correct
2,new_learn,60,305,A,15.420200584648256,42.608653951081365,0.7710100292324128,0.6692951711603347,A,1402,Correct
2,new_learn,60,306,B,82.01577428964455,62.97916886972023,4.100788714482228,0.9892744712515203,B,2136,Incorrect
2,new_learn,60,307,A,36.55699531305189,59.342796692093046,1.8278497656525945,0.9321544706567609,A,1008,Correct
2,new_learn,60,308,A,40.390930536236496,55.74524469092294,2.019546526811825,0.8756442559678446,A,1275,Incorrect
2,new_learn,60,309,A,60.28611595772753,79.02096622644257,3.0143057978863768,1.2412584348827957,A,15354,Incorrect
2,new_learn,60,310,B,62.406192003927146,44.233033720705535,3.120309600196357,0.6948108689147905,B,1153,Correct
2,new_learn,60,311,B,51.46785661029096,37.18646775879516,2.573392830514548,0.5841236696199229,B,1083,Correct
2,new_learn,60,312,A,65.9621775500371,81.25013106213365,3.2981088775018548,1.2762740742400347,A,1662,Incorrect
2,new_learn,60,313,A,46.35150987320553,67.59242006514044,2.317575493660277,1.0617392515750028,A,3567,Incorrect
2,new_learn,60,314,A,49.6655066851728,67.82629901392714,2.48327533425864,1.0654130135116906,B,2025,Correct
2,new_learn,60,315,B,46.54889319741032,22.588778381670647,2.3274446598705163,0.3548237010871222,B,872,Correct
2,new_learn,60,316,A,32.54229320498232,64.04078754238435,1.627114660249116,1.005950338366297,A,1498,Correct
2,new_learn,60,317,B,44.45401908095172,19.268488796511257,2.222700954047586,0.302668714244485,B,935,Incorrect
2,new_learn,60,318,A,45.96026846121226,70.84579002181891,2.298013423060613,1.1128430673515568,B,1001,Incorrect
2,new_learn,60,319,A,52.9399425184912,70.64444278364415,2.6469971259245604,1.1096803123302048,A,967,Correct
2,new_learn,60,320,B,50.25647090214501,33.182748419042426,2.5128235451072505,0.5212333932959101,B,2097,Correct
2,new_learn,60,321,A,14.192661905328077,37.34110545597247,0.7096330952664038,0.5865527128870243,A,1026,Correct
2,new_learn,60,322,B,80.51202996572005,54.88009542739916,4.025601498286003,0.8620545231151201,B,3154,Incorrect
2,new_learn,60,323,A,53.71893675845486,82.33044961760764,2.6859468379227427,1.2932436784271037,A,2322,Incorrect
2,new_learn,60,324,B,45.671295376586485,32.516257673116314,2.2835647688293244,0.5107641811404747,B,1045,Correct
2,new_learn,60,325,A,23.326308177931597,48.471088414501885,1.16631540889658,0.7613820763725022,A,1096,Correct
2,new_learn,60,326,B,57.43574949612076,48.322684275380055,2.8717874748060384,0.7590509496063651,B,2823,Incorrect
2,new_learn,60,327,B,30.0696510299233,12.449591932485866,1.5034825514961652,0.19555773277644176,B,1593,Correct
2,new_learn,60,328,B,68.13457339947651,59.08118782836122,3.406728669973825,0.9280451282346915,B,3064,Incorrect
2,new_learn,60,329,B,78.29627133691551,47.64022771587608,3.9148135668457757,0.7483309470377058,B,840,Incorrect
2,new_learn,60,330,B,72.99433765427813,57.858187583130444,3.649716882713906,0.9088342853059139,A,956,Incorrect
2,new_learn,60,331,B,70.66604666140466,41.97899772992359,3.533302333070233,0.6594045543669528,B,1605,Incorrect
2,new_learn,60,332,A,22.83273597203213,52.65485121699309,1.1416367986016065,0.8271004687958454,A,1334,Incorrect
2,new_learn,60,333,A,61.18642082787805,75.6586158224149,3.0593210413939027,1.1884427582423556,A,3159,Correct
2,new_learn,60,334,B,76.43735242249426,61.64524534395531,3.8218676211247127,0.968321249506552,B,2514,Incorrect
2,new_learn,60,335,A,37.54028911561736,58.83303751231314,1.8770144557808681,0.9241471921852784,A,1618,Correct
2,new_learn,60,336,B,55.93097490366987,30.767934769125084,2.7965487451834936,0.48330158918406657,B,4081,Incorrect
2,new_learn,60,337,A,44.9908900719074,74.98834578096815,2.24954450359537,1.1779141810517035,B,1242,Incorrect
2,new_learn,60,338,A,49.921206327760316,61.710678147603836,2.496060316388016,0.9693490655827819,A,3995,Incorrect
2,new_learn,60,339,A,42.761640924324226,50.44078876873345,2.1380820462162116,0.7923220571856376,A,2169,Correct
2,new_learn,60,340,B,56.438781074972326,42.444301353091475,2.821939053748616,0.6667135265881176,B,7109,Correct
2,new_learn,60,341,A,28.319295743525807,49.427694699435904,1.4159647871762902,0.776408412758135,A,3762,Incorrect
2,new_learn,60,342,A,36.71788001719848,65.10725583519539,1.835894000859924,1.0227023831362052,B,6190,Correct
2,new_learn,60,343,B,89.68787645356662,68.49761166624273,4.484393822678331,1.0759579679955735,B,3097,Correct
2,new_learn,60,344,B,35.29300428230235,18.50706445458553,1.7646502141151175,0.2907082886501935,B,2015,Correct
2,new_learn,60,345,A,12.999679162558007,35.91658603216047,0.6499839581279003,0.5641764141033055,A,736,Correct
2,new_learn,60,346,A,30.93780127540591,49.449104778886515,1.5468900637702956,0.776744721499709,A,1465,Incorrect
2,new_learn,60,347,A,53.49363326450893,63.80672124009595,2.6746816632254466,1.0022736334876863,B,3911,Incorrect
2,new_learn,60,348,A,33.04079014730508,62.37708833875665,1.652039507365254,0.9798170123867972,A,1441,Correct
2,new_learn,60,349,A,58.61886174247826,70.30381770224663,2.930943087123913,1.1043297860634702,A,828,Correct
2,new_learn,60,350,A,33.09190393974743,49.39760597165018,1.6545951969873716,0.7759357801272974,B,3231,Incorrect
2,new_learn,60,351,A,36.920628507497526,62.27338738295718,1.8460314253748762,0.9781880815822479,A,792,Incorrect
2,new_learn,60,352,A,45.443830087043786,74.62522224034312,2.272191504352189,1.1722102498138378,B,1127,Correct
2,new_learn,60,353,A,16.46158671981164,38.45540332367371,0.8230793359905819,0.6040560628624292,A,1780,Incorrect
2,new_learn,60,354,B,71.03972396588041,44.9466648658415,3.5519861982940206,0.7060205607294505,B,1670,Correct
2,new_learn,60,355,B,52.582876481431526,25.393409184518532,2.6291438240715763,0.39887873871841506,B,1039,Correct
2,new_learn,60,356,B,58.75503771117311,48.55599431323162,2.9377518855586557,0.7627157751109812,B,1315,Incorrect
2,new_learn,60,357,B,54.33255052894077,26.935905515310175,2.7166275264470388,0.4231082144234362,B,1106,Incorrect
2,new_learn,60,358,B,78.9259937066943,50.17341472533554,3.9462996853347145,0.7881221555331405,B,1214,Correct
2,new_learn,60,359,A,67.73607471064109,85.37441745842463,3.386803735532055,1.341058213459475,A,1008,Incorrect
2,new_learn,60,360,B,49.46185847765588,39.941886928850074,2.473092923882794,0.6274056927309479,B,879,Incorrect
2,new_learn,60,361,A,51.2290399778482,70.10878176971019,2.56145199889241,1.101266168799258,A,4110,Correct
2,new_learn,60,362,B,70.02652389512708,45.15929869043095,3.501326194756354,0.7093606050356253,B,2153,Correct
2,new_learn,60,363,B,67.50482756486147,45.89769954168422,3.3752413782430732,0.7209593784841339,B,3006,Correct
2,new_learn,60,364,A,27.17446321926129,49.54764230524445,1.3587231609630646,0.7782925453442542,A,6266,Correct
2,new_learn,60,365,B,42.531941449802034,32.23775912805798,2.1265970724901018,0.5063895362245212,B,8826,Incorrect
2,new_learn,60,366,B,38.28205362193444,20.88393218818098,1.9141026810967219,0.3280440397022839,B,922,Correct
2,new_learn,60,367,B,70.80196650987939,53.24401376052128,3.5400983254939695,0.8363550123884373,A,1314,Correct
2,new_learn,60,368,B,74.18379185600924,59.40246358187444,3.709189592800462,0.9330917159697599,A,2371,Correct
2,new_learn,60,369,B,35.38390458082084,14.733281404362785,1.7691952290410422,0.2314298431160862,B,886,Incorrect
2,new_learn,60,370,B,57.022756265621766,38.903502654160135,2.8511378132810883,0.6110947906861024,A,1089,Correct
2,new_learn,60,371,A,48.58930692640321,77.96912291953356,2.4294653463201605,1.2247361188542312,A,1592,Correct
2,new_learn,60,372,B,86.61257285665371,66.23730499145171,4.330628642832686,1.0404531537736559,A,23627,Correct
2,new_learn,60,373,A,60.47747714409191,76.56048360503748,3.0238738572045953,1.2026092642443376,A,1962,Correct
2,new_learn,60,374,B,78.04423133306076,53.91774054691681,3.9022115666530386,0.8469378880017719,B,2425,Correct
2,new_learn,60,375,B,69.22943243990765,41.35992966670558,3.4614716219953827,0.649680255969564,B,1911,Correct
2,new_learn,60,376,A,43.72044880572231,57.388346580283425,2.1860224402861155,0.9014540400914167,A,3891,Incorrect
2,new_learn,60,377,A,57.0518567657669,82.87436966150491,2.852592838288345,1.3017875544973432,A,2198,Correct
2,new_learn,60,378,B,35.68467433731391,13.291701029992527,1.7842337168656954,0.20878555154768202,B,1295,Incorrect
2,new_learn,60,379,B,58.838961549215014,27.849851996239785,2.9419480774607507,0.4374644521747497,B,1182,Correct
2,new_learn,60,380,A,56.284899241015125,64.48408257404027,2.8142449620507564,1.0129136004404125,A,1054,Incorrect
2,new_learn,60,381,B,75.29210258719156,64.76611551991127,3.764605129359578,1.0173437635945055,B,846,Correct
2,new_learn,60,382,B,82.1013842565564,62.67628499229117,4.10506921282782,0.9845167824304106,B,792,Correct
2,new_learn,60,383,A,26.455117962661852,41.411920531715886,1.3227558981330927,0.6504969265674148,A,3710,Correct
2,new_learn,60,384,B,63.672297436715624,36.344688201422755,3.183614871835781,0.5709010272530068,B,5327,Incorrect
2,new_learn,60,385,A,42.28219502509034,70.29192291558377,2.114109751254517,1.1041429431914898,A,2569,Correct
2,new_learn,60,386,A,21.689823463684142,44.754296492974845,1.0844911731842073,0.7029988453945462,A,2156,Incorrect
2,new_learn,60,387,B,47.09262781614699,29.9545144095025,2.3546313908073495,0.4705244120537133,A,5014,Incorrect
2,new_learn,60,388,B,56.25629518139575,28.09964599756007,2.8128147590697874,0.4413882071720428,B,792,Correct
2,new_learn,60,389,B,55.884225670459394,38.619434116614016,2.7942112835229698,0.6066326525327481,B,1252,Incorrect
2,new_learn,60,390,A,48.09455485004092,79.00990798069991,2.4047277425020464,1.2410847323648622,A,10063,Incorrect
2,new_learn,60,391,B,79.87918362420905,57.98526290094745,3.9939591812104527,0.9108303797304464,B,620,Correct
2,new_learn,60,392,A,49.17992922537012,75.54775146019556,2.458996461268506,1.1867013049128896,A,1404,Correct
2,new_learn,60,393,B,50.0106307006198,34.92529300430347,2.50053153503099,0.5486052196339539,B,3310,Correct
2,new_learn,60,394,A,63.13526442229772,87.22661420345689,3.156763221114886,1.3701524518954562,A,1918,Incorrect
2,new_learn,60,395,B,54.56934316124149,41.58223922594003,2.7284671580620743,0.6531722863601326,B,724,Incorrect
2,new_learn,60,396,A,34.592996589663116,61.08264007753578,1.729649829483156,0.9594838666472795,B,888,Incorrect
2,new_learn,60,397,B,71.22386395061798,45.661856255830955,3.5611931975308995,0.7172547608129582,107,291,Incorrect
2,new_learn,60,398,B,78.94150146329449,62.636669136093175,3.947075073164724,0.9838944980164243,100,195,Incorrect
2,new_learn,60,399,B,34.222525623451695,15.324978456499743,1.711126281172585,0.2407241986768072,100,75,Correct
2,new_learn,60,400,B,46.51089738764938,16.770015994839188,2.325544869382469,0.26342279524985057,100,698,Incorrect
2,new_learn,60,401,A,23.74555410875262,34.931494719553484,1.1872777054376311,0.5487026359492994,B,503,Correct
2,new_learn,60,402,B,67.83768411127282,36.08815738476331,3.3918842055636413,0.5668714506078234,B,1236,Correct
2,new_learn,60,403,A,64.332951145505,81.54243886387943,3.2166475572752504,1.2808656344527922,B,15387,Incorrect
2,new_learn,60,404,A,60.881051807190374,76.31064347745595,3.044052590359519,1.1986847846974273,B,2363,Incorrect
2,new_learn,60,405,A,35.72356022725593,57.86439637327296,1.7861780113627963,0.9089318127534111,A,1733,Incorrect
2,new_learn,60,406,A,63.422567809570744,78.90742224110991,3.171128390478537,1.2394748901318937,B,481,Incorrect
2,new_learn,60,407,B,52.4703376455842,33.236045613629315,2.62351688227921,0.5220705836707656,A,227,Incorrect
2,new_learn,60,408,A,19.437725480496695,47.88895327287319,0.9718862740248347,0.7522379189508164,B,279,Incorrect
2,new_learn,60,409,B,63.40969658786602,45.84454113415633,3.1704848293933012,0.720124368171303,A,159,Correct
2,new_learn,60,410,A,24.732324083174845,35.57681491247582,1.2366162041587423,0.5588393018357891,A,785,Incorrect
2,new_learn,60,411,A,56.47471645287197,77.89250181818872,2.8237358226435982,1.2235325574087565,A,18279,Incorrect
2,new_learn,60,412,A,40.96838001788243,51.655851246390895,2.0484190008941217,0.8114082139529439,B,11166,Correct
2,new_learn,60,413,B,65.81306370418078,39.70651611691434,3.2906531852090386,0.6237084966627141,B,2136,Correct
2,new_learn,60,414,A,43.7010364438749,68.53482870245301,2.1850518221937447,1.0765425718333064,A,1545,Incorrect
2,new_learn,60,415,A,12.609811280658828,39.99533591021901,0.6304905640329415,0.6282452673670005,A,1054,Correct
2,new_learn,60,416,B,73.46020452265951,41.265193160518116,3.6730102261329756,0.6481921384102374,B,4390,Correct
2,new_learn,60,417,A,36.502126534581734,50.78440639038959,1.8251063267290868,0.7977195901648325,B,1533,Correct
2,new_learn,60,418,B,32.45755923529757,11.243780619171915,1.6228779617648785,0.17661689295882893,B,960,Correct
2,new_learn,60,419,A,29.77237438153631,38.86536558604281,1.4886187190768154,0.6104957350209683,B,3444,Incorrect
2,new_learn,60,420,B,47.00458717316324,29.43435759597022,2.350229358658162,0.46235380793317477,B,986,Correct
2,new_learn,60,421,B,50.74238114646233,25.0772502813671,2.537119057323116,0.39391252628087725,B,739,Incorrect
2,new_learn,60,422,B,78.0558810935263,64.79636268816807,3.9027940546763147,1.0178188850024432,A,1606,Correct
2,new_learn,60,423,B,71.78744472611726,40.92959709023494,3.589372236305863,0.6429206076653613,B,3672,Incorrect
2,new_learn,60,424,A,24.948865367987825,52.576335415287076,1.2474432683993912,0.8258671454666937,A,14131,Incorrect
2,new_learn,60,425,B,73.06952411402887,42.35728787722823,3.6534762057014434,0.6653467221054411,B,1118,Incorrect
2,new_learn,60,426,B,86.357971422455,69.32000790537823,4.3178985711227496,1.0888761379116132,A,2777,Incorrect
2,new_learn,60,427,A,56.56973569581156,78.50050391901368,2.828486784790578,1.2330830320753507,107,612,Correct
2,new_learn,60,428,A,21.573215285754703,53.431499689912556,1.078660764287735,0.8393000344805728,107,323,Correct
2,new_learn,60,429,B,56.5209614561333,40.48821118534387,2.826048072806665,0.6359873340843419,107,269,Incorrect
2,new_learn,60,430,A,40.77754901517036,71.53882925771366,2.038877450758518,1.1237293022122388,107,256,Incorrect
2,new_learn,60,431,B,47.6889542104084,20.383233118122646,2.3844477105204196,0.3201790771015114,107,212,Correct
2,new_learn,60,432,B,35.72566910891089,13.945855127127988,1.7862834554455447,0.2190609800770642,107,208,Correct
2,new_learn,60,433,A,44.35305217924175,71.8465257701937,2.2176526089620876,1.1285625877279515,107,139,Correct
2,new_learn,60,434,A,67.80410363369812,85.89162226916515,3.3902051816849057,1.3491824476285936,107,55,Correct
2,new_learn,60,435,B,74.10211556333334,48.74399045572686,3.7051057781666668,0.7656688116118124,107,39,Incorrect
2,new_learn,60,436,A,23.556947059868786,38.47272122075718,1.1778473529934395,0.6043280917536944,B,1148,Incorrect
2,new_learn,60,437,A,22.25838213795576,50.85222345328948,1.112919106897788,0.798784858097804,A,10498,Correct
2,new_learn,60,438,A,52.18772500024654,61.07206560602046,2.609386250012327,0.9593177632371387,B,12474,Incorrect
2,new_learn,60,439,A,50.97839113532237,62.24649454810457,2.5489195567661183,0.9777656499202121,B,2929,Incorrect
2,new_learn,60,440,B,59.08245028387557,40.94303760342196,2.9541225141937786,0.6431317307528055,B,1967,Correct
2,new_learn,60,441,A,24.610849858974827,40.63446181227822,1.2305424929487414,0.6382846335601412,A,1576,Correct
2,new_learn,60,442,B,37.010057714088276,17.554554901915786,1.850502885704414,0.2757463035844866,B,1232,Correct
2,new_learn,60,443,B,74.2375475604604,59.65286430045559,3.71187737802302,0.9370250012595006,A,1209,Incorrect
2,new_learn,60,444,B,60.70176447206196,50.40800342748004,3.0350882236030983,0.7918070662495021,B,2647,Correct
2,new_learn,60,445,A,39.80931658738715,52.995734159616745,1.9904658293693576,0.832455045537248,A,19425,Incorrect
2,new_learn,60,446,B,86.48194748683484,59.08130086026807,4.324097374341742,0.9280469037357324,B,11619,Correct
2,new_learn,60,447,B,36.658468097307136,12.628022510800275,1.8329234048653569,0.19836051374648342,B,1189,Incorrect
2,new_learn,60,448,A,18.8639381758078,32.2432184478028,0.94319690879039,0.5064752910185408,A,781,Incorrect
2,new_learn,60,449,B,69.35667795042627,49.8178345368493,3.467833897521314,0.7825367149935881,B,1077,Incorrect
2,new_learn,60,450,B,69.6741693499747,40.02700806327559,3.4837084674987353,0.6287427723838299,B,635,Correct
2,new_learn,60,451,A,24.380716672801938,35.9071316236782,1.2190358336400968,0.5640279046021458,A,936,Incorrect
2,new_learn,60,452,B,76.27218413789682,54.78458664379254,3.813609206894841,0.8605542746504606,B,2580,Correct
2,new_learn,60,453,B,70.01141025392906,53.771473785204584,3.500570512696453,0.8446403350814743,A,1940,Incorrect
2,new_learn,60,454,B,47.23812193296516,33.09846023996374,2.3619060966482577,0.5199093976750198,B,1368,Incorrect
2,new_learn,60,455,A,33.93322790997936,45.133449509263265,1.696661395498968,0.7089545670473366,B,866,Correct
2,new_learn,60,456,A,54.05874384223206,66.20418846281407,2.702937192111603,1.0399329605582541,A,916,Correct
2,new_learn,60,457,A,25.50381631122933,57.26599242470484,1.2751908155614664,0.8995321055099074,A,1815,Correct
2,new_learn,60,458,A,39.23312795252335,67.93731745087464,1.9616563976261674,1.0671568870413273,A,1692,Incorrect
2,new_learn,60,459,A,46.51683927692331,56.26952806386875,2.325841963846165,0.8838796799320737,B,3992,Incorrect
2,new_learn,60,460,B,41.208233676176015,20.46868798510158,2.0604116838088005,0.32152139901308396,B,1330,Correct
2,new_learn,60,461,B,80.63840361871345,61.70983635902661,4.031920180935673,0.9693358427987314,A,959,Incorrect
2,new_learn,60,462,A,46.90497495129043,67.4534602006164,2.345248747564521,1.05955647512734,B,958,Incorrect
2,new_learn,60,463,A,38.063309054624725,69.01812793134897,1.903165452731236,1.0841342183682323,B,739,Correct
2,new_learn,60,464,B,46.62242948856994,17.08252120223291,2.331121474428497,0.26833161556863394,B,1793,Correct
2,new_learn,60,465,A,42.23101081230599,74.32568465643246,2.1115505406152995,1.1675051244483992,A,2019,Correct
2,new_learn,60,466,A,18.770446166729055,32.26665271609514,0.9385223083364528,0.5068433956440881,A,945,Incorrect
2,new_learn,60,467,B,65.99559844169465,47.9447283505428,3.2997799220847326,0.7531140318221178,B,13199,Incorrect
2,new_learn,60,468,A,32.13254001416322,55.86387515715151,1.6066270007081611,0.8775076989738227,B,13465,Correct
2,new_learn,60,469,A,17.295147433508113,42.23340393363034,0.8647573716754056,0.6634007576699167,B,7948,Incorrect
2,new_learn,60,470,B,47.89317645301205,24.047921792676085,2.3946588226506025,0.3777438721898654,B,1748,Correct
2,new_learn,60,471,B,75.38317200187376,43.26701217290334,3.7691586000936876,0.6796366379258665,A,3260,Correct
2,new_learn,60,472,B,61.571791358864836,35.77648309610625,3.078589567943242,0.561975682330034,B,1722,Correct
2,new_learn,60,473,A,18.85103283561636,36.16713399492141,0.942551641780818,0.5681120122992138,A,1582,Incorrect
2,new_learn,60,474,A,30.948140458249995,55.67326299039597,1.5474070229124999,0.8745135700600026,A,1173,Correct
2,new_learn,60,475,B,44.20700286705011,15.478699635152708,2.2103501433525055,0.24313884530459376,B,17689,Correct
2,new_learn,60,476,B,66.94035568561068,49.838984460010614,3.3470177842805344,0.7828689372097262,B,5069,Correct
2,new_learn,60,477,A,35.372227663669726,48.90643593943694,1.7686113831834862,0.7682204993029745,B,2040,Incorrect
2,new_learn,60,478,B,58.250571488115554,30.064488146749873,2.9125285744057776,0.47225187547883407,B,1363,Incorrect
2,new_learn,60,479,A,64.0633222885852,76.92090816376759,3.20316611442926,1.208270799973737,B,2601,Incorrect
2,new_learn,60,480,A,51.58045208094623,80.17103346037396,2.5790226040473114,1.2593236487490616,A,1180,Incorrect
2,new_learn,60,481,B,33.081610046312164,17.18667063137438,1.6540805023156082,0.269967590975966,A,858,Incorrect
2,new_learn,60,482,B,52.25164462795256,45.46721140095406,2.612582231397628,0.7141972865822568,B,616,Correct
2,new_learn,60,483,B,67.72727546685323,59.23664294630699,3.3863637733426617,0.9304870115171985,B,4111,Correct
2,new_learn,60,484,B,51.20334834265559,36.09262561619984,2.5601674171327797,0.5669416374231009,B,1593,Correct
2,new_learn,60,485,B,72.84392013233175,52.11306633695099,3.642196006616587,0.8185901318010138,A,1709,Incorrect
2,new_learn,60,486,B,47.34993749929186,38.2711448604472,2.367496874964593,0.6011617376902585,B,1181,Correct
2,new_learn,60,487,A,63.38551089145565,81.30678188061206,3.1692755445727823,1.2771639432157929,A,2847,Incorrect
2,new_learn,60,488,A,11.54474478453746,36.31983505625503,0.577237239226873,0.5705106349616191,A,888,Correct
2,new_learn,60,489,A,50.59951681355713,74.12142010034181,2.5299758406778565,1.1642965443043831,B,939,Incorrect
2,new_learn,60,490,A,65.52737250237158,78.59679560145383,3.276368625118579,1.2345955782861298,B,1065,Incorrect
2,new_learn,60,491,B,57.08523975726112,38.52832603451687,2.854261987863056,0.6052015301257528,B,714,Incorrect
2,new_learn,60,492,A,58.965021458109746,73.7160085663327,2.948251072905487,1.1579283548197654,A,1148,Correct
2,new_learn,60,493,B,76.90728289332574,60.04707560685186,3.845364144666287,0.9432172579801834,B,1339,Incorrect
2,new_learn,60,494,B,65.93046712913036,39.89272247541112,3.296523356456518,0.62663341930224,A,725,Correct
2,new_learn,60,495,A,27.677722385850064,39.12529565952994,1.3838861192925032,0.6145787070675394,B,2914,Correct
2,new_learn,60,496,A,46.111215709809144,77.61155915133156,2.305560785490457,1.2191195203173646,B,2830,Incorrect
2,new_learn,60,497,A,58.3510499579439,72.13414724161191,2.917552497897195,1.1330805352360622,A,740,Correct
2,new_learn,60,498,A,38.99063488836597,47.06095548765498,1.9495317444182985,0.7392317601546657,B,1304,Correct
2,new_learn,60,499,A,39.04237654618237,46.22978374336577,1.9521188273091183,0.7261757449260139,A,20281,Incorrect
2,new_learn,60,500,B,58.65321134939873,37.68390200672646,2.932660567469936,0.5919373485146475,B,1611,Correct
2,new_learn,60,501,A,36.15326263487124,51.9220940805046,1.8076631317435619,0.8155903466115565,B,3593,Incorrect
2,new_learn,60,502,B,61.195507548889374,47.89629668489543,3.0597753774444687,0.7523532689971233,B,3465,Correct
2,new_learn,60,503,B,56.481844482338595,33.240651581237984,2.8240922241169297,0.5221429340407759,B,3057,Correct
2,new_learn,60,504,A,63.34430065227322,89.10946125067095,3.1672150326136608,1.3997281441522609,B,2218,Correct
2,new_learn,60,505,B,80.98250058033688,63.96564173767861,4.049125029016844,1.0047699508262389,A,1858,Correct
2,new_learn,60,506,B,39.84501845521582,22.17305555275284,1.9922509227607912,0.3482935421608334,B,2139,Correct
2,new_learn,60,507,B,62.04245332812508,39.74690560484308,3.102122666406254,0.62434293325551,A,2952,Incorrect
2,new_learn,60,508,A,27.53256702118547,42.890703759491856,1.3766283510592734,0.6737255991905786,A,3692,Correct
2,new_learn,60,509,A,60.56182409428601,82.5904468714566,3.0280912047143005,1.297327705740331,B,10711,Correct
2,new_learn,60,510,A,17.60660988624297,42.85587172987714,0.8803304943121486,0.6731784589488427,A,1214,Correct
2,new_learn,60,511,A,61.81421722310142,73.30156161128068,3.0907108611550713,1.1514182372732946,B,3105,Incorrect
2,new_learn,60,512,B,72.5433078047138,45.089130199518515,3.62716539023569,0.7082584009578051,B,1557,Incorrect
2,new_learn,60,513,A,44.70508026972716,68.02987082339817,2.235254013486358,1.0686107120172514,B,1480,Incorrect
2,new_learn,60,514,A,30.542597406675235,54.60517930271349,1.527129870333762,0.8577361507267907,B,10629,Incorrect
2,new_learn,60,515,A,31.883307941679465,53.917944431856654,1.5941653970839733,0.8469410906189178,B,18073,Correct
2,new_learn,60,516,B,31.784496557330936,11.976967694001697,1.5892248278665468,0.1881337685987901,B,2744,Incorrect
2,new_learn,60,517,A,26.9582649101568,55.542953800482664,1.34791324550784,0.8724666780913681,B,1167,Incorrect
2,new_learn,60,518,A,45.96647480997005,69.70065223152375,2.298323740498503,1.09485528500486,A,2264,Incorrect
2,new_learn,60,519,A,27.05287764395119,57.13776600383284,1.3526438821975597,0.8975179296008693,B,1269,Correct
2,new_learn,60,520,A,16.147647347792024,38.682184203010465,0.8073823673896012,0.607618328584924,A,2374,Incorrect
2,new_learn,60,521,A,68.22790969620087,87.97042457585191,3.4113954848100434,1.3818361979033567,B,1390,Incorrect
2,new_learn,60,522,B,70.79555434954494,47.052525167161086,3.5397777174772473,0.7390993369900106,B,13239,Correct
2,new_learn,60,523,A,60.10463106114361,69.96175555712895,3.0052315530571803,1.0989566864526061,B,35543,Incorrect
2,new_learn,60,524,B,73.3601031002337,44.48263283321793,3.668005155011685,0.6987315626058478,A,2606,Incorrect
2,new_learn,60,525,A,64.14767671358466,77.45458037933327,3.2073838356792326,1.2166537035329676,B,1672,Incorrect
2,new_learn,60,526,B,87.11445043548072,59.690661008661436,4.355722521774036,0.9376187105636475,B,7478,Incorrect
2,new_learn,60,527,A,28.794402159101484,58.460772458758846,1.4397201079550743,0.9182996663981066,B,1431,Correct
2,new_learn,60,528,B,42.627205936044476,23.290989083516063,2.1313602968022236,0.3658540009980707,B,1218,Correct
2,new_learn,60,529,B,58.18596895867339,32.58215208594678,2.9092984479336694,0.5117992481567788,B,2304,Correct
2,new_learn,60,530,B,36.22882414541168,19.93461844778785,1.811441207270584,0.3131322543384294,B,1488,Incorrect
2,new_learn,60,531,A,41.995931080069006,50.72865702022408,2.09979655400345,0.7968438811060613,A,993,Correct
2,new_learn,60,532,B,53.40001750439855,37.16400701353219,2.670000875219927,0.5837708570583614,A,1429,Incorrect
2,new_learn,60,533,B,54.82242062709538,38.49436328579448,2.741121031354769,0.6046680445163428,B,2482,Correct
2,new_learn,60,534,B,38.53749659161973,15.31618393818037,1.9268748295809865,0.24058605470608718,B,3262,Incorrect
2,new_learn,60,535,B,62.58875080892822,47.69699319166543,3.129437540446411,0.7492226170462924,A,1672,Correct
2,new_learn,60,536,A,46.34985430692874,75.1875320924607,2.317492715346437,1.1810429923161068,B,2911,Correct
2,new_learn,60,537,B,59.79784981686013,33.18641205810125,2.9898924908430065,0.5212909416036731,A,2492,Correct
2,new_learn,60,538,A,29.76875926309133,51.439886329098066,1.4884379631545663,0.8080158449649425,A,950,Correct
2,new_learn,60,539,B,59.54370271899833,35.6143140617949,2.977185135949917,0.5594283370958725,A,1747,Incorrect
2,new_learn,60,540,A,48.159767280810264,60.72521718547826,2.4079883640405133,0.9538694809877158,B,1381,Incorrect
2,new_learn,60,541,B,78.82986585228065,65.6254200253999,3.9414932926140325,1.0308416872027042,B,1438,Correct
2,new_learn,60,542,A,47.871756611840695,75.40097755818917,2.3935878305920344,1.1843957858514798,B,1362,Incorrect
2,new_learn,60,543,A,23.455575498908456,54.66183172896105,1.1727787749454228,0.8586260449573275,B,2291,Incorrect
2,new_learn,60,544,A,42.29870055304494,63.95297941210479,2.1149350276522467,1.0045710514812387,B,4191,Correct
2,new_learn,60,545,A,48.87566465295067,59.53231174390481,2.4437832326475335,0.9351313661293437,B,1127,Incorrect
2,new_learn,60,546,A,40.30719060939533,61.30376838582958,2.0153595304697665,0.962957341991462,B,940,Correct
2,new_learn,60,547,A,39.17123594438715,65.57217894766521,1.9585617972193574,1.0300053783093017,B,1501,Correct
2,new_learn,60,548,A,57.43052466905097,75.95875505428324,2.871526233452548,1.193157334271814,A,1375,Incorrect
2,new_learn,60,549,A,54.668025207325115,64.97192579953351,2.733401260366256,1.020576623906978,B,1403,Incorrect
2,new_learn,60,550,A,46.823681630069714,64.67734604269451,2.3411840815034854,1.0159493759070697,B,1540,Incorrect
2,new_learn,60,551,A,44.32347726274134,59.061592172397525,2.216173863137067,0.9277373203906025,A,1264,Incorrect
2,new_learn,60,552,B,41.29203667797222,32.21771116314066,2.064601833898611,0.5060746235280028,B,1142,Incorrect
2,new_learn,60,553,A,50.232240287763204,70.22617545157489,2.5116120143881604,1.1031101844418778,B,728,Correct
2,new_learn,60,554,B,83.54504226559531,67.38745416929063,4.177252113279766,1.0585196548118116,A,1458,Incorrect
2,new_learn,60,555,A,38.41730417553308,49.87741264492042,1.920865208776654,0.7834725657267433,B,1625,Correct
2,new_learn,60,556,A,59.29958290428625,81.11215925199885,2.9649791452143126,1.2741068181144248,A,1738,Correct
2,new_learn,60,557,A,38.83443964724958,49.94850015919735,1.9417219823624792,0.7845892057898152,B,1678,Correct
2,new_learn,60,558,B,64.72799415998013,48.08465393779808,3.2363997079990066,0.7553119778069698,A,1108,Correct
2,new_learn,60,559,B,60.322306393488795,48.3320397526789,3.0161153196744395,0.7591979051001295,A,1099,Incorrect
2,new_learn,60,560,B,37.20903272848191,12.343155986221554,1.8604516364240953,0.19388584084213256,B,1954,Incorrect
2,new_learn,60,561,A,21.150121995775184,51.06186335279955,1.057506099788759,0.8020778739388046,A,1260,Incorrect
2,new_learn,60,562,A,58.04715266005165,67.39890028635952,2.9023576330025826,1.0586994499982902,100,1206,Correct
2,new_learn,60,563,B,65.39298990344149,36.245871016624065,3.2696494951720747,0.5693488105439468,B,967,Incorrect
2,new_learn,60,564,B,55.28889671978558,24.549211350218982,2.7644448359892793,0.3856181101463556,107,1178,Incorrect
2,new_learn,60,565,B,72.54904511403105,54.6245199519631,3.6274522557015523,0.8580399529347819,B,1321,Correct
2,new_learn,60,566,A,65.51983534169506,86.40000730127272,3.275991767084753,1.3571681410389143,B,1788,Incorrect
2,new_learn,60,567,B,61.62841004154874,51.11418422289067,3.081420502077437,0.8028997282443432,B,2940,Correct
2,new_learn,60,568,B,62.599173564609146,39.246457559786656,3.1299586782304574,0.6164819137462467,B,2261,Incorrect
2,new_learn,60,569,B,62.5806381801926,37.40635530832442,3.12903190900963,0.5875776551710078,A,1253,Incorrect
2,new_learn,60,570,B,84.56238757060393,64.62596793098194,4.228119378530197,1.015142330415512,A,2020,Incorrect
2,new_learn,60,571,B,50.861858648280126,22.964600579927346,2.5430929324140066,0.36072710237261824,B,851,Incorrect
2,new_learn,60,572,A,19.221811288676644,47.584442629389315,0.9610905644338322,0.7474546769482722,B,1369,Incorrect
2,new_learn,60,573,B,32.41311856768387,13.056976680311607,1.6206559283841933,0.20509851008480098,A,1164,Incorrect
2,new_learn,60,574,A,23.46541987245511,44.71976658608479,1.1732709936227557,0.7024564508854714,B,1704,Correct
2,new_learn,60,575,A,12.893909244194383,38.30519612293971,0.6446954622097192,0.6016966136707181,A,1026,Correct
2,new_learn,60,576,A,60.113521093819344,86.74208762830631,3.0056760546909675,1.362541526250646,A,1191,Incorrect
2,new_learn,60,577,A,67.8114915675639,84.42760240991313,3.390574578378195,1.3261856774559153,A,2183,Correct
2,new_learn,60,578,A,38.65039973895149,54.353632214158836,1.9325199869475744,0.8537848582996146,B,1271,Incorrect
2,new_learn,60,579,B,80.16380937668083,57.34858264032424,4.008190468834042,0.9008294295831488,B,1557,Correct
2,new_learn,60,580,B,44.37148182411515,16.078071845922135,2.218574091205758,0.25255376197518936,A,1255,Incorrect
2,new_learn,60,581,A,41.77322339371022,65.44431265590954,2.088661169685511,1.0279968592951947,B,1141,Correct
2,new_learn,60,582,A,10.857825494292385,34.86556758051324,0.5428912747146193,0.5476670548708943,A,917,Correct
2,new_learn,60,583,B,65.08366947774272,48.598232978221894,3.254183473887136,0.7633792585091357,B,2472,Correct
2,new_learn,60,584,B,65.99240739416203,54.39176187127773,3.299620369708101,0.8543837975530576,A,1606,Correct
2,new_learn,60,585,B,53.93355238724513,30.660798663528617,2.6966776193622564,0.4816186991726862,B,3225,Correct
2,new_learn,60,586,B,77.02663628686275,64.80020234312309,3.851331814343138,1.017879198161438,B,3317,Correct
2,new_learn,60,587,A,67.4857925294399,83.05278534208821,3.3742896264719953,1.304590101454372,A,1814,Incorrect
2,new_learn,60,588,B,43.6651681828964,26.755436456728013,2.18325840914482,0.4202734130802262,A,1664,Correct
2,new_learn,60,589,B,53.09449860300805,33.553757763075495,2.6547249301504023,0.5270611944440473,A,1253,Incorrect
2,new_learn,60,590,B,70.37493416310025,43.57100810513886,3.5187467081550126,0.6844117948630278,A,1072,Incorrect
2,new_learn,60,591,B,86.23008089727853,69.51025575494198,4.311504044863926,1.0918645441443668,A,1490,Correct
2,new_learn,60,592,A,38.35870154881059,61.039970294471665,1.9179350774405295,0.9588136112622568,B,1410,Incorrect
2,new_learn,60,593,A,31.776370239508115,40.609280754998466,1.588818511975406,0.6378890904373428,A,793,Incorrect
2,new_learn,60,594,B,69.19231605497848,47.61194650087346,3.459615802748924,0.7478867067512716,B,1917,Incorrect
2,new_learn,60,595,B,58.22268885964275,44.44938675878588,2.9111344429821377,0.6982093344898657,B,1716,Incorrect
2,new_learn,60,596,A,37.03079399038486,62.7754012459086,1.851539699519243,0.98607369690149,A,811,Correct
2,new_learn,60,597,B,77.56827420107022,56.18812657793639,3.878413710053511,0.8826010283810918,B,935,Correct
2,new_learn,60,598,A,31.416736845921772,60.070906252685184,1.5708368422960886,0.9435915888895846,A,725,Incorrect
2,new_learn,60,599,A,23.780665611879584,51.34265091224497,1.1890332805939792,0.8064884746086705,A,1298,Correct
2,new_learn,60,600,A,36.16713399492141,81.14896716438363,1.8083566997460705,1.2746849954501347,A,628,Correct
2,new_learn,60,601,A,78.90742224110991,36.577432190429256,3.9453711120554953,0.5745569612831568,B,2987,Incorrect
2,new_learn,60,602,B,20.132361253428822,59.04288063380011,1.0066180626714412,0.9274434002296275,A,1300,Incorrect
2,new_learn,60,603,A,51.9220940805046,63.84673736512876,2.59610470402523,1.0029022053098273,A,2597,Correct
2,new_learn,60,604,B,66.22063071827657,13.531331980601038,3.3110315359138283,0.21254966571770426,B,869,Correct
2,new_learn,60,605,B,42.139519401454294,48.82889172451252,2.106975970072715,0.7670024376233,A,741,Incorrect
2,new_learn,60,606,A,53.76351812416238,63.04147047874533,2.6881759062081194,0.9902531026376208,B,1390,Incorrect
2,new_learn,60,607,B,35.8602498316218,49.07211734927185,1.7930124915810899,0.7708230168028433,B,1453,Correct
2,new_learn,60,608,A,46.22978374336577,60.95762345381763,2.3114891871682888,0.9575201101140316,B,1100,Incorrect
2,new_learn,60,609,A,55.15285561436593,67.62346764606633,2.757642780718297,1.0622269458357452,B,898,Incorrect
2,new_learn,60,610,B,18.804033121468837,54.88275408183654,0.9402016560734419,0.8620962851613645,A,891,Incorrect
2,new_learn,60,611,B,62.95984139025075,15.383639681817314,3.147992069512538,0.2416456470493485,B,409,Correct
2,new_learn,60,612,A,84.60029656802303,36.761655368424925,4.230014828401152,0.5774507321962176,B,781,Incorrect
2,new_learn,60,613,B,50.40800342748004,39.29823552793804,2.5204001713740016,0.6172952401680577,B,661,Correct
2,new_learn,60,614,B,33.182748419042426,49.74352909785499,1.6591374209521212,0.7813695278872566,A,223,Incorrect
2,new_learn,60,615,B,39.68225870275657,27.491379233564928,1.9841129351378286,0.43183357518609283,B,286,Correct
2,new_learn,60,616,A,42.60925976633729,79.68117258968822,2.1304629883168644,1.2516289321859246,B,402,Incorrect
2,new_learn,60,617,B,37.16400701353219,46.59998249560145,1.8582003506766096,0.7319908133279723,A,300,Incorrect
2,new_learn,60,618,B,44.50434506089072,44.63022379874856,2.225217253044536,0.701049916071084,B,244,Correct
2,new_learn,60,619,A,64.97192579953351,45.331974792674885,3.248596289976675,0.7120729949069254,B,685,Incorrect
2,new_learn,60,620,A,87.97042457585191,31.772090303799132,4.398521228792595,0.4990748274380343,A,208,Correct
2,new_learn,60,621,B,61.533647245816795,26.618098554854427,3.0766823622908395,0.41811611436229873,A,253,Incorrect
2,new_learn,60,622,B,37.18646775879516,48.53214338970904,1.8593233879397582,0.7623411256803818,B,274,Correct
2,new_learn,60,623,A,75.76915613569619,38.68167753597564,3.78845780678481,0.6076103698777521,B,397,Incorrect
2,new_learn,60,624,A,81.0782664459793,37.03795735189733,4.053913322298965,0.5817908736034637,A,483,Correct
2,new_learn,60,625,A,42.372977568107075,70.64857941372456,2.1186488784053537,1.109745290363561,B,690,Incorrect
2,new_learn,60,626,B,21.96083125425964,47.87923359881745,1.098041562712982,0.7520852426677725,A,771,Incorrect
2,new_learn,60,627,A,59.8568771446653,62.44853841400997,2.9928438572332645,0.9809393475443684,B,632,Incorrect
2,new_learn,60,628,A,72.53192945210833,54.29592885123431,3.6265964726054163,0.852878455994359,B,359,Incorrect
2,new_learn,60,629,B,56.18812657793639,22.431725798929776,2.809406328896819,0.3523567248862921,A,444,Incorrect
2,new_learn,60,630,A,77.45458037933327,35.85232328641534,3.8727290189666634,0.5631669772536436,B,732,Incorrect
2,new_learn,60,631,B,24.00223290145359,60.08434983504604,1.2001116450726794,0.9438027601874988,B,950,Correct
2,new_learn,60,632,B,57.53246676096541,28.251689640561494,2.8766233380482706,0.4437765031314343,B,267,Correct
2,new_learn,60,633,A,47.917969344180285,70.84377556001746,2.395898467209014,1.112811424259575,A,423,Correct
2,new_learn,60,634,A,58.790717184659584,58.600530144126886,2.939535859232979,0.9204949749862814,A,286,Correct
2,new_learn,60,635,B,52.2053872045571,21.587577222537362,2.610269360227855,0.33909687005562866,B,266,Correct
2,new_learn,60,636,A,32.920118668650616,84.01801984313869,1.6460059334325308,1.31975196954183,B,323,Incorrect
2,new_learn,60,637,B,59.08118782836122,31.86542660052349,2.9540593914180615,0.5005409505585469,A,300,Incorrect
2,new_learn,60,638,A,60.249411863752734,59.641594046989326,3.0124705931876368,0.9368479685320321,B,21,Incorrect
2,new_learn,60,639,A,57.388346580283425,56.27955119427769,2.8694173290141713,0.8840371228963673,A,861,Correct
2,new_learn,60,640,B,12.449591932485866,69.9303489700767,0.6224795966242933,1.0984633529368175,B,298,Correct
2,new_learn,60,641,B,13.945855127127984,64.27433089108911,0.6972927563563992,1.0096188287092251,B,163,Correct
2,new_learn,60,642,A,51.458490068307896,74.5383510396406,2.572924503415395,1.1708456801841602,B,134,Incorrect
2,new_learn,60,643,B,22.588778381670647,53.45110680258968,1.1294389190835323,0.8396080222862957,100,194,Correct
2,new_learn,60,644,A,60.74939665242745,52.59020599788792,3.0374698326213725,0.8260850240686929,A,208,Correct
2,new_learn,60,645,A,59.940054027591145,57.328245297343585,2.9970027013795573,0.900509971346641,107,231,Correct
2,new_learn,60,646,B,23.290989083516063,57.372794063955524,1.1645494541758032,0.9012097417362139,107,200,Incorrect
2,new_learn,60,647,A,55.046732154922125,75.94449584532953,2.752336607746106,1.192933351141339,107,188,Correct
2,new_learn,60,648,B,42.548193541232266,31.989402606060608,2.127409677061613,0.5024883610996309,107,234,Incorrect
2,new_learn,60,649,A,74.40552867243584,51.11578560750368,3.7202764336217915,0.8029248827350222,107,221,Correct
2,new_learn,60,650,A,34.86556758051324,89.14217450570762,1.743278379025662,1.400242002760752,107,329,Correct
2,new_learn,60,651,A,81.25013106213365,34.0378224499629,4.062506553106682,0.534664864764986,107,183,Correct
2,new_learn,60,652,A,47.584442629389315,80.77818871132335,2.379222131469466,1.268860821128917,100,209,Incorrect
2,new_learn,60,653,B,51.00021282497342,27.263163527605613,2.5500106412486705,0.42824877125971483,B,106,Correct
2,new_learn,60,654,B,44.07707690675819,43.5204385804016,2.203853845337909,0.6836174506259773,107,150,Incorrect
2,new_learn,60,655,A,61.039970294471665,61.64129845118941,3.051998514723583,0.9682592518599626,107,77,Correct
2,new_learn,60,656,A,52.65485121699309,77.16726402796787,2.632742560849654,1.212140548839439,100,176,Incorrect
2,new_learn,60,657,A,70.30381770224663,41.38113825752174,3.515190885112332,0.6500133997350692,100,1924,Incorrect
2,new_learn,60,658,B,54.00903651422814,30.763181592175016,2.700451825711407,0.483226926455129,107,256,Incorrect
2,new_learn,60,659,B,26.052609358916698,55.64480394091679,1.302630467945835,0.8740665363561428,107,309,Incorrect
2,new_learn,60,660,A,40.75488124681793,76.80401429035301,2.037744062340897,1.2064346353038926,107,189,Correct
2,new_learn,60,661,A,49.449104778886515,69.06219872459408,2.4724552389443257,1.0848264807697157,107,159,Correct
2,new_learn,60,662,A,49.222269830042656,58.005410302455054,2.461113491502133,0.9111468543732725,107,589,Correct
2,new_learn,60,663,A,80.33867013700821,48.14157385864915,4.01693350685041,0.756206073832913,100,570,Incorrect
2,new_learn,60,664,B,41.35992966670558,30.770567560092346,2.067996483335279,0.4833429449678726,B,890,Correct
2,new_learn,60,665,B,39.120671073702326,38.19255860583286,1.9560335536851163,0.5999273076894106,B,663,Correct
2,new_learn,60,666,A,76.3362047739508,50.21691042583739,3.8168102386975398,0.7888053843989371,A,618,Correct
2,new_learn,60,667,A,74.12142010034181,49.40048318644287,3.7060710050170904,0.7759809753115751,A,475,Correct
2,new_learn,60,668,B,26.284075351636922,48.7756217052453,1.314203767581846,0.7661656741173676,B,399,Correct
2,new_learn,60,669,B,50.962410785115004,27.38852962397351,2.54812053925575,0.43021801729650794,B,432,Correct
2,new_learn,60,670,A,56.46881647422248,67.36795853734263,2.823440823711124,1.0582134181412868,A,1189,Correct
2,new_learn,60,671,B,43.095318820381685,42.620496328220725,2.1547659410190843,0.6694811907854449,B,1255,Correct
2,new_learn,60,672,A,76.8428236184838,55.13727156501315,3.84214118092419,0.8660942364381535,B,710,Incorrect
2,new_learn,60,673,A,39.65567124524218,71.74303937859511,1.9827835622621093,1.1269370272899881,A,201,Correct
2,new_learn,60,674,A,63.95297941210479,57.70129944695506,3.1976489706052393,0.9063698922256941,107,303,Correct
2,new_learn,60,675,B,62.636669136093175,21.058498536705514,3.131833456804659,0.33078612149272724,B,464,Correct
2,new_learn,60,676,A,79.80369428451615,38.387446149526255,3.9901847142258076,0.6029885940671273,100,265,Incorrect
2,new_learn,60,677,A,38.47272122075718,76.44305294013121,1.9236360610378591,1.2007646676734591,107,283,Correct
2,new_learn,60,678,B,46.435077293194205,27.55915009069402,2.3217538646597102,0.4328981173205141,A,264,Incorrect
2,new_learn,60,679,A,79.40334679991594,43.19298781626149,3.970167339995797,0.6784738660508028,B,280,Incorrect
2,new_learn,60,680,B,29.9545144095025,52.90737218385301,1.497725720475125,0.831067058867668,107,166,Incorrect
2,new_learn,60,681,B,33.13094335636805,47.588505249339036,1.6565471678184025,0.7475184924332142,B,566,Correct
2,new_learn,60,682,A,64.48900628590583,45.64029416286861,3.224450314295291,0.7169160642487258,B,269,Incorrect
2,new_learn,60,683,A,67.88863188417054,49.80510710282391,3.394431594208527,0.7823367929274221,A,220,Correct
2,new_learn,60,684,B,46.10097439082976,42.422357366520046,2.3050487195414884,0.6663688312531011,107,267,Incorrect
2,new_learn,60,685,B,66.39365929435294,13.79864349115465,3.319682964717647,0.21674858510658032,B,265,Correct
2,new_learn,60,686,A,49.87741264492042,61.58269582446692,2.4938706322460207,0.9673387239520005,B,419,Incorrect
2,new_learn,60,687,B,53.15079933352699,27.19147327850864,2.6575399666763495,0.42712266346022953,A,254,Incorrect
2,new_learn,60,688,A,64.16400036653013,46.517631548378326,3.2082000183265063,0.7306972476739106,B,327,Incorrect
2,new_learn,60,689,A,87.28470088369713,34.05594761813819,4.3642350441848565,0.5349495742409087,A,43,Correct
2,new_learn,60,690,B,50.98533804590483,19.43120414401021,2.5492669022952414,0.30522464094613005,B,316,Correct
2,new_learn,60,691,B,16.770015994839184,53.48910261235062,0.8385007997419592,0.8402048590703566,A,232,Incorrect
2,new_learn,60,692,A,44.78194430577673,70.47950424030772,2.2390972152888367,1.107089463750007,B,264,Incorrect
2,new_learn,60,693,B,19.13535768136292,64.92555264360371,0.956767884068146,1.0198481960770138,A,350,Incorrect
2,new_learn,60,694,A,62.27338738295718,63.079371492502474,3.113669369147859,0.9908484503695361,B,575,Incorrect
2,new_learn,60,695,B,46.567972446699045,41.59483541781661,2.3283986223349524,0.6533701468794461,A,592,Incorrect
2,new_learn,60,696,A,66.02114825762112,50.19013504160776,3.301057412881056,0.7883847976469729,B,470,Incorrect
2,new_learn,60,697,B,36.344688201422755,36.327702563284376,1.8172344100711377,0.5706342174730465,A,419,Incorrect
2,new_learn,60,698,A,35.9071316236782,75.61928332719806,1.7953565811839098,1.1878249248522528,B,632,Incorrect
2,new_learn,60,699,B,57.98526290094745,20.12081637579095,2.8992631450473723,0.3160570445520703,B,1077,Correct
2,new_learn,60,700,B,64.11250145168331,17.160203887164982,3.2056250725841657,0.2695518523301026,107,182,Correct
2,new_learn,60,701,A,83.4716234586743,39.24693188865456,4.173581172933715,0.6164893644866807,107,226,Incorrect
2,new_learn,60,702,B,33.240651581237984,43.518155517661405,1.6620325790618993,0.6835815883603159,97,10091,Correct
2,new_learn,60,703,B,40.20711882376315,38.799145809064996,2.0103559411881577,0.609455557196589,B,190,Correct
2,new_learn,60,704,A,48.215642077585464,80.44331980583507,2.4107821038792734,1.2636007126619289,97,226,Incorrect
2,new_learn,60,705,B,21.1119928990429,51.82331284271065,1.055599644952145,0.8140386945567267,107,177,Correct
2,new_learn,60,706,A,57.59119161427538,61.995449613239046,2.879559580713769,0.9738222453047399,107,339,Incorrect
2,new_learn,60,707,B,45.46721140095406,47.74835537204744,2.273360570047703,0.7500294122890949,97,62,Correct
2,new_learn,60,708,B,23.1877569560971,55.095456127473106,1.1593878478048552,0.8654374010812412,97,9,Correct
2,new_learn,60,709,B,45.84454113415633,36.59030341213398,2.2922270567078162,0.5747591419609083,107,142,Correct
2,new_learn,60,710,B,38.098611153053376,30.45391127232746,1.904930557652669,0.4783689196310966,97,39,Correct
2,new_learn,60,711,A,71.21725735929026,42.16556083387472,3.560862867964513,0.6623350807509716,107,28,Incorrect
2,new_learn,60,712,B,10.991086765112172,68.86572630799496,0.5495543382556086,1.0817402992666116,107,70,Correct
2,new_learn,60,713,A,77.33021716618563,45.022150282158634,3.8665108583092818,0.707206282876226,107,6,Incorrect
2,new_learn,60,714,B,14.554384212527538,58.31043074504775,0.7277192106263769,0.9159381042814922,100,597,Incorrect
2,new_learn,60,715,A,75.6586158224149,38.81357917212195,3.7829307911207453,0.6096822759333207,100,9,Correct
2,new_learn,60,716,A,65.57217894766521,60.82876405561285,3.27860894738326,0.9554959914203011,100,144,Incorrect
2,new_learn,60,717,A,69.67333872063035,56.16110531364431,3.4836669360315176,0.8821765793541384,100,167,Correct
2,new_learn,60,718,A,67.517266468034,46.51576306563468,3.3758633234017,0.7306678976156067,B,579,Incorrect
2,new_learn,60,719,B,49.88336132090507,37.18333063044768,2.4941680660452534,0.5840743917230737,A,578,Incorrect
2,new_learn,60,720,B,36.99918430617893,46.091656040218695,1.8499592153089466,0.7240060400386933,B,345,Correct
2,new_learn,60,721,A,63.80672124009595,46.50636673549107,3.1903360620047976,0.7305203004068576,B,303,Incorrect
2,new_learn,60,722,B,55.17926739371949,29.987829109167137,2.7589633696859743,0.47104771813232815,A,279,Incorrect
2,new_learn,60,723,A,74.08253091852,36.901530025247176,3.704126545926,0.5796478781676986,B,506,Incorrect
2,new_learn,60,724,A,56.942382150244754,69.6937289081927,2.8471191075122375,1.0947465336962838,B,635,Incorrect
2,new_learn,60,725,B,54.62557229673357,23.158690105935207,2.7312786148366786,0.3637758535178434,B,1720,Correct
2,new_learn,60,726,B,16.07807184592214,55.62851817588485,0.803903592296107,0.8738107201572306,A,650,Incorrect
2,new_learn,60,727,B,55.91603359808959,31.854344607271813,2.7958016799044794,0.5003668750156139,B,1025,Correct
2,new_learn,60,728,B,54.788598233032346,16.483777970492667,2.7394299116516176,0.2589265788775251,B,725,Correct
2,new_learn,60,729,A,69.96175555712895,39.89536893885639,3.498087777856448,0.6266749898528283,A,788,Correct
2,new_learn,60,730,A,49.90700209053633,77.46576652217735,2.4953501045268167,1.2168294150538723,A,947,Correct
2,new_learn,60,731,B,38.6317352462445,28.844457637102522,1.931586762312225,0.45308768104751646,B,606,Correct
2,new_learn,60,732,B,56.07928272193405,23.49146268788118,2.803964136096703,0.36900303301163123,B,595,Correct
2,new_learn,60,733,A,74.62522224034312,54.556169912956214,3.7312611120171564,0.8569663130326987,A,637,Correct
2,new_learn,60,734,B,22.81541725493753,59.182154938786354,1.1407708627468764,0.9296311158965206,A,589,Incorrect
2,new_learn,60,735,A,72.98291504985377,57.896393837504604,3.6491457524926885,0.9094344277462293,B,244,Incorrect
2,new_learn,60,736,A,63.85585312474163,65.0454018275034,3.192792656237082,1.0217307826554038,B,244,Incorrect
2,new_learn,60,737,A,88.83313656845597,35.1781985462665,4.441656828422799,0.5525778505973699,100,282,Incorrect
2,new_learn,60,738,A,83.05278534208821,32.514207470560095,4.15263926710441,0.5107319766340298,100,217,Incorrect
2,new_learn,60,739,A,73.52531566699975,54.86645816028829,3.6762657833499874,0.8618403094242673,107,133,Correct
2,new_learn,60,740,A,78.56617266663545,49.73003117820831,3.9283086333317727,0.7811575030612529,107,81,Correct
2,new_learn,60,741,A,50.44078876873345,57.238359075675774,2.5220394384366727,0.8990980418783884,107,371,Correct
2,new_learn,60,742,A,64.04078754238435,67.45770679501769,3.2020393771192177,1.0596231804762093,100,270,Incorrect
2,new_learn,60,743,B,61.01286399498317,22.396046149394863,3.0506431997491585,0.35179627026198435,100,263,Correct
2,new_learn,60,744,B,37.68390200672646,41.34678865060127,1.8841951003363233,0.6494738373712939,107,103,Incorrect
2,new_learn,60,745,A,50.29251178013908,79.9555624938,2.514625589006954,1.2559390387208085,107,70,Correct
2,new_learn,60,746,B,23.4776338833503,56.75148825889486,1.1738816941675152,0.8914502929721575,107,256,Incorrect
2,new_learn,60,747,A,68.86384346034579,44.41344503075222,3.443192173017289,0.6976447631461264,107,401,Correct
2,new_learn,60,748,B,33.236045613629315,47.5296623544158,1.6618022806814656,0.7465941904011801,100,114,Correct
2,new_learn,60,749,A,83.34378856629327,39.83841328827889,4.167189428314663,0.6257803325856549,107,215,Correct
2,new_learn,60,750,B,46.3216203118493,36.83582962267133,2.316081015592465,0.5786158586573477,107,242,Incorrect
2,new_learn,60,751,A,51.34265091224497,76.21933438812042,2.5671325456122487,1.197250504876115,107,209,Correct
2,new_learn,60,752,B,60.19131690032741,30.925398700694558,3.0095658450163705,0.4857750268371867,100,1643,Correct
2,new_learn,60,753,A,47.45500400404528,75.21202355662075,2.372750200202264,1.181427703335511,107,109,Correct
2,new_learn,60,754,A,45.898623966727776,61.929671074071535,2.2949311983363887,0.9727889984276772,107,167,Correct
2,new_learn,60,755,B,19.54263176654114,67.12074358460785,0.9771315883270572,1.0543301747444414,100,458,Correct
2,new_learn,60,756,B,56.06217094667515,26.338159132860497,2.803108547333758,0.4137188362043673,A,565,Incorrect
2,new_learn,60,757,A,67.78435302858989,62.81234802482453,3.3892176514294943,0.9866540555475704,B,492,Incorrect
2,new_learn,60,758,A,81.54243886387943,35.66704885449499,4.077121943193971,0.5602566932825486,107,259,Correct
2,new_learn,60,759,A,63.67281719200429,52.57140082333826,3.1836408596002146,0.8257896330776194,107,388,Correct
2,new_learn,60,760,A,50.14099761671441,59.337663403259214,2.5070498808357202,0.9320738371443152,107,210,Correct
2,new_learn,60,761,B,22.67493143185339,52.964683394630356,1.1337465715926696,0.8319673012614003,107,253,Incorrect
2,new_learn,60,762,B,24.047921792676085,52.10682354698795,1.2023960896338042,0.8184920702855848,100,176,Correct
2,new_learn,60,763,B,31.605941056380626,47.21066419553742,1.5802970528190312,0.7415833790389752,A,25,Incorrect
2,new_learn,60,764,A,53.431499689912556,78.4267847142453,2.6715749844956282,1.2319250535147064,107,12,Correct
2,new_learn,60,765,B,39.941886928850074,50.53814152234412,1.9970943464425037,0.7938512706633877,107,73,Incorrect
2,new_learn,60,766,B,58.92281944570284,17.44395628683749,2.946140972285142,0.27400902460135074,B,16,Correct
2,new_learn,60,767,B,41.15480296179809,51.98716738710008,2.0577401480899042,0.8166125157212825,B,479,Correct
2,new_learn,60,768,B,47.61194650087346,30.807683945021523,2.3805973250436727,0.48392596777897917,107,464,Incorrect
2,new_learn,60,769,B,16.0193419967581,61.24427971960183,0.800967099837905,0.9620228962074973,A,12,Incorrect
2,new_learn,60,770,A,63.812194429755515,65.56716390218533,3.190609721487776,1.0299266021591165,A,67,Correct
2,new_learn,60,771,A,55.3047169005583,54.52381850618175,2.765235845027915,0.8564581383234189,A,204,Correct
2,new_learn,60,772,A,67.60729980362775,44.98927163697945,3.3803649901813877,0.7066898263254515,A,219,Correct
2,new_learn,60,773,B,19.93461844778785,63.77117585458832,0.9967309223893926,1.0017152878777873,B,353,Correct
2,new_learn,60,774,B,15.316183938180373,61.46250340838027,0.7658091969090186,0.9654507458950256,A,292,Incorrect
2,new_learn,60,775,B,18.033981940596664,61.40055071186187,0.9016990970298332,0.9644775952137639,B,53,Correct
2,new_learn,60,776,B,63.96564173767861,19.017499419663125,3.19828208688393,0.29872618233230913,B,39,Correct
2,new_learn,60,777,B,66.19016984648502,11.481279594100329,3.309508492324251,0.18034751813317998,B,147,Correct
2,new_learn,60,778,A,73.96776862132458,54.09685756640727,3.698388431066229,0.8497514515645924,B,276,Incorrect
2,new_learn,60,779,A,48.18678647643909,66.94711615003311,2.4093393238219547,1.051602841379833,107,107,Correct
2,new_learn,60,780,A,87.22661420345689,36.86473557770228,4.361330710172845,0.5790699123371987,100,180,Incorrect
2,new_learn,60,781,A,54.46063151564058,68.17382222953808,2.723031575782029,1.070871895417267,A,492,Correct
2,new_learn,60,782,A,52.576335415287076,75.05113463201218,2.6288167707643537,1.1789004660175397,A,474,Correct
2,new_learn,60,783,B,10.289136691690125,67.10324310998297,0.5144568345845062,1.054055277931862,A,347,Incorrect
2,new_learn,60,784,B,46.03826850383099,38.30524548752418,2.3019134251915494,0.6016973890877978,B,245,Correct
2,new_learn,60,785,A,44.69761895708239,68.65853293295149,2.2348809478541196,1.0784857133420662,107,43,Correct
2,new_learn,60,786,B,31.956038159948662,43.298733574984595,1.597801907997433,0.6801349165445667,100,376,Correct
2,new_learn,60,787,B,26.828110256804834,54.243340703201056,1.3414055128402418,0.8520524032967233,107,6,Incorrect
2,new_learn,60,788,A,54.49900385849869,55.146745108164936,2.7249501929249345,0.866243046505999,107,150,Correct
2,new_learn,60,789,B,38.52832603451687,42.91476024273888,1.9264163017258438,0.6741034775457789,100,237,Correct
2,new_learn,60,790,B,25.0772502813671,49.25761885353767,1.253862514068355,0.7737368676180001,100,198,Correct
2,new_learn,60,791,B,40.163479298485534,40.99592966736053,2.0081739649242767,0.6439625573503184,107,349,Incorrect
2,new_learn,60,792,B,56.016591917953605,28.180600182971318,2.8008295958976803,0.4426598325428694,107,46,Correct
2,new_learn,60,793,A,84.70067551337102,39.695960895669174,4.235033775668551,0.6235426956351098,100,219,Incorrect
2,new_learn,60,794,B,18.50706445458553,64.70699571769765,0.9253532227292766,1.0164151119129259,100,204,Correct
2,new_learn,60,795,A,78.37902074746654,47.522142877443386,3.918951037373327,0.7464760747331034,A,274,Correct
2,new_learn,60,796,A,69.99479350937317,53.80454608405311,3.4997396754686583,0.8451598335369737,100,283,Incorrect
2,new_learn,60,797,A,32.76356753520639,80.18148700910851,1.6381783767603195,1.2594878527086035,100,233,Incorrect
2,new_learn,60,798,B,35.22388936438185,49.326243744528576,1.7611944682190923,0.7748148248849523,107,301,Incorrect
2,new_learn,60,799,B,45.661856255830955,28.776136049382018,2.2830928127915477,0.4520144880571948,107,214,Incorrect
2,new_learn,60,800,B,57.257830006329876,19.61889230719416,2.862891500316494,0.3081728397192524,A,134,Incorrect
2,new_learn,60,801,B,43.66484920348118,32.84429519982136,2.183242460174059,0.5159169825604664,B,428,Correct
2,new_learn,60,802,B,47.9447283505428,34.00440155830535,2.39723641752714,0.534139890626447,B,468,Correct
2,new_learn,60,803,B,62.88722116639518,15.51025626549115,3.144361058319759,0.24363453569481028,B,394,Correct
2,new_learn,60,804,A,67.0138064902064,65.00797761436766,3.3506903245103206,1.0211429244901358,A,695,Correct
2,new_learn,60,805,B,45.78092608804588,46.2740870987502,2.289046304402294,0.7268716604050393,A,590,Incorrect
2,new_learn,60,806,A,76.88539347855574,47.013016015198936,3.844269673927787,0.7384787286822414,B,745,Incorrect
2,new_learn,60,807,A,42.08662465918485,85.68624330062696,2.1043312329592423,1.3459563623347865,A,892,Correct
2,new_learn,60,808,B,37.57933511310494,39.610001085963674,1.878966755655247,0.6221924421017361,B,647,Correct
2,new_learn,60,809,B,59.40246358187444,25.816208143990764,2.970123179093722,0.40552004924353185,B,579,Correct
2,new_learn,60,810,A,42.383868402587986,76.60796130302792,2.1191934201293994,1.2033550421804182,A,619,Correct
2,new_learn,60,811,B,37.729161659564774,45.02989647442166,1.8864580829782387,0.70732795977976,B,684,Correct
2,new_learn,60,812,B,25.068057706292667,45.431742746043646,1.2534028853146333,0.7136401462537604,B,547,Correct
2,new_learn,60,813,A,51.048928686705466,59.74701135084412,2.5524464343352733,0.9385038596687894,B,436,Incorrect
2,new_learn,60,814,A,45.133449509263265,66.06677209002063,2.2566724754631635,1.0377744292220001,A,379,Correct
2,new_learn,60,815,B,42.444301353091475,43.561218925027674,2.1222150676545737,0.6842580267814181,B,528,Correct
2,new_learn,60,816,A,49.84878194778623,66.85641913358901,2.4924390973893114,1.0501781759770166,B,696,Incorrect
2,new_learn,60,817,B,48.40894482518404,39.30221836525231,2.420447241259202,0.6173578024302925,B,469,Correct
2,new_learn,60,818,B,29.855483812563346,37.40141437810425,1.4927741906281673,0.5875000432205999,A,560,Incorrect
2,new_learn,60,819,B,24.549211350218982,44.71110328021442,1.2274605675109491,0.7023203679950806,B,483,Correct
2,new_learn,60,820,B,49.84440420602671,39.02297535260927,2.492220210301335,0.6129714634448642,B,417,Correct
2,new_learn,60,821,B,41.25365076407524,33.66740507995944,2.062682538203762,0.5288463623231613,B,489,Correct
2,new_learn,60,822,A,69.70065223152375,54.03352519002995,3.4850326115761874,0.8487566289227856,B,700,Incorrect
2,new_learn,60,823,A,74.85885402025441,43.77204012645014,3.7429427010127205,0.6875695984694671,B,809,Incorrect
2,new_learn,60,824,A,55.99709746004913,70.63813081266028,2.799854873002457,1.1095811641218416,B,486,Incorrect
2,new_learn,60,825,A,47.617808549826975,64.81627211581842,2.380890427491349,1.0181316215606604,A,409,Correct
2,new_learn,60,826,A,66.06246357442645,52.50824479408426,3.303123178721322,0.8247975804899482,B,916,Incorrect
2,new_learn,60,827,B,46.80522112419074,38.129369726447464,2.3402610562095365,0.5989347390930821,B,607,Correct
2,new_learn,60,828,A,76.92090816376759,35.9366777114148,3.8460454081883797,0.5644920134630241,A,830,Correct
2,new_learn,60,829,B,54.518647001254436,23.018233728788758,2.7259323500627217,0.36156956990487776,B,571,Correct
2,new_learn,60,830,B,24.473971322520192,60.73042456775255,1.2236985661260096,0.9539512783572025,A,1240,Incorrect
2,new_learn,60,831,A,46.001954346606325,83.8042669968333,2.3000977173303165,1.3163943476836455,A,632,Correct
2,new_learn,60,832,A,32.26665271609514,81.22955383327094,1.6133326358047568,1.275950847884903,A,618,Correct
2,new_learn,60,833,B,37.332826942846694,40.53710793902765,1.8666413471423347,0.6367554024951286,B,850,Correct
2,new_learn,60,834,B,33.59370969736828,56.3608977685263,1.6796854848684142,0.8853149118966379,B,789,Correct
2,new_learn,60,835,B,35.15121109604477,57.14203142389552,1.7575605548022384,0.8975849306625362,B,1093,Correct
2,new_learn,60,836,A,89.11535368542984,36.409088576978796,4.455767684271492,0.5719126259866831,A,826,Correct
2,new_learn,60,837,A,76.56048360503748,39.52252285590809,3.8280241802518735,0.6208183372772778,A,1121,Correct
2,new_learn,60,838,B,28.09964599756007,43.74370481860425,1.4049822998780035,0.6871245084946378,A,595,Incorrect
2,new_learn,60,839,B,26.935905515310175,45.66744947105923,1.3467952757655086,0.7173426188323139,B,500,Correct
2,new_learn,60,840,B,69.51025575494198,13.769919102721474,3.475512787747099,0.21629738346817767,A,678,Incorrect
2,new_learn,60,841,B,41.51138607793768,46.791691234994836,2.075569303896884,0.7350021671645084,B,1172,Correct
2,new_learn,60,842,B,46.15049229775366,33.41442262195491,2.307524614887683,0.5248725231653908,B,393,Correct
2,new_learn,60,843,B,10.620928047606697,68.33302313687805,0.5310464023803348,1.0733726174219873,A,552,Incorrect
2,new_learn,60,844,B,30.660798663528617,46.06644761275487,1.5330399331764308,0.7236100669860488,100,253,Correct
2,new_learn,60,845,A,85.12950480995478,39.963520260839374,4.256475240497739,0.627745508315199,100,267,Incorrect
2,new_learn,60,846,B,54.881636272421304,15.315105154040936,2.744081813621065,0.2405691092044509,B,6,Correct
2,new_learn,60,847,A,43.00097051277426,72.76192151388014,2.150048525638713,1.1429415904454148,B,21,Incorrect
2,new_learn,60,848,B,44.233033720705535,37.593807996072854,2.2116516860352764,0.5905221551046385,A,364,Incorrect
2,new_learn,60,849,A,81.30678188061206,36.61448910854435,4.065339094030603,0.5751390499917319,A,108,Correct
2,new_learn,60,850,A,66.21678314054536,53.09799372140458,3.310839157027268,0.8340613349776079,100,160,Incorrect
2,new_learn,60,851,A,76.31213193702641,40.916445894822004,3.81560659685132,0.6427140291708853,107,402,Correct
2,new_learn,60,852,B,57.34858264032424,19.83619062331917,2.867429132016212,0.3115861536871312,107,222,Incorrect
2,new_learn,60,853,B,37.0405345165725,50.37298851114251,1.8520267258286252,0.7912570532298417,100,219,Correct
2,new_learn,60,854,B,65.54501020763634,21.626674697177663,3.277250510381817,0.33971101175114804,100,50,Correct
2,new_learn,60,855,B,32.21771116314066,58.70796332202778,1.6108855581570334,0.9221825313985074,107,86,Incorrect
2,new_learn,60,856,A,61.07206560602046,47.81227499975346,3.053603280301023,0.751033459453202,100,282,Incorrect
2,new_learn,60,857,B,28.10727882453722,38.7850046605762,1.4053639412268613,0.6092334285555605,A,86,Incorrect
2,new_learn,60,858,A,66.15342323828136,50.20995720995985,3.307671161914068,0.7886961635393388,107,188,Correct
2,new_learn,60,859,A,75.1165526209284,35.130484829319215,3.7558276310464205,0.5518283652841847,107,203,Correct
2,new_learn,60,860,A,56.325229557704795,54.729663479027316,2.8162614778852397,0.8596915435957689,100,269,Incorrect
2,new_learn,60,861,A,60.72812407790887,50.49629458741086,3.036406203895444,0.7931939405465799,100,306,Incorrect
2,new_learn,60,862,B,40.02700806327559,30.325830650025296,2.001350403163779,0.4763570339206383,107,128,Incorrect
2,new_learn,60,863,A,69.86923761782016,41.12092668513752,3.493461880891008,0.6459260059141626,107,444,Correct
2,new_learn,60,864,B,51.14618495393517,18.472705643892667,2.5573092476967587,0.2901685817138996,100,250,Correct
2,new_learn,60,865,A,61.08264007753578,65.40700341033688,3.054132003876789,1.0274108070361845,100,242,Incorrect
2,new_learn,60,866,A,77.00277511081674,41.20796774760285,3.8501387555408373,0.6472932437261713,107,56,Correct
2,new_learn,60,867,B,61.24552750484892,25.476745426222962,3.0622763752424462,0.4001877813419971,107,262,Incorrect
2,new_learn,60,868,B,19.541171250135225,55.550931897639494,0.9770585625067612,0.8725919977484557,107,208,Incorrect
2,new_learn,60,869,B,51.79572726851704,22.24640195796522,2.5897863634258522,0.3494456647997456,100,225,Correct
2,new_learn,60,870,A,52.995734159616745,60.19068341261285,2.6497867079808373,0.9454730441180677,100,314,Incorrect
2,new_learn,60,871,A,75.95875505428324,42.56947533094903,3.7979377527141622,0.668679754834407,100,285,Incorrect
2,new_learn,60,872,A,41.575486517792115,68.85880592959106,2.0787743258896056,1.0816315942168429,107,253,Correct
2,new_learn,60,873,A,59.80111751932548,63.81672556912162,2.9900558759662736,1.0024307811205422,107,297,Correct
2,new_learn,60,874,B,43.758208128108144,35.96086490128319,2.187910406405407,0.5648719449530316,100,590,Correct
2,new_learn,60,875,A,37.80154435185804,78.23554702774675,1.8900772175929021,1.2289210989597399,107,312,Correct
2,new_learn,60,876,B,41.265193160518116,26.53979547734049,2.0632596580259057,0.41688613249694245,100,490,Correct
2,new_learn,60,877,A,65.44431265590954,58.22677660628978,3.272215632795477,0.91462406814267,107,498,Correct
2,new_learn,60,878,B,50.996778683127474,23.06634182926055,2.549838934156374,0.36232525017997946,100,306,Correct
2,new_learn,60,879,B,45.89769954168422,32.49517243513853,2.294884977084211,0.5104329749968237,100,602,Correct
2,new_learn,60,880,B,29.62995601609766,43.88527258951942,1.481497800804883,0.6893482498400985,107,411,Incorrect
2,new_learn,60,881,A,57.7090846573448,52.738688573190224,2.8854542328672403,0.8284173829074719,100,345,Incorrect
2,new_learn,60,882,A,42.31699111884347,81.34524789420847,2.1158495559421735,1.2777681659444295,107,649,Correct
2,new_learn,60,883,A,57.805582927779405,57.77242149237568,2.8902791463889703,0.9074870747027024,100,367,Incorrect
2,new_learn,60,884,A,59.061592172397525,55.67652273725866,2.953079608619876,0.8745647740439845,107,907,Correct
2,new_learn,60,885,B,28.756799392526446,46.765236178451616,1.4378399696263222,0.7345866121080761,100,617,Correct
2,new_learn,60,886,A,48.08134164061486,64.31884113530566,2.404067082030743,1.0103179939904263,107,402,Correct
2,new_learn,60,887,B,54.39176187127773,34.00759260583797,2.7195880935638868,0.5341900154838757,100,717,Correct
2,new_learn,60,888,B,44.62759304886153,32.173071022775204,2.231379652443076,0.5053734178428662,100,848,Correct
2,new_learn,60,889,A,60.72052299717876,58.72360519408981,3.0360261498589383,0.9224282333502998,107,582,Correct
2,new_learn,60,890,B,36.245871016624065,34.60701009655851,1.812293550831203,0.5436056434102801,100,441,Correct
2,new_learn,60,891,A,60.72521718547826,51.840232719189736,3.036260859273913,0.8143044713549584,107,603,Correct
2,new_learn,60,892,B,32.58215208594678,41.81403104132661,1.629107604297339,0.6568132636820362,100,452,Correct
2,new_learn,60,893,A,62.81559581704277,52.83818279440107,3.140779790852138,0.829980234479625,100,628,Incorrect
2,new_learn,60,894,A,38.23012432835715,76.79816645057048,1.9115062164178573,1.2063427776513918,107,5726,Correct
2,new_learn,60,895,A,65.75969171288088,60.450324193935934,3.287984585644044,0.9495514719739523,107,509,Correct
2,new_learn,60,896,A,61.30376838582958,59.69280939060467,3.065188419291479,0.9376524572682973,107,489,Correct
2,new_learn,60,897,B,31.15422156949961,46.99411800668557,1.5577110784749806,0.7381818794586761,107,510,Incorrect
2,new_learn,60,898,A,55.67326299039597,69.05185954175,2.7836631495197985,1.0846640732653805,100,273,Incorrect
