experiment,condition,subject,trial,cat,x,y,xt,yt,resp,rt,fb
2,new_learn,76,0,B,77.10283674202127,57.08668002968317,3.8551418371010637,0.896715472995419,A,2969,Incorrect
2,new_learn,76,1,B,73.18279322045706,41.94485667134096,3.6591396610228526,0.6588682678728079,B,3764,Correct
2,new_learn,76,2,A,22.676893471635807,46.310600083430316,1.1338446735817904,0.7274452050271978,A,3761,Correct
2,new_learn,76,3,B,50.45008889471474,33.41045261454097,2.5225044447357368,0.5248101624347592,B,2366,Correct
2,new_learn,76,4,A,63.54391438570524,76.22799260780107,3.177195719285262,1.1973865078728245,A,1833,Correct
2,new_learn,76,5,A,15.055508688773536,43.36914947005047,0.7527754344386767,0.6812410068377411,B,2294,Incorrect
2,new_learn,76,6,B,76.28825922789163,49.2594288902544,3.814412961394581,0.77376529960826,A,2595,Incorrect
2,new_learn,76,7,A,61.02623348132886,73.05611923673024,3.0513116740664428,1.1475628374694584,B,2701,Incorrect
2,new_learn,76,8,B,45.40034476565859,31.558637146231554,2.2700172382829296,0.495721913079535,A,3759,Incorrect
2,new_learn,76,9,B,43.77361363925446,24.381953403344287,2.188680681962723,0.3829908284605753,B,4102,Correct
2,new_learn,76,10,A,55.352033992664026,68.89142448984812,2.7676016996332016,1.082143965363214,B,2539,Incorrect
2,new_learn,76,11,A,34.07895370218358,42.128945225151725,1.703947685109179,0.6617599241141173,B,2312,Incorrect
2,new_learn,76,12,B,85.05326305171826,64.55404033222145,4.252663152585913,1.0140124943362305,B,4437,Correct
2,new_learn,76,13,A,18.269819075671624,40.30252264715807,0.9134909537835811,0.6330705453472403,A,1505,Correct
2,new_learn,76,14,B,44.46993189052775,23.523167083388703,2.223496594526387,0.3695010444916959,A,1650,Incorrect
2,new_learn,76,15,A,29.837183972190303,53.23167952451144,1.491859198609515,0.8361612666622568,B,3392,Incorrect
2,new_learn,76,16,A,40.658490755604,62.25731163135686,2.0329245377802,0.9779355642666053,B,3099,Incorrect
2,new_learn,76,17,B,88.62147066851158,61.887757747137755,4.431073533425579,0.9721306254277639,B,6315,Correct
2,new_learn,76,18,A,31.639624348129672,55.95803667186817,1.5819812174064836,0.8789867845882464,B,2725,Incorrect
2,new_learn,76,19,B,62.68690643699809,40.74439498704254,3.1343453218499047,0.6400114598312683,A,4227,Incorrect
2,new_learn,76,20,A,54.56715425001277,72.07285966601387,2.7283577125006384,1.1321178322497865,A,3395,Correct
2,new_learn,76,21,B,76.39166364630245,50.37915269876915,3.8195831823151223,0.7913538800626578,B,3342,Correct
2,new_learn,76,22,A,26.36527597817166,39.61298229344792,1.318263798908583,0.6222392707993928,B,3348,Incorrect
2,new_learn,76,23,A,38.8195814610973,70.69589074514525,1.940979073054865,1.110488455019675,A,3665,Correct
2,new_learn,76,24,B,77.4387377533666,45.090053958962855,3.8719368876683298,0.7082729113372254,B,1301,Correct
2,new_learn,76,25,B,39.34949332382327,30.138642791059155,1.9674746661911633,0.4734166939077922,B,1375,Correct
2,new_learn,76,26,B,47.449832891353054,23.801426140969152,2.3724916445676527,0.37387192754714366,B,1322,Correct
2,new_learn,76,27,B,74.16279265702686,62.38205826315033,3.7081396328513425,0.9798950797766177,A,1123,Incorrect
2,new_learn,76,28,A,19.08554456955267,31.83200861062019,0.9542772284776335,0.5000160220006571,B,1256,Incorrect
2,new_learn,76,29,B,72.56561153102979,47.441771452673926,3.6282805765514894,0.7452136033450318,A,2366,Incorrect
2,new_learn,76,30,A,65.81642862213448,78.22141782272598,3.290821431106724,1.2286991579262683,A,1176,Correct
2,new_learn,76,31,B,59.797824148444064,41.48418327916693,2.9898912074222035,0.6516320271500167,B,853,Correct
2,new_learn,76,32,B,75.33863444932265,57.44269728370068,3.7669317224661323,0.9023077789442822,A,938,Incorrect
2,new_learn,76,33,A,19.697763801076288,44.09148074437024,0.9848881900538144,0.6925873599620467,A,2065,Correct
2,new_learn,76,34,B,86.32735619932417,61.269198982413485,4.316367809966208,0.9624143270724071,A,1444,Incorrect
2,new_learn,76,35,B,83.33191165200196,67.41745822434262,4.166595582600098,1.0589909574064578,A,2464,Incorrect
2,new_learn,76,36,B,51.857806862959784,32.154343205838906,2.5928903431479893,0.5050792419823419,B,1181,Correct
2,new_learn,76,37,A,17.521536115665814,46.88459987325721,0.8760768057832906,0.7364615726416089,B,1104,Incorrect
2,new_learn,76,38,A,56.11400481297855,74.52288761416133,2.8057002406489278,1.170602781264735,B,3576,Incorrect
2,new_learn,76,39,B,36.386191431428756,14.04716864075612,1.8193095715714378,0.22065240902768174,B,1415,Correct
2,new_learn,76,40,B,65.48474862975087,38.13641857421239,3.2742374314875433,0.5990454621348549,B,2903,Correct
2,new_learn,76,41,A,20.32085487494422,38.978259433809654,1.016042743747211,0.6122690674348673,A,2042,Correct
2,new_learn,76,42,A,21.016383133744693,40.59733032731428,1.0508191566872347,0.6377013735582433,A,1401,Correct
2,new_learn,76,43,A,46.98445677027995,75.86798139300939,2.3492228385139975,1.191731464934827,A,1529,Correct
2,new_learn,76,44,A,14.593931902159216,32.103063683333176,0.7296965951079608,0.504273745126424,B,1351,Incorrect
2,new_learn,76,45,A,30.262461266233593,48.28577994157439,1.5131230633116797,0.7584712576865176,B,1109,Incorrect
2,new_learn,76,46,B,65.92923434931954,33.788347812769025,3.296461717465977,0.5307461263276596,B,1636,Correct
2,new_learn,76,47,B,74.56053656854789,59.922344417003345,3.7280268284273945,0.9412579850316753,A,1909,Incorrect
2,new_learn,76,48,B,39.806239210919145,19.460677200925364,1.9903119605459574,0.30568760264154754,B,1947,Correct
2,new_learn,76,49,A,46.20259387251224,58.63799780003625,2.310129693625612,0.9210835155490418,A,2690,Correct
2,new_learn,76,50,A,68.03644034045821,89.8458852737365,3.4018220170229108,1.41129586565621,A,1390,Correct
2,new_learn,76,51,B,59.46468943051387,26.535109843206037,2.9732344715256938,0.4168125307280714,B,1180,Correct
2,new_learn,76,52,A,43.550757196429366,53.69461192297148,2.1775378598214683,0.8434329917728105,A,1105,Correct
2,new_learn,76,53,B,68.35741872184808,43.0991717793818,3.417870936092404,0.6770002071895519,B,1212,Correct
2,new_learn,76,54,A,44.58643403784152,74.40321445528217,2.229321701892076,1.168722959680902,A,1538,Correct
2,new_learn,76,55,A,16.813248000211196,38.4669940129041,0.8406624000105597,0.6042381289831104,B,1431,Incorrect
2,new_learn,76,56,B,75.05003376805507,53.73498478044455,3.7525016884027536,0.8440671671350196,B,2384,Correct
2,new_learn,76,57,B,67.8778619157873,54.494233769930545,3.3938930957893656,0.855993422373093,B,1873,Correct
2,new_learn,76,58,A,30.356233097104557,44.68063865387089,1.5178116548552278,0.7018418307635047,B,2499,Incorrect
2,new_learn,76,59,B,78.99774830267502,47.267535177398514,3.949887415133751,0.7424767063330615,B,2469,Correct
2,new_learn,76,60,B,52.026464949951674,27.324465060826054,2.6013232474975836,0.42921169349181054,B,3096,Correct
2,new_learn,76,61,B,42.363139207087286,22.469318589934744,2.118156960354364,0.3529472310665378,B,3496,Correct
2,new_learn,76,62,B,65.82974722022122,43.319661942968374,3.291487361011061,0.6804636585801139,B,1957,Correct
2,new_learn,76,63,A,53.74427294021091,74.44304336534816,2.6872136470105454,1.1693485907372207,A,1018,Correct
2,new_learn,76,64,B,78.30824731453183,54.780229496401915,3.9154123657265916,0.8604858327392958,B,2380,Correct
2,new_learn,76,65,A,48.84343278557782,80.3748311824357,2.442171639278891,1.2625248958812991,A,1276,Correct
2,new_learn,76,66,A,53.95745727896573,65.75528080694966,2.6978728639482865,1.032881535589235,A,1251,Correct
2,new_learn,76,67,B,79.97692520344415,52.4906719390541,3.9988462601722072,0.8245215467286213,B,1293,Correct
2,new_learn,76,68,A,42.36593280099759,58.17227443956106,2.1182966400498797,0.9137679501096716,B,1125,Incorrect
2,new_learn,76,69,A,42.84788890981883,74.40769007939426,2.1423944454909414,1.1687932626200557,A,1011,Correct
2,new_learn,76,70,A,41.05112066045092,56.20719590073712,2.052556033022546,0.8829005686031904,B,2056,Incorrect
2,new_learn,76,71,B,54.78701198974983,31.301728979645695,2.7393505994874916,0.4916864090355682,B,947,Correct
2,new_learn,76,72,A,65.5861460961539,85.43238463015106,3.2793073048076953,1.3419687596637007,A,894,Correct
2,new_learn,76,73,B,65.79269028558676,41.869055389388976,3.289634514279338,0.6576775841202427,B,953,Correct
2,new_learn,76,74,B,88.46875370920664,68.95541771221289,4.423437685460332,1.0831491685495176,A,1644,Incorrect
2,new_learn,76,75,B,55.84471991472199,45.856362888013045,2.792235995736099,0.7203100638466471,B,850,Correct
2,new_learn,76,76,A,53.539166704156216,77.80689450647074,2.676958335207811,1.2221878409008224,B,1247,Incorrect
2,new_learn,76,77,A,51.870066551694244,65.1122977663642,2.593503327584712,1.0227815816058041,A,1092,Correct
2,new_learn,76,78,B,43.03939996119723,16.885414554199375,2.1519699980598617,0.26523547158145466,B,993,Correct
2,new_learn,76,79,A,67.53703322096898,89.94449663736393,3.3768516610484487,1.4128448493338719,A,1266,Correct
2,new_learn,76,80,A,38.782933688158735,53.71366948507477,1.9391466844079366,0.8437323472583058,B,995,Incorrect
2,new_learn,76,81,B,80.09293784696463,53.356037955151585,4.004646892348231,0.8381146843228119,B,1677,Correct
2,new_learn,76,82,A,62.4219190376551,77.6206197558321,3.1210959518827552,1.2192618439600444,A,1253,Correct
2,new_learn,76,83,A,58.05972669736846,75.88115746174984,2.9029863348684226,1.191938434138618,A,848,Correct
2,new_learn,76,84,A,33.087668862763564,62.42648160306733,1.6543834431381783,0.9805928799682734,B,909,Incorrect
2,new_learn,76,85,B,39.705184813536405,13.015284697527346,1.9852592406768201,0.20444361395065783,B,1817,Correct
2,new_learn,76,86,A,27.094365574117358,45.82364347964621,1.354718278705868,0.7197961085818717,B,1474,Incorrect
2,new_learn,76,87,A,56.17906163886484,80.73401457550332,2.808953081943242,1.2681669354260627,A,1137,Correct
2,new_learn,76,88,A,30.054587837054143,54.8984131819874,1.5027293918527074,0.8623422577313434,A,2229,Correct
2,new_learn,76,89,B,68.18754589003777,59.4191463308933,3.4093772945018883,0.9333537679785566,A,1347,Incorrect
2,new_learn,76,90,A,41.44185072992838,65.99228292634655,2.072092536496419,1.0366043561751472,A,1797,Correct
2,new_learn,76,91,B,66.41842147618799,34.52598117487535,3.3209210738093993,0.5423328440848395,B,1268,Correct
2,new_learn,76,92,B,49.00789012538151,36.00549306382303,2.4503945062690753,0.5655729624909234,B,1769,Correct
2,new_learn,76,93,A,54.63911620893839,70.80379153710734,2.7319558104469195,1.112183356696398,A,1772,Correct
2,new_learn,76,94,A,37.901480965630725,49.83039596823541,1.8950740482815362,0.7827340294963941,B,1164,Incorrect
2,new_learn,76,95,A,63.835431571761774,81.04740779906993,3.1917715785880887,1.273089704670271,A,1136,Correct
2,new_learn,76,96,A,28.825851377945597,59.016212164535176,1.4412925688972797,0.9270244928940015,A,2344,Correct
2,new_learn,76,97,B,62.45685611164018,46.85581487419226,3.1228428055820086,0.7360094189336288,A,2205,Incorrect
2,new_learn,76,98,B,76.50387017390614,53.08822386392922,3.825193508695307,0.8339078704152519,B,870,Correct
2,new_learn,76,99,B,76.99208948645176,65.55830281888316,3.8496044743225877,1.0297874125880917,B,1201,Correct
2,new_learn,76,100,B,44.71887364917097,20.805584000346638,2.2359436824585486,0.3268133492456717,B,1200,Correct
2,new_learn,76,101,B,32.73533256572792,13.241349639177294,1.6367666282863962,0.20799463375026622,B,963,Correct
2,new_learn,76,102,B,78.54832636356137,51.39920932317546,3.927416318178069,0.8073768920500602,B,1061,Correct
2,new_learn,76,103,A,60.10570391159199,74.15996340564848,3.0052851955795994,1.1649019811283658,A,1964,Correct
2,new_learn,76,104,B,57.711041361164455,32.76552134258678,2.8855520680582227,0.5146796057045511,B,1089,Correct
2,new_learn,76,105,A,31.363985779783448,64.64010694588075,1.5681992889891723,1.0153644255421876,A,1623,Correct
2,new_learn,76,106,A,26.706896077310045,40.939006673650255,1.3353448038655023,0.6430684130560157,A,1703,Correct
2,new_learn,76,107,A,63.512864513528704,79.34030591040462,3.175643225676435,1.24627461090847,A,964,Correct
2,new_learn,76,108,A,57.230039428171494,81.83830479778022,2.8615019714085745,1.2855130856747434,A,821,Correct
2,new_learn,76,109,A,34.34301160774715,43.397190886680434,1.7171505803873575,0.6816814803801458,B,1147,Incorrect
2,new_learn,76,110,B,75.838491961957,63.39797283537703,3.79192459809785,0.9958530285605289,A,850,Incorrect
2,new_learn,76,111,A,41.89231515103498,57.970064522158495,2.094615757551749,0.9105916441546972,B,2160,Incorrect
2,new_learn,76,112,B,47.36362849397769,18.923630874732517,2.368181424698885,0.2972516986765233,B,1130,Correct
2,new_learn,76,113,A,36.454695569554616,46.79490939246643,1.8227347784777308,0.7350527178638627,A,1203,Correct
2,new_learn,76,114,A,26.830729974706074,42.924045637715864,1.3415364987353036,0.6742493321890058,A,2425,Correct
2,new_learn,76,115,A,42.201534674196466,54.67896848970235,2.1100767337098234,0.8588952285655834,A,917,Correct
2,new_learn,76,116,A,38.2846417207935,61.83233914677461,1.914232086039675,0.9712601120888983,A,669,Correct
2,new_learn,76,117,B,68.99604931144177,44.422475620257266,3.4498024655720885,0.6977866153143596,A,2071,Incorrect
2,new_learn,76,118,B,43.50480183017133,32.353582944626595,2.1752400915085666,0.5082088924807346,B,815,Correct
2,new_learn,76,119,B,58.91468677192299,28.15733311181718,2.9457343385961496,0.4422943542438274,B,830,Correct
2,new_learn,76,120,B,70.15279063994308,42.090270460585245,3.507639531997154,0.6611524223329104,B,1098,Correct
2,new_learn,76,121,A,16.698000050446648,39.56110199571778,0.8349000025223324,0.6214243369883174,B,965,Incorrect
2,new_learn,76,122,B,65.2299751659901,41.98995332657655,3.2614987582995045,0.6595766444767559,B,1606,Correct
2,new_learn,76,123,B,42.96564996971196,25.938908227407012,2.148282498485598,0.40744741764680853,B,3419,Correct
2,new_learn,76,124,B,68.20752835968494,44.50680030842505,3.410376417984247,0.6991111844186804,B,1144,Correct
2,new_learn,76,125,B,49.88561643412382,20.264188266697246,2.494280821706191,0.3183091249480827,B,1259,Correct
2,new_learn,76,126,B,37.97025459362885,26.87836919031655,1.8985127296814426,0.42220443594386364,B,1205,Correct
2,new_learn,76,127,A,36.96553305914399,63.81581799262738,1.8482766529571995,1.0024165249423076,A,882,Correct
2,new_learn,76,128,A,25.15629318563707,46.63918993257194,1.2578146592818535,0.7326066823077352,B,1431,Incorrect
2,new_learn,76,129,B,69.46501802061105,40.71697556894241,3.473250901030553,0.6395807566189229,B,1491,Correct
2,new_learn,76,130,B,53.685984766383356,40.29693918060977,2.6842992383191677,0.6329828404597917,B,1116,Correct
2,new_learn,76,131,B,52.64701977397827,24.468391672956123,2.6323509886989136,0.3843485976245832,B,1142,Correct
2,new_learn,76,132,B,42.21538756387955,22.415616415271323,2.1107693781939774,0.35210367927951575,B,841,Correct
2,new_learn,76,133,B,56.26607351672351,27.549964327877053,2.8133036758361754,0.43275382769559706,B,722,Correct
2,new_learn,76,134,A,19.34633658104351,35.77169086758307,0.9673168290521755,0.5619004061804204,B,939,Incorrect
2,new_learn,76,135,A,41.540498056174265,63.03504768067035,2.0770249028087133,0.9901522135613815,A,850,Correct
2,new_learn,76,136,B,71.45655311187436,39.486578283601446,3.572827655593718,0.6202537212558028,B,1476,Correct
2,new_learn,76,137,B,45.432212106522215,36.923391824376296,2.271610605326111,0.57999128250539,B,1208,Correct
2,new_learn,76,138,B,64.52767189226165,53.781651963268764,3.2263835946130826,0.8448002135286411,A,1907,Incorrect
2,new_learn,76,139,B,66.17978257876793,52.540670267501916,3.3089891289383964,0.8253069186353386,B,1239,Correct
2,new_learn,76,140,B,80.06732439796217,52.61595009714706,4.003366219898108,0.826489411434222,B,1909,Correct
2,new_learn,76,141,B,74.20821565865027,44.96225807786658,3.7104107829325135,0.7062654983311698,B,1242,Correct
2,new_learn,76,142,A,33.73366327584946,46.244418281347315,1.686683163792473,0.7264056237110713,A,995,Correct
2,new_learn,76,143,B,80.27759401048507,56.259635187148604,4.013879700524254,0.8837242829879395,B,2313,Correct
2,new_learn,76,144,B,76.30266907553202,65.38771553273689,3.8151334537766015,1.0271078337633273,B,1194,Correct
2,new_learn,76,145,B,81.83577996006196,64.48147252913282,4.091788998003097,1.0128726019508785,B,1188,Correct
2,new_learn,76,146,B,45.71931485874091,21.361942613374545,2.2859657429370457,0.3355526099029211,A,1137,Incorrect
2,new_learn,76,147,B,45.40950171295652,16.487794262877447,2.270475085647826,0.2589896666507786,B,733,Correct
2,new_learn,76,148,B,63.460760351112356,34.84797607045434,3.173038017555618,0.5473907280770612,B,1444,Correct
2,new_learn,76,149,B,85.92026807060233,65.43213801975938,4.296013403530116,1.0278056205577473,A,1279,Incorrect
2,new_learn,76,150,B,51.141170799797784,40.80669157724502,2.5570585399898893,0.6409900123818872,B,3516,Correct
2,new_learn,76,151,A,42.66410703984093,63.40959937099896,2.1332053519920464,0.9960356577550113,A,2395,Correct
2,new_learn,76,152,A,22.859457402938034,44.837544345888354,1.1429728701469017,0.704306499610247,A,1411,Correct
2,new_learn,76,153,A,68.28852519838334,82.34453287555253,3.4144262599191673,1.2934648977255951,A,906,Correct
2,new_learn,76,154,B,43.5730484216365,25.177997815553738,2.178652421081825,0.39549506484721736,B,765,Correct
2,new_learn,76,155,A,47.797556904640885,65.09758740500719,2.389877845232044,1.0225505117899503,A,691,Correct
2,new_learn,76,156,A,52.10393343629062,81.55051907996155,2.605196671814531,1.2809925581902073,A,732,Correct
2,new_learn,76,157,B,38.084919134886526,22.771660292002757,1.9042459567443262,0.3576964034169914,B,827,Correct
2,new_learn,76,158,B,71.60621200322258,45.78149026679907,3.580310600161129,0.7191339674628429,B,1064,Correct
2,new_learn,76,159,B,42.04790271368661,15.93018873248738,2.1023951356843305,0.25023081946140624,B,813,Correct
2,new_learn,76,160,B,55.2670050753319,47.381790374300415,2.7633502537665953,0.7442714227691687,A,1016,Incorrect
2,new_learn,76,161,A,37.85136525992877,62.68365456599759,1.8925682629964384,0.9846325434234916,B,1139,Incorrect
2,new_learn,76,162,B,42.20310055483475,22.61425536132,2.1101550277417376,0.35522389254763254,B,793,Correct
2,new_learn,76,163,A,33.209870316907484,42.139903723470496,1.6604935158453742,0.6619320598031804,B,752,Incorrect
2,new_learn,76,164,A,60.4671788013391,75.86864001619514,3.0233589400669554,1.1917418105636364,A,824,Correct
2,new_learn,76,165,B,61.988977289036185,41.314405310330955,3.0994488644518094,0.6489651610518343,B,1188,Correct
2,new_learn,76,166,B,70.09574897172456,37.60385038360099,3.504787448586228,0.590679900559053,B,841,Correct
2,new_learn,76,167,A,33.20925613706772,53.43677170159563,1.6604628068533858,0.839382847046439,B,1877,Incorrect
2,new_learn,76,168,B,84.82419371325416,69.34500953924763,4.2412096856627075,1.0892688626580724,B,1696,Correct
2,new_learn,76,169,B,61.63665661924992,33.94964339180865,3.081832830962496,0.5332797513584966,B,876,Correct
2,new_learn,76,170,B,55.7966741137722,24.199817041228894,2.78983370568861,0.3801298371747089,B,573,Correct
2,new_learn,76,171,A,43.75073518334099,54.597437836693565,2.18753675916705,0.8576145480629094,A,2083,Correct
2,new_learn,76,172,A,59.93974081495199,72.5101196608328,2.9969870407475994,1.1389862961869457,A,1014,Correct
2,new_learn,76,173,B,53.08445133821314,30.439962960486724,2.6542225669106574,0.4781498200610525,B,1009,Correct
2,new_learn,76,174,B,58.70212871199508,47.510168209255355,2.935106435599754,0.7462879770850598,B,1139,Correct
2,new_learn,76,175,A,55.21533519582182,69.0759771522787,2.7607667597910908,1.0850429118056757,A,932,Correct
2,new_learn,76,176,B,76.85354424603166,64.15430430078366,3.842677212301583,1.0077334554375303,A,931,Incorrect
2,new_learn,76,177,A,53.775650720803526,80.29395456064597,2.6887825360401765,1.2612544888769903,A,1315,Correct
2,new_learn,76,178,B,81.1285995915257,60.94610886887462,4.056429979576285,0.9573392394367013,B,2329,Correct
2,new_learn,76,179,B,31.527348042242902,18.279383848138284,1.5763674021121452,0.2871318900472958,B,1562,Correct
2,new_learn,76,180,A,55.329303224953826,82.1896628382157,2.766465161247691,1.2910322048678022,B,1544,Incorrect
2,new_learn,76,181,B,58.060033841685616,47.999435030867105,2.9030016920842807,0.7539733623471634,B,1647,Correct
2,new_learn,76,182,A,38.79015389989154,47.54295091765627,1.9395076949945773,0.7468029266644454,A,1245,Correct
2,new_learn,76,183,B,47.74819745896337,33.073779987178945,2.3874098729481683,0.5195217211708325,B,1264,Correct
2,new_learn,76,184,B,39.66178442547936,25.373086869973832,1.9830892212739681,0.3985595165480272,B,885,Correct
2,new_learn,76,185,A,20.282102775274538,49.52955533278975,1.014105138763727,0.7780084358453071,A,2010,Correct
2,new_learn,76,186,B,73.18296826585247,40.577738570082566,3.6591484132926233,0.6373936269552929,B,2548,Correct
2,new_learn,76,187,A,55.07536260256949,78.12971175785216,2.753768130128474,1.2272586424277823,A,1508,Correct
2,new_learn,76,188,B,78.42563798698316,53.72878572991891,3.921281899349158,0.8439697926770668,A,1351,Incorrect
2,new_learn,76,189,A,34.86321161530516,52.58819155911097,1.743160580765258,0.8260533813383789,A,1614,Correct
2,new_learn,76,190,A,39.241340950278314,52.45669741314394,1.9620670475139155,0.8239878761235786,B,1647,Incorrect
2,new_learn,76,191,B,71.99607505594858,48.32210810696956,3.5998037527974294,0.7590418991741367,A,1682,Incorrect
2,new_learn,76,192,A,33.602796194170416,62.548980030805936,1.680139809708521,0.982517080771573,B,1899,Incorrect
2,new_learn,76,193,B,60.30739706838741,52.83321182597413,3.0153698534193705,0.8299021506901686,B,2505,Correct
2,new_learn,76,194,B,57.15957126132822,41.27301382756933,2.857978563066411,0.6483149851610087,B,1317,Correct
2,new_learn,76,195,B,47.076926432473876,28.671526785988142,2.353846321623694,0.4503712895903166,B,1317,Correct
2,new_learn,76,196,A,54.38693403584968,63.02385048251871,2.7193467017924835,0.9899763283841115,B,2088,Incorrect
2,new_learn,76,197,A,38.3058544094189,60.922516257849786,1.915292720470945,0.9569686475693282,B,3229,Incorrect
2,new_learn,76,198,B,68.89790306983537,42.76444905861558,3.4448951534917684,0.6717423949868082,B,1603,Correct
2,new_learn,76,199,A,17.61424411564574,33.99686673750183,0.8807122057822869,0.5340215339380348,B,1719,Incorrect
2,new_learn,76,200,B,62.925725047036444,50.31570175634531,3.146286252351822,0.7903571949897474,B,1881,Correct
2,new_learn,76,201,B,81.01772485264144,56.53674504550446,4.050886242632072,0.8880771144641798,B,3005,Correct
2,new_learn,76,202,A,37.655450466429954,64.62130565045888,1.8827725233214978,1.015069095484311,A,1189,Correct
2,new_learn,76,203,A,64.06995686649987,84.07348791634202,3.2034978433249934,1.3206232599982515,A,821,Correct
2,new_learn,76,204,A,14.086029719581244,40.35744192690795,0.7043014859790623,0.6339332153762537,B,1608,Incorrect
2,new_learn,76,205,A,40.82767765086939,55.792748066145776,2.0413838825434696,0.8763904372409485,A,2222,Correct
2,new_learn,76,206,B,50.00287271553467,25.69891454928512,2.5001436357767335,0.40367760576632994,B,805,Correct
2,new_learn,76,207,B,37.74655260725325,17.018466312974105,1.8873276303626625,0.2673254437210241,B,639,Correct
2,new_learn,76,208,A,39.203364647864085,54.954352677650014,1.9601682323932041,0.8632209532744395,A,795,Correct
2,new_learn,76,209,B,84.41484606908153,65.12452003610215,4.2207423034540765,1.022973568569899,A,769,Incorrect
2,new_learn,76,210,B,85.46029796407802,63.91977058460267,4.2730148982039005,1.0040494084386633,A,1907,Incorrect
2,new_learn,76,211,B,44.00653311165552,32.13273514012248,2.200326655582776,0.5047398232797768,B,1234,Correct
2,new_learn,76,212,B,53.12706853969795,32.6266681222928,2.6563534269848974,0.5124985044205367,B,1470,Correct
2,new_learn,76,213,B,56.39927451026563,31.039600596239502,2.8199637255132814,0.4875689060175369,B,1088,Correct
2,new_learn,76,214,B,54.75361792701162,23.122606582536957,2.737680896350581,0.36320905485772553,B,848,Correct
2,new_learn,76,215,A,57.8562670010298,79.27538148495739,2.89281335005149,1.2452547804183522,A,899,Correct
2,new_learn,76,216,B,45.04049969725868,28.187408677866973,2.252024984862934,0.4427667801306003,B,808,Correct
2,new_learn,76,217,B,80.10869157634413,61.092681849124304,4.005434578817207,0.9596416024265371,B,2005,Correct
2,new_learn,76,218,A,45.77945357093036,54.48572668209494,2.288972678546518,0.8558597933498542,B,879,Incorrect
2,new_learn,76,219,A,66.24133535033171,85.85779456431364,3.3120667675165856,1.348651083283347,A,647,Correct
2,new_learn,76,220,B,60.087314782181345,33.21109588495046,3.0043657391090672,0.5216786742491328,B,681,Correct
2,new_learn,76,221,A,26.35864980779439,39.605355361327625,1.3179324903897194,0.6221194672297999,B,841,Incorrect
2,new_learn,76,222,A,50.320428589858366,61.380329589183454,2.516021429492918,0.9641599625614947,A,590,Correct
2,new_learn,76,223,A,35.01368061759504,49.68440641007615,1.7506840308797522,0.7804408308793243,B,810,Incorrect
2,new_learn,76,224,B,76.26294249491441,58.91193621582989,3.8131471247457203,0.9253865301220083,A,656,Incorrect
2,new_learn,76,225,B,64.89149309394901,51.27927447219749,3.2445746546974505,0.8054929598163513,B,1276,Correct
2,new_learn,76,226,B,60.92495849740465,50.23515263658244,3.046247924870233,0.7890919323752466,B,788,Correct
2,new_learn,76,227,B,76.61301389357487,47.40633581414956,3.8306506946787438,0.7446569816367148,B,896,Correct
2,new_learn,76,228,B,52.12395989361215,37.37024495345951,2.6061979946806075,0.5870104350431973,B,1060,Correct
2,new_learn,76,229,A,10.642616955350608,33.82758723052318,0.5321308477675304,0.5313624976603976,B,1097,Incorrect
2,new_learn,76,230,A,25.46275502532511,46.29811678267165,1.2731377512662554,0.7272491177974177,A,912,Correct
2,new_learn,76,231,B,47.30426685253825,36.12923674660026,2.3652133426269124,0.5675167237146289,B,3338,Correct
2,new_learn,76,232,B,84.63213810124304,62.5896334345107,4.2316069050621525,0.9831556629436845,A,880,Incorrect
2,new_learn,76,233,B,67.7443431862999,58.362681534268035,3.3872171593149947,0.9167588577592857,B,814,Correct
2,new_learn,76,234,A,33.994712787310675,61.064920856211366,1.6997356393655338,0.9592055337695787,A,1067,Correct
2,new_learn,76,235,A,48.904581195891296,59.70624806992781,2.4452290597945647,0.937863551549475,A,1191,Correct
2,new_learn,76,236,A,52.37340147677659,63.77784775354311,2.61867007383883,1.0018200898214966,A,745,Correct
2,new_learn,76,237,B,72.4500006907946,55.613556243971665,3.62250003453973,0.8735756986803207,B,843,Correct
2,new_learn,76,238,A,62.29779720839294,85.14675569542854,3.1148898604196473,1.337482110848816,A,733,Correct
2,new_learn,76,239,A,43.319665252035406,56.76519145230883,2.1659832626017703,0.8916655422309576,B,692,Incorrect
2,new_learn,76,240,B,71.27911298601737,54.5953170828954,3.563955649300868,0.8575812353401476,A,824,Incorrect
2,new_learn,76,241,A,33.07977876214922,55.13274083547937,1.6539889381074608,0.8660230679050599,B,1158,Incorrect
2,new_learn,76,242,A,27.963074855158382,51.739622050182575,1.398153742757919,0.8127240826618304,B,1746,Incorrect
2,new_learn,76,243,B,64.25765360575295,33.75116897105562,3.212882680287647,0.5301621224476806,B,906,Correct
2,new_learn,76,244,B,83.29547019374422,54.14069576740444,4.164773509687211,0.8504400604155888,A,979,Incorrect
2,new_learn,76,245,A,47.07823457808347,66.00443819303348,2.3539117289041736,1.0367952906577775,A,2435,Correct
2,new_learn,76,246,A,33.10863635413237,60.71348052774353,1.6554318177066187,0.9536851219991301,B,1418,Incorrect
2,new_learn,76,247,B,54.370352195867,24.838848844620493,2.71851760979335,0.39016772526943533,B,699,Correct
2,new_learn,76,248,A,43.068925376225934,64.37177180654386,2.1534462688112965,1.0111494270299837,A,786,Correct
2,new_learn,76,249,A,37.739498595092506,50.74313868625846,1.8869749297546252,0.797071358584188,A,1546,Correct
2,new_learn,76,250,A,64.86485334676843,79.52281034891176,3.2432426673384214,1.2491413839247778,A,895,Correct
2,new_learn,76,251,A,42.57100940732498,51.020567626009225,2.1285504703662492,0.801429202179259,B,1569,Incorrect
2,new_learn,76,252,B,69.18400594264862,59.91075039449531,3.4592002971324316,0.9410758665519914,B,2513,Correct
2,new_learn,76,253,A,58.78570166268515,73.0984356042707,2.9392850831342576,1.1482275414164171,A,2131,Correct
2,new_learn,76,254,B,70.84913910842957,44.69025610824267,3.542456955421478,0.7019929013835078,B,804,Correct
2,new_learn,76,255,B,59.743392697604726,39.0713115849748,2.987169634880236,0.613730727207373,B,798,Correct
2,new_learn,76,256,A,53.1359526036541,76.99898836513329,2.6567976301827048,1.2094972809087434,A,755,Correct
2,new_learn,76,257,A,18.618329488503885,39.76460635327207,0.9309164744251943,0.6246209759616478,B,1076,Incorrect
2,new_learn,76,258,A,25.406815910258352,36.8264269143545,1.2703407955129178,0.5784681612604875,A,886,Correct
2,new_learn,76,259,A,31.068254968665777,61.386461347206094,1.5534127484332887,0.9642562799912823,B,1003,Incorrect
2,new_learn,76,260,B,43.32493088050424,31.713045880296594,2.166246544025212,0.49814735980247915,B,992,Correct
2,new_learn,76,261,B,47.93188737935041,21.0317810145268,2.3965943689675204,0.33036644363573336,B,996,Correct
2,new_learn,76,262,B,66.46680645275477,39.63163139833958,3.3233403226377387,0.622532210254011,B,1352,Correct
2,new_learn,76,263,A,54.41419446107081,62.86920084157846,2.72070972305354,0.9875470975048207,A,1073,Correct
2,new_learn,76,264,B,55.0952946512765,34.1600454619989,2.7547647325638245,0.5365847393485454,B,883,Correct
2,new_learn,76,265,B,61.281229198156886,32.08460457996837,3.064061459907844,0.5039837902088103,B,1039,Correct
2,new_learn,76,266,B,46.94783855366987,32.11558966857159,2.3473919276834936,0.5044705028424439,B,1837,Correct
2,new_learn,76,267,B,40.99142515319553,28.203809176800036,2.0495712576597764,0.4430243985654169,B,1127,Correct
2,new_learn,76,268,B,81.04141363943786,51.330600806912294,4.052070681971893,0.80629919199673,A,8226,Incorrect
2,new_learn,76,269,B,51.2852852122121,35.956926671410706,2.564264260610605,0.5648100833828538,B,1835,Correct
2,new_learn,76,270,B,72.62600981888875,50.237427634372864,3.6313004909444375,0.7891276679569731,A,2222,Incorrect
2,new_learn,76,271,A,65.1691867963344,76.44976323661649,3.2584593398167203,1.200870072764167,A,699,Correct
2,new_learn,76,272,B,65.49729605116637,53.71154027209081,3.2748648025583185,0.843698901658964,B,823,Correct
2,new_learn,76,273,B,46.661954002904736,18.285417068674317,2.333097700145237,0.28722665965386324,B,995,Correct
2,new_learn,76,274,A,15.283265816191168,43.177174241101035,0.7641632908095585,0.6782254669930474,A,1081,Correct
2,new_learn,76,275,B,67.110628577729,50.6698589552344,3.3555314288864504,0.795920283260977,A,1261,Incorrect
2,new_learn,76,276,A,33.33358381130017,59.46610067452994,1.6666791905650087,0.9340913250836717,A,1114,Correct
2,new_learn,76,277,B,49.604403287124384,24.094231550713722,2.4802201643562194,0.3784713041680682,B,671,Correct
2,new_learn,76,278,A,16.435630118446504,31.617535094345563,0.8217815059223252,0.49664707988506746,B,1083,Incorrect
2,new_learn,76,279,A,37.985283630583936,68.55736322295775,1.8992641815291966,1.0768965432536557,A,1136,Correct
2,new_learn,76,280,A,23.457494552865953,34.41759407714037,1.1728747276432976,0.5406303035348988,B,904,Incorrect
2,new_learn,76,281,A,51.15273209984914,74.90670828729344,2.557636604992457,1.1766318222997736,A,695,Correct
2,new_learn,76,282,B,71.99313404154675,58.321724677340725,3.5996567020773376,0.916115508955101,A,1395,Incorrect
2,new_learn,76,283,B,43.88907358169152,16.639320571041576,2.194453679084576,0.2613698363335487,B,939,Correct
2,new_learn,76,284,A,32.04963434208418,49.458437523618336,1.602481717104209,0.7768913199111457,B,781,Incorrect
2,new_learn,76,285,B,67.89725157090433,35.84276676903884,3.394862578545217,0.5630168638297239,B,1757,Correct
2,new_learn,76,286,A,49.70381805799562,66.95896164626919,2.485190902899781,1.0517889099996,A,931,Correct
2,new_learn,76,287,A,23.007269761128562,38.66776528772342,1.150363488056428,0.6073918367932316,B,862,Incorrect
2,new_learn,76,288,B,62.57411716795864,45.76167548449039,3.128705858397932,0.7188227175901757,B,922,Correct
2,new_learn,76,289,A,52.757490124292694,80.57045597105521,2.6378745062146347,1.2655977628752346,A,758,Correct
2,new_learn,76,290,A,20.283772763712527,32.73085952747525,1.0141886381856264,0.5141351391859789,A,1359,Correct
2,new_learn,76,291,A,51.6882783568295,77.2096341937994,2.5844139178414753,1.2128060978479773,A,1171,Correct
2,new_learn,76,292,A,38.237934461499975,46.270221507831906,1.9118967230749988,0.7268109398448859,A,1758,Correct
2,new_learn,76,293,B,71.87860919194496,49.204844670774065,3.593930459597248,0.7729078926936535,A,1186,Incorrect
2,new_learn,76,294,A,49.756258838478914,74.18404587702192,2.487812941923946,1.1652802677041012,A,848,Correct
2,new_learn,76,295,A,24.398025811200927,54.01939943776855,1.2199012905600464,0.8485347421251312,B,1100,Incorrect
2,new_learn,76,296,A,60.728501004295794,78.08970880044798,3.03642505021479,1.226630277442268,A,645,Correct
2,new_learn,76,297,B,66.91063010447013,40.262826901023914,3.3455315052235064,0.6324470060250711,B,1067,Correct
2,new_learn,76,298,B,88.443676381314,62.65076316093398,4.4221838190657,0.9841158864409211,A,965,Incorrect
2,new_learn,76,299,B,40.90621254492156,13.783781518184814,2.045310627246078,0.21651513378108084,A,2971,Incorrect
2,new_learn,76,300,A,43.24952947806088,55.13972800748596,2.1624764739030438,0.8661328221462862,A,934,Correct
2,new_learn,76,301,B,37.39575453111861,20.77420027799246,1.8697877265559304,0.32632037488772075,B,882,Correct
2,new_learn,76,302,B,86.5998125592008,65.52332178116254,4.32999062796004,1.0292379317325016,A,809,Correct
2,new_learn,76,303,A,21.13878276779808,44.684963774223675,1.056939138389904,0.7019097695951356,B,1275,Incorrect
2,new_learn,76,304,A,13.044362696998284,39.094559080913854,0.6522181348499143,0.6140958980196554,A,1423,Incorrect
2,new_learn,76,305,B,70.00787582613381,55.320052038821316,3.5003937913066907,0.8689653454068307,B,1899,Incorrect
2,new_learn,76,306,B,43.50978945012514,33.16871782679875,2.175489472506257,0.5210130012683188,B,1009,Correct
2,new_learn,76,307,A,59.29081720747043,78.97511696926912,2.9645408603735217,1.2405382364352524,A,843,Correct
2,new_learn,76,308,A,28.826585710863938,39.93743517872151,1.4413292855431967,0.6273357648034503,B,1094,Correct
2,new_learn,76,309,A,20.51862974236678,37.227457091423105,1.0259314871183391,0.5847675285512204,B,1140,Correct
2,new_learn,76,310,A,22.260747442872358,43.69952461654327,1.113037372143618,0.6864305275034934,A,1206,Correct
2,new_learn,76,311,A,38.29174276780858,67.84169157666729,1.914587138390429,1.0656547993218126,A,995,Correct
2,new_learn,76,312,B,43.31039463414525,15.239055002665957,2.165519731707262,0.23937451622013078,B,664,Correct
2,new_learn,76,313,B,72.34343704888163,40.14153053617937,3.6171718524440815,0.6305416871815572,A,755,Incorrect
2,new_learn,76,314,B,57.650537875270565,36.96514440155937,2.882526893763528,0.580647130454124,B,901,Incorrect
2,new_learn,76,315,B,39.51610273547462,27.76925451082657,1.9758051367737308,0.43619842983438994,B,1575,Incorrect
2,new_learn,76,316,A,31.97281501273447,59.2502006154462,1.5986407506367235,0.9306999748860361,A,843,Correct
2,new_learn,76,317,B,59.70180828133419,36.68501174136287,2.9850904140667094,0.5762468169176045,A,2997,Correct
2,new_learn,76,318,B,54.618718291955176,29.78347090689371,2.730935914597759,0.46783766699751306,A,2116,Correct
2,new_learn,76,319,A,30.800815321845928,49.099238545594964,1.5400407660922963,0.7712490355584698,A,888,Incorrect
2,new_learn,76,320,B,54.1846481422561,28.690233951131503,2.7092324071128053,0.450665141053236,B,1233,Correct
2,new_learn,76,321,B,41.710130046037754,19.60646252422005,2.0855065023018877,0.30797759314486645,B,1157,Correct
2,new_learn,76,322,B,67.20341406388054,52.12476369558003,3.360170703194027,0.8187738734806909,A,1000,Incorrect
2,new_learn,76,323,B,69.86786134532582,40.203243528656664,3.493393067266291,0.6315110726005458,B,1236,Correct
2,new_learn,76,324,B,52.73642841838211,26.113577954439513,2.6368214209191057,0.41019112330305774,B,893,Correct
2,new_learn,76,325,A,37.408028438389344,67.71205855788327,1.8704014219194673,1.0636185286244397,A,1014,Correct
2,new_learn,76,326,A,63.81641162067035,73.98851144469843,3.1908205810335177,1.1622088200235448,A,1066,Correct
2,new_learn,76,327,B,48.40677666890412,24.221440927618815,2.420338833445206,0.380469504387832,B,901,Correct
2,new_learn,76,328,A,28.7706728791749,60.1545189477579,1.438533643958745,0.944904974032521,A,878,Incorrect
2,new_learn,76,329,B,46.59379002742678,34.0504287663805,2.3296895013713392,0.5348628843202177,B,654,Correct
2,new_learn,76,330,A,66.00716102610376,83.55081903309495,3.300358051305188,1.3124131963789067,A,798,Correct
2,new_learn,76,331,B,49.67374523665472,39.9420706323967,2.483687261832736,0.6274085783395105,B,656,Correct
2,new_learn,76,332,A,69.27866193393324,88.19123841078428,3.4639330966966617,1.3853047335115296,A,731,Correct
2,new_learn,76,333,A,19.781946718934428,36.09701414329869,0.9890973359467213,0.5670105722455702,B,914,Incorrect
2,new_learn,76,334,B,54.67056906174137,31.695973399706258,2.7335284530870685,0.49787918590447333,B,1493,Correct
2,new_learn,76,335,A,54.22865455722096,61.902941042850834,2.711432727861048,0.9723691240791112,A,671,Correct
2,new_learn,76,336,B,48.619001195335606,24.42774852377358,2.4309500597667806,0.38371017653013,B,526,Incorrect
2,new_learn,76,337,A,40.417087991316265,66.08761652210457,2.0208543995658133,1.038101852795516,A,1087,Correct
2,new_learn,76,338,B,33.61407651378565,14.066330896541078,1.6807038256892823,0.2209534090376829,B,657,Correct
2,new_learn,76,339,B,63.452517815354035,35.338423701441464,3.1726258907677014,0.5550946614494596,B,784,Correct
2,new_learn,76,340,B,61.34368417582228,49.420829516876466,3.0671842087911143,0.7763005747226635,B,1019,Correct
2,new_learn,76,341,B,44.23064755222888,21.02262875229492,2.211532377611444,0.3302226802367764,B,1584,Correct
2,new_learn,76,342,A,42.62895412487842,54.357189617325744,2.1314477062439208,0.8538407378578897,A,697,Correct
2,new_learn,76,343,A,59.017341080851224,72.19453001421005,2.950867054042561,1.1340290256100505,A,678,Incorrect
2,new_learn,76,344,A,56.68587378739697,67.99228939618749,2.834293689369849,1.068020384339069,B,1335,Incorrect
2,new_learn,76,345,B,69.73962471573714,50.38843990333196,3.486981235786857,0.7914997631307923,A,830,Incorrect
2,new_learn,76,346,B,48.98395640262926,22.178052336320828,2.449197820131463,0.34837203145357726,B,1885,Correct
2,new_learn,76,347,B,61.0731484199811,48.595363334214134,3.053657420999055,0.7633341822464698,A,1079,Correct
2,new_learn,76,348,B,76.69234287983191,61.8984381834401,3.8346171439915957,0.9722983933288868,A,773,Incorrect
2,new_learn,76,349,A,24.497152441836995,51.6024800008503,1.2248576220918497,0.8105698603884276,B,2525,Incorrect
2,new_learn,76,350,A,34.35174924477554,45.08068284536327,1.717587462238777,0.7081257102290233,A,728,Correct
2,new_learn,76,351,A,54.24749208914281,76.6817409254388,2.712374604457141,1.2045139697791716,A,991,Incorrect
2,new_learn,76,352,A,58.83019030644705,85.69110915845633,2.9415095153223523,1.3460327950508373,A,740,Incorrect
2,new_learn,76,353,B,66.37853788003643,37.50068505864933,3.3189268940018217,0.5890593834241863,B,826,Incorrect
2,new_learn,76,354,B,64.54404216898054,47.81478887632192,3.2272021084490268,0.7510729473339994,B,1887,Incorrect
2,new_learn,76,355,A,42.1498066509399,58.46921981778485,2.107490332546995,0.9184323572033981,B,1429,Incorrect
2,new_learn,76,356,A,24.850837201562364,49.48889515668087,1.2425418600781182,0.7773697472925205,A,2072,Correct
2,new_learn,76,357,A,30.603310181942632,46.725512204576255,1.5301655090971316,0.7339626293855849,A,656,Incorrect
2,new_learn,76,358,A,58.021682228092686,84.74586208848172,2.9010841114046344,1.3311848887965394,A,1160,Correct
2,new_learn,76,359,A,28.696780338234312,48.607372239373184,1.4348390169117156,0.7635228176875963,B,750,Correct
2,new_learn,76,360,B,86.37862223723545,62.96197514602627,4.318931111861772,0.9890043928712964,B,898,Incorrect
2,new_learn,76,361,A,48.34942904557481,76.07027724137983,2.4174714522787406,1.1949091206902887,A,1098,Correct
2,new_learn,76,362,A,11.31635494314127,34.79058159154186,0.5658177471570636,0.546489177710521,B,1841,Incorrect
2,new_learn,76,363,B,80.60117477980373,56.58813630759709,4.030058738990187,0.8888843665214242,A,846,Incorrect
2,new_learn,76,364,B,82.26660199798933,66.91553123097228,4.113330099899466,1.0511067066314044,B,1627,Correct
2,new_learn,76,365,B,73.8404780408247,62.77702139319216,3.692023902041235,0.9860991461155089,B,917,Correct
2,new_learn,76,366,A,49.91173056984451,68.52251535022262,2.4955865284922254,1.0763491541487662,A,961,Correct
2,new_learn,76,367,B,80.79231123805083,61.507853014683405,4.039615561902542,0.966163095845051,A,811,Incorrect
2,new_learn,76,368,A,49.720780307553795,73.33267656976217,2.48603901537769,1.151906989898206,B,1657,Correct
2,new_learn,76,369,A,65.91498552151914,89.20352328478461,3.2957492760759575,1.401205667129027,A,969,Incorrect
2,new_learn,76,370,B,57.17934288763924,28.281048226725336,2.8589671443819618,0.4442376667244948,B,884,Correct
2,new_learn,76,371,A,58.78825740855291,77.75688066998268,2.9394128704276454,1.2214022253943788,A,801,Correct
2,new_learn,76,372,A,36.31664721378982,60.691185897775775,1.815832360689491,0.9533349187705241,B,824,Incorrect
2,new_learn,76,373,A,58.99531398179074,83.46369729025578,2.949765699089537,1.3110446912425493,A,879,Incorrect
2,new_learn,76,374,B,56.55845400214185,41.56377285378786,2.827922700107093,0.652882217264674,B,1916,Correct
2,new_learn,76,375,A,48.58412834165826,56.859728417814566,2.429206417082913,0.8931505254125851,B,1011,Correct
2,new_learn,76,376,B,54.77035697676237,34.66803535718359,2.7385178488381188,0.5445642259625958,B,744,Correct
2,new_learn,76,377,B,40.78051776063164,24.119389200152632,2.039025888031582,0.3788664796013625,B,718,Incorrect
2,new_learn,76,378,A,51.90620782364331,77.06503566372139,2.5953103911821653,1.2105347494489127,A,687,Incorrect
2,new_learn,76,379,B,79.5287579589787,57.29354263629945,3.976437897948935,0.8999648632216597,B,847,Correct
2,new_learn,76,380,A,25.763518864105556,36.8928242666846,1.2881759432052777,0.5795111284319779,B,808,Incorrect
2,new_learn,76,381,A,33.34173002596522,63.88441398296331,1.6670865012982607,1.003494028238833,A,838,Incorrect
2,new_learn,76,382,B,46.999401988503664,22.79674618095488,2.3499700994251835,0.3580904516391951,B,787,Correct
2,new_learn,76,383,A,11.529837505298499,30.477816421345413,0.576491875264925,0.47874442083378554,B,1016,Correct
2,new_learn,76,384,A,45.14882155696746,64.84193790066928,2.257441077848373,1.018534778766341,A,797,Incorrect
2,new_learn,76,385,A,19.73823240521095,46.9376628474795,0.9869116202605476,0.7372950838915808,B,1137,Incorrect
2,new_learn,76,386,A,60.11087248253058,72.88462232376979,3.005543624126529,1.1448689702601091,A,1084,Correct
2,new_learn,76,387,B,60.86212573709182,35.60258308911422,3.043106286854591,0.5592440674079071,B,913,Correct
2,new_learn,76,388,A,56.02402418679257,66.27061280927155,2.801201209339629,1.040976351752506,B,1467,Correct
2,new_learn,76,389,B,78.78702823488359,66.9911726320471,3.9393514117441795,1.0522948789810238,B,870,Correct
2,new_learn,76,390,A,39.19207275007352,60.18584990726268,1.959603637503676,0.9453971195935719,A,1753,Correct
2,new_learn,76,391,A,48.72073844356552,63.4009137592813,2.436036922178276,0.9958992244851909,A,1674,Incorrect
2,new_learn,76,392,A,34.05813620652877,48.00621212980373,1.7029068103264386,0.754079816768323,B,835,Correct
2,new_learn,76,393,A,40.56677823106188,68.8237269450376,2.028338911553094,1.0810805748160002,B,1029,Incorrect
2,new_learn,76,394,B,76.28649428862218,46.095310144378146,3.814324714431109,0.7240634385726071,B,875,Incorrect
2,new_learn,76,395,A,24.54360813582482,57.283800839635944,1.227180406791241,0.8998118394375055,A,967,Incorrect
2,new_learn,76,396,B,67.83789421331164,42.858460568579204,3.391894710665582,0.6732191243320813,B,1700,Correct
2,new_learn,76,397,A,29.343787116804997,56.72803370118561,1.46718935584025,0.8910818696411946,A,1214,Correct
2,new_learn,76,398,B,83.66794207570226,68.72846708578136,4.183397103785113,1.0795842364458932,A,781,Correct
2,new_learn,76,399,B,57.94966870961268,37.510136325582906,2.897483435480634,0.5892078435780145,B,715,Correct
2,new_learn,76,400,B,33.9663906004841,14.02850262698847,1.6983195300242047,0.22035920396906042,B,878,Incorrect
2,new_learn,76,401,B,53.98793410276858,28.18061994293418,2.6993967051384287,0.44266014293164013,A,1251,Correct
2,new_learn,76,402,A,37.94493541415633,48.722425297621214,1.8972467707078167,0.7653300669004215,B,1119,Correct
2,new_learn,76,403,B,44.77077193659477,21.568163273291937,2.2385385968297387,0.3387919164539957,B,841,Correct
2,new_learn,76,404,B,78.97040370737615,54.79306688869857,3.9485201853688072,0.8606874820259479,A,767,Incorrect
2,new_learn,76,405,B,46.06008689535588,29.309385279157986,2.303004344767794,0.4603907473711778,B,635,Correct
2,new_learn,76,406,B,61.6865121987239,35.83859813928102,3.0843256099361946,0.5629513831466104,B,1145,Correct
2,new_learn,76,407,B,50.74105674050626,25.476273699714223,2.5370528370253127,0.4001803714793253,B,1564,Incorrect
2,new_learn,76,408,B,66.09238742520613,57.9721790144295,3.3046193712603067,0.9106248585216206,A,622,Incorrect
2,new_learn,76,409,A,52.6385237966946,65.99704223897714,2.6319261898347297,1.0366791152831294,A,837,Correct
2,new_learn,76,410,A,43.86589836328291,63.73668245254517,2.1932949181641455,1.001173466785507,B,1017,Incorrect
2,new_learn,76,411,A,23.269786614884723,53.85737621584741,1.1634893307442362,0.8459896873066394,A,1325,Correct
2,new_learn,76,412,A,50.64774881958554,72.51951167455482,2.5323874409792766,1.1391338255935035,A,824,Correct
2,new_learn,76,413,B,66.34966145620615,36.66298746112888,3.3174830728103073,0.575900860332686,B,883,Correct
2,new_learn,76,414,A,44.88796163111509,71.7609552102308,2.2443980815557545,1.1272184485152363,A,696,Incorrect
2,new_learn,76,415,B,47.97252583896713,23.97571565615718,2.3986262919483563,0.376609660849706,B,670,Incorrect
2,new_learn,76,416,A,48.326546986015636,77.09555236850252,2.416327349300782,1.2110141047266736,A,1199,Correct
2,new_learn,76,417,B,75.31919273220952,49.466937043953514,3.7659596366104755,0.7770248300643658,B,791,Incorrect
2,new_learn,76,418,A,32.21247218079428,49.879745891392325,1.6106236090397141,0.783509216276619,A,778,Correct
2,new_learn,76,419,B,82.25033008913157,64.71470528475491,4.112516504456578,1.0165362135090732,B,1841,Correct
2,new_learn,76,420,A,68.57165777067216,87.98994835084326,3.428582888533608,1.3821428766437727,A,843,Incorrect
2,new_learn,76,421,B,80.80913150102485,58.70661797335613,4.040456575051243,0.9221613987109906,B,687,Incorrect
2,new_learn,76,422,A,60.339207584785186,84.95266236746295,3.016960379239259,1.3344332999825783,A,1258,Incorrect
2,new_learn,76,423,B,66.8450949120024,55.75223778935712,3.34225474560012,0.875754103301178,B,1147,Incorrect
2,new_learn,76,424,A,47.473344028805414,74.8218912307532,2.3736672014402704,1.1752995190911442,A,535,Correct
2,new_learn,76,425,B,44.884948876597434,31.797920297197386,2.2442474438298716,0.4994805640255453,B,1015,Correct
2,new_learn,76,426,B,52.298604326726945,32.92824988450402,2.6149302163363473,0.5172357396636339,B,935,Correct
2,new_learn,76,427,A,49.08533242896236,74.62500756396213,2.4542666214481184,1.1722068776851309,A,761,Correct
2,new_learn,76,428,A,48.73317030976719,70.89707399780167,2.4366585154883595,1.1136486341625282,A,845,Correct
2,new_learn,76,429,A,36.68761131559152,54.02958694916113,1.8343805657795758,0.8486947671798778,B,750,Correct
2,new_learn,76,430,A,43.85440050126413,74.60960455604044,2.1927200250632066,1.171964927802481,A,1053,Correct
2,new_learn,76,431,A,20.726736413772866,41.79327316390152,1.0363368206886434,0.6564871997059224,B,644,Correct
2,new_learn,76,432,A,17.580663218084727,34.99238360954516,0.8790331609042363,0.5496590763967147,B,836,Incorrect
2,new_learn,76,433,A,21.28310695292182,46.544284921761026,1.064155347646091,0.731115917883973,A,1242,Incorrect
2,new_learn,76,434,A,53.79836037088697,67.51381604898492,2.6899180185443483,1.0605045425765185,A,1005,Correct
2,new_learn,76,435,B,69.05332504615124,56.68411466186352,3.452666252307562,0.8903919909847595,B,1104,Incorrect
2,new_learn,76,436,A,54.86924275687252,67.33118914552202,2.743462137843626,1.057635845885184,A,671,Incorrect
2,new_learn,76,437,B,62.79428705425432,49.80108461220313,3.139714352712716,0.7822736077925053,B,1008,Correct
2,new_learn,76,438,A,40.889177844620306,65.13595617341878,2.044458892231015,1.0231532069947957,A,898,Correct
2,new_learn,76,439,A,41.01332511760942,56.708690992109574,2.0506662558804707,0.8907780350775256,A,1173,Correct
2,new_learn,76,440,A,25.162648033142332,36.054405942147085,1.2581324016571167,0.5663412841869674,B,1030,Correct
2,new_learn,76,441,A,23.791353577117302,41.50735671088938,1.1895676788558651,0.6519960345643054,B,875,Incorrect
2,new_learn,76,442,A,54.28975723674023,78.42928497707895,2.7144878618370116,1.2319643275514576,A,737,Correct
2,new_learn,76,443,A,28.073139155577756,44.556061545995604,1.403656957778888,0.6998849781289724,B,1299,Correct
2,new_learn,76,444,B,62.168124681293136,32.43543583494675,3.108406234064657,0.5094946346752592,B,788,Correct
2,new_learn,76,445,A,36.23705804067905,48.150805349845065,1.8118529020339524,0.7563510817575269,B,686,Correct
2,new_learn,76,446,B,36.947784011618815,18.564345440281606,1.8473892005809407,0.2916080562694593,B,916,Incorrect
2,new_learn,76,447,B,84.90006986403161,64.66371792810152,4.2450034932015805,1.0157353059836316,A,854,Incorrect
2,new_learn,76,448,A,51.095638494914795,72.1596339398701,2.5547819247457397,1.133480879356123,B,742,Correct
2,new_learn,76,449,A,61.78486988015709,83.23932039702156,3.0892434940078544,1.3075201872454496,A,765,Incorrect
2,new_learn,76,450,B,40.37069900312963,19.89876753727228,2.0185349501564813,0.3125691095529283,B,1535,Correct
2,new_learn,76,451,A,52.055988767950524,80.04372561536341,2.602799438397526,1.2573239017959141,A,762,Incorrect
2,new_learn,76,452,B,42.94830636709103,31.846307937502456,2.1474153183545512,0.5002406353020801,B,657,Incorrect
2,new_learn,76,453,A,15.919453291396866,36.871024191712564,0.7959726645698433,0.5791686936550787,A,1182,Incorrect
2,new_learn,76,454,B,79.25918664958178,49.118534255419725,3.9629593324790893,0.7715521318596259,A,1688,Incorrect
2,new_learn,76,455,A,61.38499718035935,72.37404781350787,3.069249859017967,1.1368488846073639,A,589,Incorrect
2,new_learn,76,456,A,39.025699184975494,59.29326998487994,1.9512849592487749,0.931376506959075,B,1871,Correct
2,new_learn,76,457,A,65.25158739882542,85.09242847440058,3.2625793699412715,1.336628740856459,B,1138,Incorrect
2,new_learn,76,458,A,63.894003805750245,78.72451425376056,3.194700190287512,1.2366017781851957,A,670,Correct
2,new_learn,76,459,A,37.288805682612036,54.72616854756443,1.8644402841306018,0.8596366453407261,B,1094,Incorrect
2,new_learn,76,460,B,74.06168380207863,54.41868359328552,3.7030841901039313,0.8548066829734661,A,1286,Correct
2,new_learn,76,461,B,44.16304118292428,36.180327664478284,2.208152059146214,0.5683192579759826,B,1047,Correct
2,new_learn,76,462,A,45.68170658721088,65.73904790809976,2.2840853293605443,1.0326265498103684,A,785,Correct
2,new_learn,76,463,B,79.48503991602442,49.895316135824515,3.9742519958012212,0.7837537931042328,B,985,Incorrect
2,new_learn,76,464,A,27.899230121433604,48.52709426020998,1.3949615060716802,0.7622618141396753,B,970,Correct
2,new_learn,76,465,B,52.81292090993812,37.1084046025191,2.640646045496906,0.5828974564285584,B,978,Correct
2,new_learn,76,466,B,40.33975120243777,18.538024598904368,2.0169875601218883,0.2911946094599242,B,950,Correct
2,new_learn,76,467,A,44.01187402984393,58.04388743139624,2.200593701492197,0.9117512517013369,A,767,Correct
2,new_learn,76,468,A,55.69000874479755,76.22665620094983,2.784500437239877,1.1973655156430942,A,751,Incorrect
2,new_learn,76,469,A,42.981611310562755,66.48171668280244,2.1490805655281378,1.0442923636436507,B,1756,Correct
2,new_learn,76,470,A,36.73453489720647,60.77517617168977,1.8367267448603235,0.95465423490803,B,769,Correct
2,new_learn,76,471,A,31.174566670548522,61.739259925088106,1.5587283335274262,0.9697980270936376,B,959,Correct
2,new_learn,76,472,A,60.999318041478645,77.01569239011894,3.0499659020739323,1.209759667119645,B,1056,Incorrect
2,new_learn,76,473,A,46.56848368790894,74.02059806114866,2.328424184395447,1.1627128354161376,A,1035,Correct
2,new_learn,76,474,B,36.01792186299255,24.79645442349249,1.8008960931496276,0.38950179525959067,B,766,Incorrect
2,new_learn,76,475,B,37.95759914233517,12.377242865789913,1.8978799571167584,0.19442127629431133,A,1165,Correct
2,new_learn,76,476,B,62.175431859166174,34.76659671990137,3.108771592958309,0.5461124242278057,A,1186,Incorrect
2,new_learn,76,477,A,33.38586899235243,61.47968814987797,1.6692934496176213,0.9657206831832406,B,980,Incorrect
2,new_learn,76,478,B,49.19913678582597,42.19610599937559,2.4599568392912987,0.6628148830886728,A,1417,Incorrect
2,new_learn,76,479,A,38.800337672038644,71.8555356946884,1.940016883601932,1.1287041152909612,B,1062,Incorrect
2,new_learn,76,480,A,56.91976453022949,80.41236551190303,2.8459882265114747,1.263114483749859,A,914,Correct
2,new_learn,76,481,B,76.7222518597408,53.383534984057846,3.83611259298704,0.8385466066428492,A,2094,Incorrect
2,new_learn,76,482,A,52.98136800615729,83.33633293313514,2.6490684003078644,1.3090440565992525,A,702,Correct
2,new_learn,76,483,B,88.47733901044674,66.41115458607153,4.423866950522337,1.0431839768200921,B,2153,Correct
2,new_learn,76,484,B,55.766128745696065,27.357077315035596,2.788306437284803,0.429723965583019,B,778,Incorrect
2,new_learn,76,485,B,68.13676403122642,36.42204118502684,3.4068382015613214,0.5721160850781261,B,1815,Correct
2,new_learn,76,486,A,17.233806372407336,42.3898114700413,0.8616903186203669,0.6658576015066905,A,1223,Correct
2,new_learn,76,487,B,82.3258400848975,67.13469261739995,4.116292004244874,1.0545492856391632,A,2180,Correct
2,new_learn,76,488,A,61.04990225444763,87.32458048468848,3.052495112722381,1.37169130264254,A,763,Correct
2,new_learn,76,489,B,76.75907215369955,63.44620606567879,3.8379536076849776,0.9966106743704032,B,688,Correct
2,new_learn,76,490,B,73.11563099054102,54.94222032376635,3.655781549527051,0.863030378705281,B,715,Correct
2,new_learn,76,491,A,27.930327487823405,48.153350247600194,1.3965163743911702,0.7563910569179851,B,1937,Correct
2,new_learn,76,492,A,38.57521334477862,61.89940079860083,1.9287606672389308,0.9723135140524728,B,985,Incorrect
2,new_learn,76,493,B,55.033347224480195,28.09150994657897,2.7516673612240097,0.44126040638208547,B,978,Correct
2,new_learn,76,494,A,21.712897190718945,37.1985996036248,1.0856448595359474,0.5843142361928794,B,660,Incorrect
2,new_learn,76,495,A,23.383267655503705,42.002469877310475,1.1691633827751853,0.6597732539959258,A,1058,Incorrect
2,new_learn,76,496,B,74.22393209154298,52.312557744912226,3.7111966045771485,0.8217237355095405,B,591,Correct
2,new_learn,76,497,B,63.897877747972935,53.55416465619531,3.194893887398647,0.8412268512652067,B,767,Correct
2,new_learn,76,498,B,68.68743306036887,58.983416299992896,3.434371653018444,0.9265093366584308,B,755,Correct
2,new_learn,76,499,B,75.03273558825668,42.38703569711773,3.7516367794128342,0.6658139997675668,B,598,Correct
2,new_learn,76,500,A,30.35259615025899,58.20650452268868,1.5176298075129495,0.9143056349980991,B,708,Incorrect
2,new_learn,76,501,A,26.702660505130122,47.29052639975659,1.3351330252565061,0.7428378516093475,A,1231,Incorrect
2,new_learn,76,502,A,41.74291558388867,59.9087296535953,2.0871457791944334,0.94104412482816,B,461,Correct
2,new_learn,76,503,A,26.112040743010255,53.4685715329038,1.3056020371505128,0.8398823576285547,B,547,Incorrect
2,new_learn,76,504,B,52.51657812916383,28.845644202077004,2.6258289064581914,0.4531063195665506,B,601,Incorrect
2,new_learn,76,505,A,67.02843897726648,86.60614316564383,3.351421948863324,1.3604061156246627,A,2459,Correct
2,new_learn,76,506,B,54.880791504429666,46.40185621225676,2.7440395752214837,0.7288786529467788,B,740,Correct
2,new_learn,76,507,A,37.235066693928175,67.13781733465439,1.8617533346964086,1.0545983685830183,A,851,Correct
2,new_learn,76,508,B,53.37181337494395,41.61064170670183,2.6685906687471976,0.6536184314846575,B,734,Correct
2,new_learn,76,509,A,13.246342370353137,32.607912422580625,0.6623171185176568,0.5122038905783932,B,848,Correct
2,new_learn,76,510,A,49.4119541433454,61.42710263453782,2.47059770716727,0.964894671839851,A,639,Incorrect
2,new_learn,76,511,B,77.24762237895041,53.000734691037614,3.8623811189475203,0.8325335937011273,B,556,Correct
2,new_learn,76,512,B,82.46183847262043,64.4883432756929,4.123091923631022,1.0129805273854677,B,1002,Correct
2,new_learn,76,513,A,21.887076755398663,39.695111526410855,1.0943538377699331,0.6235293537739993,B,516,Correct
2,new_learn,76,514,B,46.866472939313596,39.39161638798572,2.34332364696568,0.6187620632876162,B,463,Correct
2,new_learn,76,515,A,17.36798905351564,35.637902975203716,0.868399452675782,0.5597988708812291,B,458,Correct
2,new_learn,76,516,A,61.06314160366333,75.20975989203085,3.053157080183167,1.181392145775282,A,707,Incorrect
2,new_learn,76,517,B,84.20123526861045,56.814825336819766,4.210061763430522,0.8924451894657011,B,384,Correct
2,new_learn,76,518,A,18.442212571082013,42.989185359404345,0.9221106285541006,0.675272544544573,B,482,Incorrect
2,new_learn,76,519,B,77.56102584502776,55.02452671361828,3.8780512922513877,0.8643232444537926,B,867,Incorrect
2,new_learn,76,520,A,44.438953080572475,56.09556689716204,2.221947654028624,0.8811471043153953,A,648,Correct
2,new_learn,76,521,B,36.27791923336518,16.655240079534185,1.8138959616682593,0.2616198993881944,B,600,Correct
2,new_learn,76,522,A,46.81690048179341,61.923148970646714,2.3408450240896705,0.9726865494666505,A,626,Correct
2,new_learn,76,523,B,33.37936184058518,16.897517267954193,1.668968092029259,0.2654255805645578,B,749,Correct
2,new_learn,76,524,B,79.7755344499805,65.34892795849113,3.988776722499025,1.026498559971822,B,1021,Incorrect
2,new_learn,76,525,A,65.37055970826043,81.91760994301652,3.2685279854130216,1.2867588079830745,A,593,Correct
2,new_learn,76,526,B,69.81263468284881,38.44239633252792,3.49063173414244,0.6038517495232847,B,483,Correct
2,new_learn,76,527,B,77.49970837921305,62.13989414755109,3.8749854189606525,0.9760911747439694,B,837,Incorrect
2,new_learn,76,528,B,49.09650586661236,41.50209077026999,2.454825293330618,0.6519133173624847,B,605,Correct
2,new_learn,76,529,B,39.561436650995745,28.361924809040474,1.9780718325497872,0.44550807310873825,B,609,Correct
2,new_learn,76,530,B,58.655239693275554,41.987051362671025,2.932761984663778,0.659531060534323,B,598,Correct
2,new_learn,76,531,B,79.16885769821965,48.87634121969346,3.9584428849109825,0.7677477725506847,B,552,Correct
2,new_learn,76,532,A,42.119202814466185,60.83618094814452,2.105960140723309,0.9556124956957509,B,600,Incorrect
2,new_learn,76,533,A,38.737153448129476,46.87051351177013,1.9368576724064739,0.7362403045927909,A,653,Incorrect
2,new_learn,76,534,B,41.29298561330734,24.53264672300826,2.0646492806653667,0.3853579135905823,B,571,Correct
2,new_learn,76,535,B,82.65099468005322,54.813368967781955,4.1325497340026605,0.8610063863384526,B,743,Correct
2,new_learn,76,536,A,24.317396027142344,37.994441620360895,1.2158698013571172,0.5968152933588603,B,616,Correct
2,new_learn,76,537,B,43.133045139594614,35.20251121732849,2.156652256979731,0.5529597531413574,B,445,Correct
2,new_learn,76,538,A,42.996330303525944,56.32027056601058,2.149816515176297,0.8846767412918415,B,491,Correct
2,new_learn,76,539,A,29.171754511331734,50.02493215765671,1.4585877255665867,0.7857897968141104,B,645,Correct
2,new_learn,76,540,A,33.81348047459181,61.81640719152238,1.6906740237295907,0.9710098535210098,B,493,Incorrect
2,new_learn,76,541,A,14.126425111146276,30.3843279788421,0.7063212555573137,0.4772759078129658,A,1008,Incorrect
2,new_learn,76,542,A,40.757939507298936,68.5247548675657,2.037896975364947,1.0763843324049291,A,956,Correct
2,new_learn,76,543,B,71.73508189998832,50.22448140094966,3.5867540949994154,0.7889243089979031,A,584,Incorrect
2,new_learn,76,544,A,50.38134780427068,57.28801416879606,2.519067390213534,0.8998780222571884,A,1439,Correct
2,new_learn,76,545,A,49.78010401919056,58.357000872251994,2.489005200959528,0.916669626129,A,829,Correct
2,new_learn,76,546,B,72.88433556032855,53.1632035816158,3.644216778016428,0.8350856490665137,B,1304,Correct
2,new_learn,76,547,A,60.586823423522276,78.37435100408187,3.029341171176114,1.2311014267214573,A,762,Incorrect
2,new_learn,76,548,A,30.251896135708815,54.766475920173356,1.5125948067854407,0.8602697920690946,B,1659,Incorrect
2,new_learn,76,549,B,69.5047388671885,47.1849435407415,3.475236943359425,0.7411793599382133,B,804,Correct
2,new_learn,76,550,A,18.42551768684831,46.09494667108586,0.9212758843424155,0.7240577291474831,B,863,Incorrect
2,new_learn,76,551,B,83.39184494534226,56.48678154521531,4.169592247267113,0.8872922896368995,B,586,Incorrect
2,new_learn,76,552,B,37.257869912874796,18.630230714388823,1.86289349564374,0.2926429797350343,B,685,Correct
2,new_learn,76,553,B,63.32184999553899,45.025724865618045,3.1660924997769495,0.7072624323019047,A,441,Incorrect
2,new_learn,76,554,B,53.915431267434144,38.170259555340216,2.695771563371707,0.5995770350233621,A,569,Correct
2,new_learn,76,555,A,35.35060933597979,47.04181218228658,1.7675304667989895,0.7389310578171117,B,577,Incorrect
2,new_learn,76,556,A,59.32838265588752,75.46858919749343,2.9664191327943765,1.1854578269981566,B,758,Correct
2,new_learn,76,557,A,19.647114075395386,47.30895364870598,0.9823557037697693,0.7431273061589737,B,653,Incorrect
2,new_learn,76,558,B,50.16667322204563,39.43430551414393,2.5083336611022817,0.6194326225132502,B,1044,Incorrect
2,new_learn,76,559,A,51.83216045052279,76.49800227749347,2.5916080225261395,1.2016278098463435,A,1575,Correct
2,new_learn,76,560,B,48.16768960691394,18.55085048695649,2.408384480345697,0.2913960780383258,B,619,Incorrect
2,new_learn,76,561,A,45.64104520773167,70.14799034468204,2.2820522603865836,1.1018820556547042,A,1394,Correct
2,new_learn,76,562,A,37.743199160463995,55.94705469930986,1.8871599580232,0.8788142801666907,B,771,Correct
2,new_learn,76,563,B,65.67438487422181,56.64273224677646,3.2837192437110905,0.8897419575286329,B,717,Incorrect
2,new_learn,76,564,B,82.34127746508472,63.67125917798795,4.117063873254236,1.0001458003918933,A,1449,Incorrect
2,new_learn,76,565,A,35.255920021004215,48.89254174577127,1.7627960010502108,0.7680022498192366,B,749,Correct
2,new_learn,76,566,B,85.1268556230165,59.08454893841338,4.256342781150824,0.9280979244279304,B,683,Incorrect
2,new_learn,76,567,B,83.76556590957026,59.79729822727755,4.188278295478512,0.9392937640766656,B,1443,Incorrect
2,new_learn,76,568,B,71.61329614183671,52.5057021980849,3.5806648070918357,0.8247576414853847,B,1257,Incorrect
2,new_learn,76,569,B,49.75795708575929,24.06438644281902,2.4878978542879646,0.3780024983095303,B,724,Correct
2,new_learn,76,570,A,41.08799247556901,70.242922711027,2.0543996237784508,1.1033732497781905,A,677,Incorrect
2,new_learn,76,571,A,47.14295142816366,75.07549213497407,2.357147571408183,1.1792830727793642,A,1836,Incorrect
2,new_learn,76,572,A,38.48830078130323,55.16810986801149,1.9244150390651615,0.8665786433688974,B,723,Correct
2,new_learn,76,573,B,72.70733744043692,62.05500687473814,3.6353668720218457,0.9747577685807072,B,736,Correct
2,new_learn,76,574,A,41.066935192025184,64.98927877764243,2.0533467596012596,1.0208492038497026,B,2860,Incorrect
2,new_learn,76,575,B,46.23642102478351,33.513770051100956,2.3118210512391757,0.526433068933182,B,864,Correct
2,new_learn,76,576,B,59.411807571752846,50.138172119160195,2.970590378587642,0.7875685659698713,B,799,Incorrect
2,new_learn,76,577,B,55.07088355574028,22.672040994049894,2.753544177787014,0.35613158714396886,B,678,Correct
2,new_learn,76,578,B,78.97409775177603,50.56098514003086,3.9487048875888013,0.7942100973709183,B,1081,Incorrect
2,new_learn,76,579,A,59.167598151728214,75.75165655855905,2.958379907586411,1.1899042387081311,A,605,Correct
2,new_learn,76,580,A,35.71443656798133,43.476852711266375,1.7857218283990663,0.6829328053945996,B,546,Correct
2,new_learn,76,581,B,65.21876724651268,42.6011041301683,3.2609383623256343,0.6691765788507525,B,859,Correct
2,new_learn,76,582,B,53.21799829237525,43.98975693979647,2.6608999146187626,0.6909894861763262,B,650,Incorrect
2,new_learn,76,583,A,40.32490542428899,67.94559376398013,2.0162452712144496,1.0672868910635822,B,1320,Incorrect
2,new_learn,76,584,A,27.877072165696767,48.09052810898013,1.3938536082848385,0.7554042490721271,B,684,Correct
2,new_learn,76,585,A,69.26727338792817,88.0317389980304,3.4633636693964087,1.3827993225947321,A,650,Correct
2,new_learn,76,586,B,48.81202578838124,27.162086961854534,2.440601289419062,0.42666106427764655,B,591,Incorrect
2,new_learn,76,587,A,32.12570788866894,53.28427019532151,1.6062853944334472,0.8369873589875781,A,968,Correct
2,new_learn,76,588,A,17.275247168726334,38.101566052948,0.8637623584363168,0.5984980000110385,A,745,Incorrect
2,new_learn,76,589,A,58.234548717062765,86.473727131019,2.911727435853138,1.3583261294166884,A,824,Incorrect
2,new_learn,76,590,A,29.026732960961258,49.966824339937816,1.451336648048063,0.7848770413478017,B,1884,Incorrect
2,new_learn,76,591,A,61.72919087529965,88.01979925094079,3.0864595437649824,1.38261177348602,B,1831,Correct
2,new_learn,76,592,A,33.15913075478846,59.59679775007314,1.657956537739423,0.9361443099455324,B,759,Incorrect
2,new_learn,76,593,A,45.556041079999005,67.09024006435041,2.27780205399995,1.0538510265686944,B,709,Incorrect
2,new_learn,76,594,B,50.963241919400055,36.63555945800452,2.5481620959700026,0.5754700222670953,B,1007,Correct
2,new_learn,76,595,B,48.418805001321395,17.612046360497793,2.42094025006607,0.2766493773041136,B,877,Correct
2,new_learn,76,596,A,38.81736716876874,45.97368215668206,1.940868358438437,0.7221529106095225,B,946,Incorrect
2,new_learn,76,597,B,62.69405994958173,36.7497696030132,3.1347029974790868,0.5772640310297188,B,837,Incorrect
2,new_learn,76,598,B,74.47290457014034,58.74033169803725,3.7236452285070176,0.9226909726599075,A,983,Incorrect
2,new_learn,76,599,B,48.59221676709664,36.852223265678894,2.4296108383548316,0.5788733693995384,B,743,Incorrect
2,new_learn,76,600,A,63.81581799262738,63.03446694085601,3.1907908996313687,0.9901430913217095,B,778,Incorrect
2,new_learn,76,601,A,88.0317389980304,30.73272661207183,4.40158694990152,0.4827485407463419,B,1284,Incorrect
2,new_learn,76,602,B,22.771660292002757,61.915080865113474,1.1385830146001379,0.9725598159612923,A,1766,Incorrect
2,new_learn,76,603,A,54.48572668209494,54.22054642906964,2.724286334104747,0.8516943516759473,B,4331,Incorrect
2,new_learn,76,604,B,43.90948854772616,31.627456022353584,2.195474427386308,0.49680291745780136,B,1000,Correct
2,new_learn,76,605,A,61.42710263453782,50.5880458566546,3.0713551317268912,0.7946351661136484,B,719,Incorrect
2,new_learn,76,606,A,31.273516175483405,84.90012245589106,1.5636758087741702,1.3336080049815058,A,1196,Correct
2,new_learn,76,607,B,54.780229496401915,21.691752685468174,2.739011474820096,0.34073325440076735,B,878,Correct
2,new_learn,76,608,A,61.47968814987797,66.61413100764757,3.0739844074938985,1.0463723229944684,A,1430,Correct
2,new_learn,76,609,B,48.87634121969346,20.831142301780346,2.443817060984673,0.32721481810578357,B,726,Correct
2,new_learn,76,610,A,49.099238545594964,69.19918467815407,2.4549619272797485,1.086978251096461,A,993,Correct
2,new_learn,76,611,B,17.331429788619403,66.79804178814803,0.8665714894309702,1.0492611867791493,A,973,Incorrect
2,new_learn,76,612,A,40.58802794867499,87.28092579319903,2.02940139743375,1.3710055763521498,B,4042,Incorrect
2,new_learn,76,613,A,87.45674522937799,39.19778427316818,4.3728372614688995,0.6157173555479134,B,1176,Incorrect
2,new_learn,76,614,B,54.2223560945007,31.38322918579128,2.711117804725035,0.4929666112800334,B,3298,Correct
2,new_learn,76,615,B,33.073779987178945,52.25180254103663,1.6536889993589472,0.8207693949987258,A,1351,Incorrect
2,new_learn,76,616,B,24.221440927618815,51.59322333109588,1.2110720463809408,0.8104244569599416,B,2455,Correct
2,new_learn,76,617,B,36.68501174136287,40.29819171866581,1.8342505870681436,0.6330025152815678,B,755,Correct
2,new_learn,76,618,A,57.1988345624412,67.46325416905549,2.85994172812206,1.0597103184238286,A,779,Correct
2,new_learn,76,619,B,60.11315349795248,23.576242532612696,3.005657674897624,0.37033475169853625,B,772,Correct
2,new_learn,76,620,B,35.338423701441464,36.547482184645965,1.7669211850720732,0.574086507692438,B,874,Correct
2,new_learn,76,621,A,43.32701413175829,84.2427501802862,2.1663507065879144,1.3232820254229365,A,616,Correct
2,new_learn,76,622,A,30.3843279788421,85.87357488885372,1.519216398942105,1.348898960041579,A,989,Correct
2,new_learn,76,623,A,53.203155977222,56.49455869072558,2.6601577988611003,0.8874144527529045,B,660,Incorrect
2,new_learn,76,624,B,51.85990813771127,25.079330410189925,2.5929954068855636,0.39394520086801876,B,680,Correct
2,new_learn,76,625,B,58.321724677340725,28.006865958453247,2.9160862338670364,0.4399308217257539,B,722,Correct
2,new_learn,76,626,A,58.46921981778485,57.8501933490601,2.923460990889242,0.9087087121707815,A,1153,Correct
2,new_learn,76,627,B,34.52598117487535,33.58157852381201,1.7262990587437672,0.527498201931783,A,1096,Incorrect
2,new_learn,76,628,A,55.94238600589744,75.9960127397531,2.797119300294872,1.1937425766266234,A,659,Correct
2,new_learn,76,629,B,64.4883432756929,17.53816152737957,3.224417163784645,0.275488797059434,B,666,Correct
2,new_learn,76,630,A,49.966824339937816,70.97326703903875,2.498341216996891,1.1148454716555538,A,703,Correct
2,new_learn,76,631,B,62.96197514602627,13.621377762764553,3.1480987573013137,0.21396410155636242,B,603,Correct
2,new_learn,76,632,B,66.91553123097228,17.733398002010674,3.345776561548614,0.27855556443150326,B,934,Correct
2,new_learn,76,633,B,50.51613214727534,23.793644796714275,2.5258066073637675,0.37374969847741285,B,714,Correct
2,new_learn,76,634,A,65.33304028598764,50.37031549036742,3.266652014299382,0.7912150655176922,B,2661,Incorrect
2,new_learn,76,635,B,36.63555945800452,49.036758080599945,1.8317779729002261,0.7702675947093636,A,1750,Incorrect
2,new_learn,76,636,A,56.72803370118561,70.656212883195,2.8364016850592804,1.1098651966216093,A,837,Correct
2,new_learn,76,637,A,68.52251535022262,50.08826943015549,3.4261257675111314,0.7867846963640135,B,2124,Incorrect
2,new_learn,76,638,A,64.98927877764243,58.933064807974816,3.2494639388821214,0.9257184172713243,A,1045,Correct
2,new_learn,76,639,A,76.22799260780107,36.45608561429476,3.8113996303900537,0.5726508537225448,B,1108,Incorrect
2,new_learn,76,640,A,60.83618094814452,57.880797185533815,3.041809047407226,0.909189436109969,A,1156,Correct
2,new_learn,76,641,B,21.72509084839425,49.031597148418875,1.0862545424197123,0.7701865269762349,A,1040,Incorrect
2,new_learn,76,642,A,89.20352328478461,34.08501447848086,4.460176164239231,0.535406155415486,A,2458,Correct
2,new_learn,76,643,A,85.69110915845633,41.16980969355295,4.284555457922817,0.646693858414779,A,2066,Correct
2,new_learn,76,644,B,25.69891454928512,49.99712728446533,1.284945727464256,0.7853530388873504,A,1052,Incorrect
2,new_learn,76,645,B,28.849859000825724,58.09814803199971,1.4424929500412862,0.9126035752225129,A,1374,Incorrect
2,new_learn,76,646,B,14.04716864075612,63.613808568571244,0.702358432037806,0.9992433683294542,A,2308,Incorrect
2,new_learn,76,647,B,51.17232856863798,25.153180942637235,2.5586164284318986,0.39510524231901967,B,1876,Correct
2,new_learn,76,648,B,51.39920932317546,21.451673636438628,2.5699604661587734,0.3369621015172072,B,871,Correct
2,new_learn,76,649,A,67.06529052188866,63.67861197189426,3.3532645260944327,1.0002612978084904,A,758,Correct
2,new_learn,76,650,B,48.69040626998019,44.47105169448078,2.4345203134990094,0.6985496465039637,B,586,Correct
2,new_learn,76,651,A,63.4009137592813,51.27926155643448,3.170045687964065,0.8054927569360203,B,927,Incorrect
2,new_learn,76,652,A,78.42928497707895,45.71024276325977,3.9214642488539475,0.7180148142943146,A,566,Correct
2,new_learn,76,653,B,33.788347812769025,34.07076565068046,1.689417390638451,0.5351823353517859,B,812,Correct
2,new_learn,76,654,B,67.13469261739995,17.674159915102507,3.3567346308699975,0.27762505473828625,B,681,Correct
2,new_learn,76,655,B,21.02262875229492,55.76935244777112,1.051131437614746,0.8760229397268885,A,671,Incorrect
2,new_learn,76,656,B,13.72046760828998,69.06253011854457,0.686023380414499,1.0848316862937173,A,489,Incorrect
2,new_learn,76,657,A,61.81640719152238,66.18651952540819,3.090820359576119,1.0396554175384989,B,645,Incorrect
2,new_learn,76,658,B,63.77575121667911,25.84813303561053,3.1887875608339558,0.4060215242684284,B,688,Correct
2,new_learn,76,659,B,53.55416465619531,36.102122252027065,2.6777082328097657,0.5670908102298441,B,860,Correct
2,new_learn,76,660,B,36.852223265678894,51.40778323290336,1.8426111632839448,0.8075115707091287,B,1223,Correct
2,new_learn,76,661,B,57.129034108944786,31.951669957923798,2.8564517054472396,0.5018956580486955,B,585,Correct
2,new_learn,76,662,A,32.103063683333176,85.40606809784079,1.6051531841666589,1.341555380540831,A,571,Correct
2,new_learn,76,663,B,56.58813630759709,19.398825220196272,2.8294068153798544,0.304716034000205,B,470,Correct
2,new_learn,76,664,A,67.2389115914572,64.65783430453752,3.3619455795728594,1.0156428862408058,A,615,Correct
2,new_learn,76,665,A,48.607372239373184,71.3032196617657,2.430368611968659,1.1200283553335122,A,544,Correct
2,new_learn,76,666,A,44.837544345888354,77.14054259706197,2.2418772172944177,1.2117208095843017,A,662,Correct
2,new_learn,76,667,B,23.97571565615718,52.02747416103287,1.198785782807859,0.8172456530456682,B,1583,Correct
2,new_learn,76,668,B,30.19764502392038,53.72878303836656,1.509882251196019,0.8439697503982613,B,822,Correct
2,new_learn,76,669,A,65.1122977663642,48.129933448305756,3.2556148883182097,0.7560232266948151,B,726,Incorrect
2,new_learn,76,670,A,89.08698350968398,37.00965730999562,4.454349175484199,0.58134633758479,A,825,Correct
2,new_learn,76,671,A,59.59679775007314,66.84086924521154,2.979839887503657,1.0499339189015626,A,788,Correct
2,new_learn,76,672,B,16.63932057104158,56.11092641830848,0.831966028552079,0.8813883711093768,A,641,Incorrect
2,new_learn,76,673,B,52.3124727363127,26.106002800678795,2.615623636815635,0.4100721330660353,B,626,Correct
2,new_learn,76,674,A,53.43677170159563,66.79074386293229,2.6718385850797812,1.0491465512379283,A,612,Correct
2,new_learn,76,675,B,45.44432784104323,40.68181605676173,2.2722163920521616,0.6390284722930697,B,458,Correct
2,new_learn,76,676,B,49.466937043953514,24.680807267790485,2.473346852197676,0.38768521398578076,B,408,Correct
2,new_learn,76,677,A,63.40959937099896,57.33589296015907,3.1704799685499485,0.9006301005532323,A,528,Correct
2,new_learn,76,678,A,42.002469877310475,76.6167323444963,2.100123493865524,1.2034928173776251,A,823,Correct
2,new_learn,76,679,B,53.383534984057846,23.277748140259206,2.6691767492028924,0.36564601274775893,B,419,Correct
2,new_learn,76,680,A,32.77933201871207,85.6670570847084,1.6389666009356034,1.3456549859598865,A,500,Correct
2,new_learn,76,681,A,70.242922711027,58.91200752443099,3.51214613555135,0.9253876502348951,B,549,Incorrect
2,new_learn,76,682,A,61.9288830732467,48.05257372159714,3.096444153662335,0.7548080629492576,A,621,Correct
2,new_learn,76,683,A,60.71348052774353,66.89136364586763,3.035674026387176,1.0507270830923057,A,470,Correct
2,new_learn,76,684,A,55.877810881786694,67.4087521502027,2.7938905440893347,1.0588542027136598,A,745,Correct
2,new_learn,76,685,B,62.77702139319216,26.159521959175294,3.138851069659608,0.41091281004182983,B,583,Correct
2,new_learn,76,686,B,59.922344417003345,25.43946343145211,2.996117220850167,0.39960215713758074,B,489,Correct
2,new_learn,76,687,B,13.78378151818481,59.09378745507844,0.6891890759092405,0.9282430427083556,B,1028,Correct
2,new_learn,76,688,A,32.746369726635606,84.76902285199048,1.6373184863317802,1.331548697218993,B,773,Incorrect
2,new_learn,76,689,B,22.018889869639214,55.05031959946514,1.1009444934819606,0.8647283981572494,B,964,Correct
2,new_learn,76,690,A,39.56110199571778,83.30199994955335,1.9780550997858888,1.3085047553542706,A,560,Correct
2,new_learn,76,691,A,55.95803667186817,68.36037565187033,2.7979018335934085,1.0738022697227718,B,700,Incorrect
2,new_learn,76,692,A,40.59733032731428,78.9836168662553,2.0298665163657144,1.2406717525048927,A,1179,Correct
2,new_learn,76,693,A,60.691185897775775,63.68335278621018,3.0345592948887887,1.000335766345625,B,938,Incorrect
2,new_learn,76,694,B,35.84276676903884,32.10274842909567,1.7921383384519418,0.5042687931244412,B,749,Correct
2,new_learn,76,695,A,77.6206197558321,37.5780809623449,3.8810309877916045,0.590275115436526,B,572,Incorrect
2,new_learn,76,696,A,48.10442435967211,78.58971339312887,2.4052212179836054,1.2344843312179052,A,787,Correct
2,new_learn,76,697,A,72.16908801278355,57.08985555534677,3.6084544006391774,0.8967653540358992,B,679,Incorrect
2,new_learn,76,698,A,56.76519145230883,56.680334747964594,2.8382595726154416,0.8903326162360792,B,1202,Incorrect
2,new_learn,76,699,A,55.94705469930986,62.256800839536005,2.7973527349654934,0.977927540767446,A,1604,Correct
2,new_learn,76,700,A,65.99704223897714,47.3614762033054,3.2998521119488573,0.7439523285173603,A,717,Correct
2,new_learn,76,701,B,34.66803535718359,45.22964302323763,1.7334017678591795,0.7104655712314608,A,846,Incorrect
2,new_learn,76,702,A,50.30124487334324,56.924668411429906,2.515062243667162,0.8941706004469159,B,766,Incorrect
2,new_learn,76,703,B,26.417759719417546,57.66623072425005,1.3208879859708773,0.9058190340175898,A,687,Incorrect
2,new_learn,76,704,A,47.43805614676231,79.54137444651789,2.3719028073381154,1.2494329880880775,A,697,Correct
2,new_learn,76,705,A,41.79327316390152,79.27326358622713,2.089663658195076,1.245221512542892,A,687,Correct
2,new_learn,76,706,A,74.90670828729344,48.84726790015086,3.745335414364672,0.7672910899152323,B,878,Incorrect
2,new_learn,76,707,B,60.11662424215632,12.868230304173267,3.005831212107816,0.20213368894146141,B,615,Correct
2,new_learn,76,708,B,44.69025610824267,29.15086089157043,2.2345128054121335,0.45790065211387837,B,864,Correct
2,new_learn,76,709,B,58.91193621582989,23.737057505085588,2.9455968107914945,0.3728608273790768,B,534,Correct
2,new_learn,76,710,A,33.82758723052318,89.3573830446494,1.691379361526159,1.4036224905853985,A,713,Correct
2,new_learn,76,711,B,54.813368967781955,17.349005319946784,2.7406684483890977,0.2725175383011753,B,565,Correct
2,new_learn,76,712,A,59.65569892021248,65.35604587612211,2.9827849460106237,1.0266103679605136,A,855,Correct
2,new_learn,76,713,A,86.09869051870834,41.34199929616447,4.304934525935417,0.6493986063677234,B,557,Incorrect
2,new_learn,76,714,A,74.02059806114866,53.43151631209106,3.7010299030574334,0.8393002955811424,A,793,Correct
2,new_learn,76,715,A,57.28801416879606,49.61865219572932,2.864400708439803,0.7794079660956514,A,555,Correct
2,new_learn,76,716,A,38.4669940129041,83.18675199978881,1.9233497006452052,1.3066944447926627,A,736,Correct
2,new_learn,76,717,A,39.940293809286224,71.07314860537448,1.9970146904643113,1.1164144076307005,A,527,Correct
2,new_learn,76,718,B,39.39161638798572,53.133527060686404,1.969580819399286,0.8346194913658344,A,535,Incorrect
2,new_learn,76,719,A,67.13781733465439,62.764933306071825,3.3568908667327197,0.9859092668870428,A,920,Correct
2,new_learn,76,720,B,20.67708888652335,61.624405061459186,1.0338544443261675,0.9679938911146094,A,1206,Incorrect
2,new_learn,76,721,A,48.722425297621214,62.05506458584367,2.4361212648810606,0.9747586751046331,B,794,Incorrect
2,new_learn,76,722,B,47.201154370977434,37.70978246116843,2.360057718548872,0.5923438777423798,B,834,Correct
2,new_learn,76,723,B,26.906059897467017,48.42632784734301,1.3453029948733508,0.7606789790277181,A,2820,Incorrect
2,new_learn,76,724,A,69.6104895399055,41.5437037175371,3.4805244769952752,0.6525669720096278,B,1112,Incorrect
2,new_learn,76,725,A,76.55795342017518,36.77757585452622,3.827897671008759,0.5777008106071047,B,979,Incorrect
2,new_learn,76,726,A,45.909134310428776,83.04785903198075,2.2954567155214387,1.3045127191561574,A,598,Correct
2,new_learn,76,727,B,47.510168209255355,41.29787128800492,2.3755084104627677,0.6487054452364654,B,756,Correct
2,new_learn,76,728,B,15.330059676075109,67.79104417060877,0.7665029838037555,1.0648592317278285,A,918,Incorrect
2,new_learn,76,729,B,24.79645442349249,63.98207813700745,1.2398227211746247,1.0050281331831536,A,629,Incorrect
2,new_learn,76,730,B,57.82464589237422,26.971372396875694,2.8912322946187112,0.423665326896296,B,695,Correct
2,new_learn,76,731,B,56.48678154521531,16.608155054657743,2.8243390772607655,0.2608802895469648,B,803,Correct
2,new_learn,76,732,A,46.88459987325721,82.47846388433419,2.3442299936628603,1.2955686810919769,A,741,Correct
2,new_learn,76,733,B,13.792660705394383,66.72646723998739,0.6896330352697191,1.0481368964057218,B,608,Correct
2,new_learn,76,734,A,80.04372561536341,47.944011232049476,4.0021862807681705,0.7531027673511658,B,580,Incorrect
2,new_learn,76,735,A,67.33118914552202,45.13075724312748,3.3665594572761006,0.7089122770297682,B,1918,Incorrect
2,new_learn,76,736,A,79.56068122787477,50.04505723884151,3.978034061393738,0.7861059208501259,A,613,Correct
2,new_learn,76,737,A,47.29052639975659,73.29733949486987,2.3645263199878293,1.1513519164238009,A,674,Correct
2,new_learn,76,738,A,49.52955533278975,79.71789722472546,2.4764777666394875,1.2522058014041184,A,648,Correct
2,new_learn,76,739,B,50.31570175634531,37.074274952963556,2.5157850878172656,0.5823613491469918,B,522,Correct
2,new_learn,76,740,A,63.96305421247118,46.21539907805657,3.198152710623559,0.7259497911317152,B,406,Incorrect
2,new_learn,76,741,B,46.40185621225676,45.119208495570334,2.320092810612838,0.7087308697273498,B,625,Correct
2,new_learn,76,742,A,78.58881938831212,34.82279637784103,3.929440969415606,0.5469952063903932,B,506,Incorrect
2,new_learn,76,743,A,62.347345075338616,65.53377256423451,3.117367253766931,1.0294020922491174,A,554,Correct
2,new_learn,76,744,A,43.69952461654327,77.73925255712764,2.1849762308271634,1.221125323645169,A,358,Correct
2,new_learn,76,745,B,24.119389200152632,59.21948223936836,1.2059694600076316,0.9302174517629545,A,380,Incorrect
2,new_learn,76,746,A,70.69589074514525,61.1804185389027,3.534794537257262,0.9610197671268275,A,524,Correct
2,new_learn,76,747,A,48.00621212980373,65.94186379347123,2.4003106064901862,1.03581237428794,A,590,Correct
2,new_learn,76,748,A,70.56611793801036,49.627557179722174,3.5283058969005183,0.7795478452571128,B,603,Incorrect
2,new_learn,76,749,A,45.97368215668206,61.18263283123126,2.298684107834103,0.961054549149389,A,239,Correct
2,new_learn,76,750,A,78.41122821125663,49.22829953806499,3.9205614105628315,0.7732763208875139,B,682,Incorrect
2,new_learn,76,751,B,50.237427634372864,27.373990181111253,2.511871381718643,0.42998963226209125,A,607,Incorrect
2,new_learn,76,752,B,47.74278094860964,25.27678281830032,2.387139047430482,0.39704677604178484,B,545,Correct
2,new_learn,76,753,A,81.05362991399497,36.71172215529607,4.052681495699749,0.5766663831185389,B,453,Incorrect
2,new_learn,76,754,B,52.312557744912226,25.776067908457023,2.615627887245611,0.40488952789820104,B,683,Correct
2,new_learn,76,755,A,51.020567626009225,57.42899059267502,2.551028381300461,0.9020924747451258,A,599,Correct
2,new_learn,76,756,B,15.239055002665957,56.68960536585475,0.7619527501332979,0.8904782387613691,A,864,Incorrect
2,new_learn,76,757,A,74.60960455604044,56.14559949873587,3.7304802278020217,0.8819330145831169,A,1112,Correct
2,new_learn,76,758,A,37.66641395028974,73.65663684205046,1.8833206975144867,1.156995745955585,A,1752,Correct
2,new_learn,76,759,B,65.12452003610215,15.585153930918466,3.2562260018051075,0.2448110254721977,B,666,Correct
2,new_learn,76,760,A,58.17227443956106,57.63406719900241,2.908613721978053,0.9053138105444322,A,553,Correct
2,new_learn,76,761,A,60.18584990726268,60.80792724992648,3.0092924953631335,0.955168687641958,A,426,Correct
2,new_learn,76,762,A,55.13972800748596,56.75047052193912,2.7569864003742977,0.8914343063974403,A,364,Correct
2,new_learn,76,763,B,45.856362888013045,44.15528008527801,2.2928181444006523,0.6935895176655454,A,274,Incorrect
2,new_learn,76,764,B,22.672040994049894,44.92911644425972,1.1336020497024948,0.7057449107678335,B,550,Correct
2,new_learn,76,765,B,62.5896334345107,15.367861898756956,3.129481671725535,0.24139781021258672,B,367,Correct
2,new_learn,76,766,A,55.792748066145776,59.17232234913061,2.7896374033072893,0.9294766659393792,B,253,Incorrect
2,new_learn,76,767,A,55.44455739114004,63.38484344567189,2.772227869557002,0.9956467925893097,A,817,Correct
2,new_learn,76,768,B,62.38205826315033,25.837207342973144,3.1191029131575165,0.40584990388980346,B,498,Correct
2,new_learn,76,769,B,41.27301382756933,42.84042873867178,2.0636506913784665,0.6729358810102416,B,618,Correct
2,new_learn,76,770,B,21.568163273291937,55.22922806340523,1.0784081636645968,0.8675386857371454,A,617,Incorrect
2,new_learn,76,771,B,67.36643130859346,13.205087230914543,3.368321565429673,0.20742502517326755,B,539,Correct
2,new_learn,76,772,A,46.76801310913616,67.99505062070028,2.3384006554568084,1.0680637575522907,A,679,Correct
2,new_learn,76,773,A,46.544284921761026,78.71689304707817,2.3272142460880514,1.2364820645505714,A,471,Correct
2,new_learn,76,774,A,47.77283272985076,69.20151006005045,2.388641636492538,1.0870147781098731,A,524,Correct
2,new_learn,76,775,A,75.58825161624766,53.445779997630765,3.779412580812383,0.8395243490296657,A,494,Correct
2,new_learn,76,776,A,44.09148074437024,80.30223619892371,2.204574037218512,1.2613845765468554,A,658,Correct
2,new_learn,76,777,B,42.6011041301683,34.781232753487316,2.130055206508415,0.5463423265057622,B,530,Correct
2,new_learn,76,778,A,87.98994835084326,31.42834222932784,4.399497417542164,0.4936752453108111,B,572,Incorrect
2,new_learn,76,779,A,51.31261452539421,65.84995820284294,2.5656307262697107,1.0343687246462316,A,496,Correct
2,new_learn,76,780,A,75.20975989203085,38.93685839633667,3.760487994601542,0.6116187414589868,B,853,Incorrect
2,new_learn,76,781,A,83.33633293313514,47.01863199384271,4.166816646656757,0.7385669442684913,A,813,Correct
2,new_learn,76,782,B,63.44620606567879,23.24092784630045,3.1723103032839397,0.3650676409227398,A,1301,Incorrect
2,new_learn,76,783,B,46.48155620740856,39.38659687525619,2.324077810370428,0.6186832169660377,B,777,Correct
2,new_learn,76,784,B,32.6266681222928,46.87293146030205,1.63133340611464,0.7362782856395141,A,737,Incorrect
2,new_learn,76,785,B,19.60646252422005,58.289869953962246,0.9803231262110025,0.9156151361303609,B,1109,Correct
2,new_learn,76,786,B,49.80108461220313,37.20571294574568,2.490054230610156,0.5844259723096265,B,944,Correct
2,new_learn,76,787,B,65.43213801975938,14.079731929397667,3.2716069009879685,0.22116391196954674,A,651,Incorrect
2,new_learn,76,788,B,63.67125917798795,17.658722534915285,3.1835629588993974,0.27738256493735197,B,536,Correct
2,new_learn,76,789,B,55.613556243971665,27.549999309205404,2.7806778121985833,0.43275437718101784,B,604,Correct
2,new_learn,76,790,A,68.89142448984812,44.647966007335974,3.4445712244924063,0.7013286100318675,B,633,Incorrect
2,new_learn,76,791,B,53.1632035816158,27.11566443967145,2.65816017908079,0.4259318610043891,A,572,Incorrect
2,new_learn,76,792,A,67.84169157666729,61.70825723219142,3.3920845788333644,0.9693110379324088,B,522,Incorrect
2,new_learn,76,793,A,48.150805349845065,63.76294195932095,2.4075402674922532,1.0015859501533755,A,733,Correct
2,new_learn,76,794,B,45.090053958962855,22.561262246633405,2.254502697948143,0.35439147864868126,A,660,Incorrect
2,new_learn,76,795,A,81.83830479778022,42.769960571828506,4.091915239889011,0.6718289696339077,B,956,Incorrect
2,new_learn,76,796,B,19.779221945038735,50.593650866931554,0.9889610972519367,0.7947232094091953,A,703,Incorrect
2,new_learn,76,797,B,27.855890963572342,44.81279133669587,1.392794548178617,0.7039176802510803,B,892,Correct
2,new_learn,76,798,B,50.56098514003086,21.02590224822397,2.528049257001543,0.3302741001905877,A,667,Incorrect
2,new_learn,76,799,B,21.0317810145268,52.06811262064959,1.05158905072634,0.8178840004765937,A,712,Incorrect
2,new_learn,76,800,A,80.41236551190303,43.08023546977051,4.020618275595152,0.6767027563337473,B,700,Incorrect
2,new_learn,76,801,B,18.538024598904368,59.66024879756223,0.9269012299452184,0.937140996668804,A,600,Incorrect
2,new_learn,76,802,B,10.709694994349,68.99448003906215,0.53548474971745,1.0837627581448264,B,876,Correct
2,new_learn,76,803,B,50.23515263658244,39.07504150259535,2.5117576318291217,0.6137893166163491,B,580,Correct
2,new_learn,76,804,B,28.361924809040474,60.438563349004255,1.4180962404520239,0.9493667330537655,A,693,Incorrect
2,new_learn,76,805,B,32.21164569427704,55.510872142713716,1.6105822847138518,0.8719627405895584,B,578,Correct
2,new_learn,76,806,B,33.75116897105562,35.74234639424705,1.687558448552781,0.5614394642711408,B,517,Correct
2,new_learn,76,807,B,58.65014890415195,15.356241729433094,2.932507445207597,0.24121528101968018,B,413,Correct
2,new_learn,76,808,B,52.4906719390541,20.023074796555846,2.6245335969527055,0.31452172341569395,B,396,Correct
2,new_learn,76,809,B,37.50068505864933,33.62146211996357,1.8750342529324666,0.5281246919951254,B,428,Correct
2,new_learn,76,810,A,75.75165655855905,40.832401848271786,3.7875828279279524,0.6413938683747845,B,716,Incorrect
2,new_learn,76,811,B,38.02483958698656,31.028522696649404,1.901241979349328,0.48739489477768955,B,554,Correct
2,new_learn,76,812,A,59.29326998487994,60.974300815024506,2.964663499243997,0.9577820774912756,B,520,Incorrect
2,new_learn,76,813,B,61.887757747137755,11.378529331488423,3.0943878873568877,0.17873352078230004,B,660,Correct
2,new_learn,76,814,B,64.48147252913282,18.164220039938044,3.224073626456641,0.2853229011782893,B,743,Correct
2,new_learn,76,815,B,39.66044424051789,53.263682307197996,1.9830222120258947,0.8366639651971693,A,669,Incorrect
2,new_learn,76,816,A,58.63799780003625,53.79740612748776,2.9318998900018123,0.8450476793615104,B,538,Incorrect
2,new_learn,76,817,B,57.51714192438776,22.156107927208964,2.875857096219388,0.3480273294813113,B,639,Correct
2,new_learn,76,818,B,31.81939844573388,55.708320316801306,1.5909699222866942,0.87506424925545,A,570,Incorrect
2,new_learn,76,819,B,19.89876753727228,59.62930099687037,0.994938376863614,0.9366548697523124,B,711,Correct
2,new_learn,76,820,B,41.94485667134096,26.817206779542943,2.097242833567048,0.42124369904205256,B,1234,Correct
2,new_learn,76,821,A,73.98851144469843,36.18358837932965,3.6994255722349214,0.5683704771650951,B,500,Incorrect
2,new_learn,76,822,A,39.10691928313737,83.86068639018102,1.9553459641568685,1.317280581441951,A,1983,Correct
2,new_learn,76,823,B,26.535109843206037,40.53531056948613,1.326755492160302,0.6367271694803915,B,757,Correct
2,new_learn,76,824,A,85.14675569542854,37.70220279160706,4.257337784771426,0.5922248165713266,B,1086,Incorrect
2,new_learn,76,825,B,17.612046360497793,51.581194998678605,0.8806023180248898,0.8102355163561563,A,761,Incorrect
2,new_learn,76,826,A,62.68365456599759,62.14863474007123,3.13418272829988,0.9762284716502159,B,609,Incorrect
2,new_learn,76,827,A,67.51381604898492,46.20163962911303,3.3756908024492462,0.725733658213123,B,2119,Incorrect
2,new_learn,76,828,B,62.05500687473814,27.292662559563084,3.102750343736907,0.4287121409701429,B,1639,Correct
2,new_learn,76,829,A,80.29395456064597,46.224349279196474,4.014697728032298,0.7260903805624614,B,850,Incorrect
2,new_learn,76,830,B,31.94422604370472,51.33686349545867,1.5972113021852359,0.806397566078375,B,639,Correct
2,new_learn,76,831,B,47.441771452673926,27.434388468970212,2.372088572633696,0.4309383663492267,B,567,Correct
2,new_learn,76,832,B,49.895316135824515,20.51496008397558,2.494765806791226,0.3222482394425276,B,400,Correct
2,new_learn,76,833,B,28.720991221513877,54.191587889200896,1.436049561075694,0.8512394719953957,A,620,Incorrect
2,new_learn,76,834,A,42.128945225151725,65.92104629781642,2.106447261257586,1.0354853738308636,B,357,Incorrect
2,new_learn,76,835,A,39.76460635327207,81.38167051149611,1.9882303176636038,1.2783402910789063,A,537,Correct
2,new_learn,76,836,B,52.540670267501916,33.82021742123207,2.6270335133750957,0.5312467329667611,B,477,Correct
2,new_learn,76,837,B,20.264188266697246,50.11438356587618,1.0132094133348624,0.7871948962486884,B,485,Correct
2,new_learn,76,838,B,41.56377285378786,43.44154599785815,2.078188642689393,0.6823782088372713,B,391,Correct
2,new_learn,76,839,A,80.73401457550332,43.82093836113516,4.036700728775166,0.6883376901437668,B,703,Incorrect
2,new_learn,76,840,A,49.879745891392325,67.78752781920572,2.4939872945696164,1.064803997009152,A,528,Correct
2,new_learn,76,841,A,36.871024191712564,84.08054670860314,1.8435512095856281,1.3207341392478056,A,434,Correct
2,new_learn,76,842,B,34.19872602847217,55.65030312224631,1.7099363014236086,0.8741529172944706,B,547,Correct
2,new_learn,76,843,B,47.209217215149614,43.21722228840297,2.3604608607574806,0.6788545402490191,B,403,Correct
2,new_learn,76,844,B,57.08668002968317,22.897163257978733,2.8543340014841583,0.35966779939656063,B,394,Correct
2,new_learn,76,845,A,85.85779456431364,33.75866464966829,4.292889728215681,0.5302798642919967,B,370,Incorrect
2,new_learn,76,846,A,44.661516752328126,74.5349008699127,2.233075837616406,1.170791485044806,A,500,Correct
2,new_learn,76,847,B,46.00381567878914,30.556730442971002,2.3001907839394566,0.47998399938680636,B,625,Correct
2,new_learn,76,848,B,33.513770051100956,53.76357897521649,1.6756885025550476,0.8445163236961739,B,467,Correct
2,new_learn,76,849,B,49.026373965384096,32.484001011355005,2.451318698269205,0.5102574946823815,B,480,Correct
2,new_learn,76,850,A,59.46610067452994,66.66641618869983,2.9733050337264966,1.047193616697895,A,510,Correct
2,new_learn,76,851,A,46.09494667108586,81.57448231315169,2.304747333554293,1.2813689717769392,A,468,Correct
2,new_learn,76,852,A,80.57045597105521,47.242509875707306,4.0285227985527605,0.7420836098133267,B,518,Incorrect
2,new_learn,76,853,A,70.7062039790829,55.59630535477435,3.5353101989541447,0.8733047223464698,A,611,Correct
2,new_learn,76,854,B,41.48418327916693,40.202175851555936,2.074209163958346,0.6314943015678656,A,331,Incorrect
2,new_learn,76,855,B,41.910154111240566,39.724309370277304,2.0955077055620284,0.6239879924329568,B,475,Correct
2,new_learn,76,856,A,39.605355361327625,73.6413501922056,1.9802677680663812,1.156755623821332,A,434,Correct
2,new_learn,76,857,B,45.78149026679907,28.39378799677742,2.2890745133399535,0.44600857889130996,B,614,Correct
2,new_learn,76,858,A,52.45669741314394,60.758659049721686,2.622834870657197,0.9543947845628633,A,497,Correct
2,new_learn,76,859,B,27.083235531612367,49.904058065077514,1.3541617765806182,0.7838911110078299,B,507,Correct
2,new_learn,76,860,A,65.99228292634655,58.55814927007162,3.299614146317327,0.9198292577733576,A,504,Correct
2,new_learn,76,861,A,43.476852711266375,64.28556343201868,2.1738426355633185,1.0097952690495526,B,355,Incorrect
2,new_learn,76,862,A,64.92738261549198,54.92892133248783,3.2463691307745988,0.8628214786387771,A,325,Correct
2,new_learn,76,863,A,46.79490939246643,63.545304430445384,2.3397454696233213,0.9981673078440707,A,327,Correct
2,new_learn,76,864,A,41.33847696012702,66.64506316737751,2.066923848006351,1.0468582042233043,A,429,Correct
2,new_learn,76,865,B,40.80669157724502,48.858829200202216,2.040334578862251,0.7674726943917687,A,343,Incorrect
2,new_learn,76,866,A,71.64213442865375,58.03153231971436,3.582106721432688,0.9115571780608663,A,314,Correct
2,new_learn,76,867,B,36.42204118502684,31.86323596877358,1.821102059251342,0.5005065401954857,A,254,Incorrect
2,new_learn,76,868,A,54.954352677650014,60.796635352135915,2.7477176338825005,0.9549913149262385,A,587,Correct
2,new_learn,76,869,B,18.55085048695649,51.83231039308606,0.9275425243478246,0.8141800277475252,B,574,Correct
2,new_learn,76,870,B,17.078849804499015,58.494378882725016,0.8539424902249507,0.9188275548713343,B,512,Correct
2,new_learn,76,871,B,51.330600806912294,18.958586360562137,2.566530040345615,0.2978007781639483,B,557,Correct
2,new_learn,76,872,A,41.994998453400726,75.05158388947606,2.0997499226700365,1.1789075229372803,A,528,Correct
2,new_learn,76,873,A,71.88987421354592,46.331773239371586,3.594493710677296,0.7277777921829897,B,392,Incorrect
2,new_learn,76,874,A,38.073138149451324,86.45883542392826,1.9036569074725662,1.35809221102871,A,441,Correct
2,new_learn,76,875,B,17.018466312974105,62.25344739274675,0.8509233156487054,0.9778748649484593,A,283,Incorrect
2,new_learn,76,876,A,59.17903684969768,56.327457969872235,2.9589518424848844,0.8847896407676923,A,544,Correct
2,new_learn,76,877,B,59.65940334637463,30.684934351682557,2.9829701673187317,0.4819978216756551,A,314,Incorrect
2,new_learn,76,878,B,26.87836919031655,62.02974540637115,1.3439184595158276,0.9743609623635041,A,650,Incorrect
2,new_learn,76,879,B,35.157898085953995,38.5515235220787,1.7578949042977,0.6055659154082828,B,663,Correct
2,new_learn,76,880,A,47.54295091765627,61.20984610010846,2.3771475458828135,0.9614820141773129,A,488,Correct
2,new_learn,76,881,B,36.18226558950742,46.03264900132508,1.8091132794753713,0.7230791596392021,A,1074,Incorrect
2,new_learn,76,882,A,40.23722157589907,77.73139265473696,2.0118610787949534,1.2210018605871262,A,814,Correct
2,new_learn,76,883,B,55.02452671361828,22.438974154972243,2.7512263356809137,0.35247058179676016,B,525,Correct
2,new_learn,76,884,B,53.72878572991891,21.574362013016838,2.6864392864959457,0.33888928602990204,B,486,Correct
2,new_learn,76,885,B,16.65524007953418,63.72208076663482,0.8327620039767091,1.000944104039577,A,880,Incorrect
2,new_learn,76,886,A,78.22141782272598,34.18357137786552,3.911070891136299,0.5369542835708232,B,510,Incorrect
2,new_learn,76,887,A,77.53561320107386,37.674306113758846,3.8767806600536927,0.5917866165803891,B,693,Incorrect
2,new_learn,76,888,A,40.939006673650255,73.29310392268995,2.0469503336825126,1.15128538421158,A,625,Correct
2,new_learn,76,889,A,75.86798139300939,53.01554322972005,3.793399069650469,0.8327662056828029,A,430,Correct
2,new_learn,76,890,B,51.911354023942295,33.565849436920445,2.5955677011971146,0.5272511300126519,A,468,Incorrect
2,new_learn,76,891,B,25.177997815553738,56.4269515783635,1.258899890777687,0.8863524827152689,B,602,Correct
2,new_learn,76,892,B,54.41868359328552,25.938316197921367,2.7209341796642765,0.4074381180693945,A,225,Incorrect
2,new_learn,76,893,B,24.42774852377358,51.380998804664394,1.221387426188679,0.807090841894198,B,412,Correct
2,new_learn,76,894,B,62.28097707482909,17.183751259961596,3.114048853741455,0.2699217335970485,B,342,Correct
2,new_learn,76,895,B,14.02850262698847,66.03360939951591,0.7014251313494235,1.0372535108976855,B,225,Correct
2,new_learn,76,896,A,35.637902975203716,82.63201094648436,1.7818951487601857,1.297980592704133,B,382,Incorrect
2,new_learn,76,897,B,55.75223778935712,33.154905087997605,2.787611889467856,0.5207960312746007,B,236,Correct
2,new_learn,76,898,A,55.53592975599811,59.15798117462559,2.7767964877999054,0.9292513952970352,B,343,Incorrect
