experiment,condition,subject,trial,cat,x,y,xt,yt,resp,rt,fb
2,new_learn,64,0,B,68.8368328306264,36.841267099263945,3.44184164153132,0.5787012703399348,A,2139,Incorrect
2,new_learn,64,1,B,81.95421108578094,64.79906465662876,4.097710554289047,1.0178613274237747,A,1367,Incorrect
2,new_learn,64,2,A,34.22117642881055,50.103998299980844,1.7110588214405278,0.7870317648734766,A,1022,Correct
2,new_learn,64,3,B,35.95264816116601,20.266771001867557,1.7976324080583004,0.31834969445726885,A,723,Incorrect
2,new_learn,64,4,B,52.27002656541901,44.60930499460227,2.6135013282709503,0.7007213242639447,B,1375,Correct
2,new_learn,64,5,B,35.7880128939943,16.726096696750773,1.789400644699715,0.2627329125287237,A,801,Incorrect
2,new_learn,64,6,A,11.845209359211044,38.149861374426905,0.5922604679605521,0.599256621146843,A,2520,Correct
2,new_learn,64,7,A,22.702586010724698,52.311713280049425,1.1351293005362348,0.8217104706864944,A,796,Correct
2,new_learn,64,8,A,40.89997689496081,67.31979786142236,2.0449988447480405,1.0574569120129718,B,459,Incorrect
2,new_learn,64,9,A,56.66275923205869,84.89272970807286,2.833137961602935,1.3334918799703284,B,844,Incorrect
2,new_learn,64,10,A,43.55289611530376,51.634028160660435,2.177644805765188,0.8110654177238966,A,2900,Correct
2,new_learn,64,11,A,63.31452536477089,79.73636645705683,3.165726268238544,1.2524959154271667,B,2098,Incorrect
2,new_learn,64,12,A,37.50609400742114,70.31207806063769,1.8753047003710572,1.1044595394696572,A,876,Correct
2,new_learn,64,13,B,58.68523325059148,49.919094075633836,2.9342616625295737,0.7841272961093452,B,854,Correct
2,new_learn,64,14,A,46.0593252106803,56.31118143856502,2.302966260534015,0.884533969611789,A,1457,Correct
2,new_learn,64,15,B,59.20834879845755,31.325663831631175,2.9604174399228778,0.49206237681137993,A,717,Incorrect
2,new_learn,64,16,A,37.76589992682607,67.10600540579803,1.8882949963413038,1.0540986679730602,A,1422,Correct
2,new_learn,64,17,A,33.02109647924622,48.60598140594347,1.6510548239623108,0.7635009705271704,A,1120,Correct
2,new_learn,64,18,A,31.65559687106832,54.30104376392257,1.582779843553416,0.852958800854985,A,644,Correct
2,new_learn,64,19,A,11.36292905666496,33.82852178167753,0.568146452833248,0.5313771775556022,A,2304,Correct
2,new_learn,64,20,A,45.18364452776322,71.3751838227402,2.259182226388161,1.1211587657307083,B,707,Incorrect
2,new_learn,64,21,B,61.75285094468705,36.96483763137003,3.0876425472343523,0.5806423117192582,B,589,Correct
2,new_learn,64,22,A,39.71579912644803,51.68187261730845,1.9857899563224015,0.8118169566914986,A,517,Correct
2,new_learn,64,23,B,81.71725377372061,58.282032265129324,4.0858626886860305,0.915492022002068,B,567,Correct
2,new_learn,64,24,A,36.46893554780784,49.786435893456044,1.8234467773903917,0.7820435062565037,A,788,Correct
2,new_learn,64,25,B,50.00120605710312,38.12188658176394,2.5000603028551556,0.5988171941312646,B,1362,Correct
2,new_learn,64,26,A,39.38418354428449,65.8305308410806,1.9692091772142246,1.0340635603612756,A,777,Correct
2,new_learn,64,27,A,52.41809290666149,82.77449987790726,2.6209046453330744,1.3002188036050133,B,626,Incorrect
2,new_learn,64,28,A,66.03548062778235,77.96722911907695,3.3017740313891175,1.2247063711062216,B,882,Incorrect
2,new_learn,64,29,A,21.037818156155613,44.383502383243176,1.0518909078077805,0.6971744251389091,B,1344,Incorrect
2,new_learn,64,30,A,41.13164990339655,55.704266813865495,2.0565824951698275,0.8750005769802278,A,1137,Correct
2,new_learn,64,31,A,32.349209995625294,62.61257935003039,1.6174604997812647,0.9835160965418174,A,993,Correct
2,new_learn,64,32,B,48.74321887813348,27.07979889884124,2.437160943906674,0.4253684864064431,A,1618,Incorrect
2,new_learn,64,33,B,60.66485016205426,39.01699037133839,3.033242508102713,0.6128774515789018,B,770,Correct
2,new_learn,64,34,A,41.72683679623788,50.11578537871148,2.0863418398118942,0.7872169158732137,A,564,Correct
2,new_learn,64,35,B,83.73843421855602,61.372004102961355,4.186921710927801,0.9640291861297301,B,801,Correct
2,new_learn,64,36,B,72.00833564822756,38.98518226473496,3.600416782411378,0.6123778110087522,B,712,Correct
2,new_learn,64,37,B,46.10217397623958,33.07734389786845,2.305108698811979,0.5195777029490335,B,1100,Correct
2,new_learn,64,38,B,86.13799983378613,65.31745190906568,4.306899991689306,1.0260041353436269,B,863,Correct
2,new_learn,64,39,A,48.80371673026031,58.823811228667424,2.4401858365130153,0.9240022660606718,A,657,Correct
2,new_learn,64,40,A,55.801980888791306,64.00227367608898,2.7900990444395655,1.0053453639692227,B,723,Incorrect
2,new_learn,64,41,B,80.70411958111131,65.98417173374321,4.035205979055565,1.0364769458596748,B,572,Correct
2,new_learn,64,42,B,34.430086290239046,17.864664481719167,1.7215043145119524,0.2806174934730773,A,608,Incorrect
2,new_learn,64,43,B,75.6338317229993,60.34108350443762,3.781691586149965,0.9478355232359474,B,1093,Correct
2,new_learn,64,44,A,28.886283101703015,57.1815716984324,1.4443141550851508,0.8982060278425662,A,582,Correct
2,new_learn,64,45,A,60.20354358185416,85.30515846610639,3.010177179092708,1.3399702957521649,B,1822,Incorrect
2,new_learn,64,46,B,51.09529361272892,38.928275042595956,2.5547646806364464,0.6114839144537118,B,556,Correct
2,new_learn,64,47,B,58.073280675283335,32.40902375439421,2.9036640337641666,0.5090797546841098,B,615,Correct
2,new_learn,64,48,B,44.48304996683622,15.429044435844467,2.224152498341811,0.24235886325779726,A,949,Incorrect
2,new_learn,64,49,B,50.63721727066482,37.25537073490127,2.531860863533241,0.58520599503765,A,3293,Incorrect
2,new_learn,64,50,B,59.97534998278493,43.5474326846033,2.9987674991392463,0.6840414730232288,B,603,Correct
2,new_learn,64,51,A,30.307003121214095,57.45534981329636,1.5153501560607048,0.9025065244144176,A,549,Correct
2,new_learn,64,52,A,44.02025979704029,65.41816166372799,2.2010129898520145,1.0275860804705863,B,1211,Incorrect
2,new_learn,64,53,A,55.85250014950769,78.8438838536112,2.792625007475385,1.2384768314749592,A,2343,Correct
2,new_learn,64,54,A,53.20477956955544,70.22444093106503,2.6602389784777722,1.1030829386574215,A,881,Correct
2,new_learn,64,55,A,43.21176002923132,70.36325125529858,2.160588001461566,1.105263366131694,B,2335,Incorrect
2,new_learn,64,56,A,55.83496829704232,73.06388254514428,2.7917484148521163,1.147684783232864,B,761,Incorrect
2,new_learn,64,57,B,48.83772397217383,27.199209735288882,2.4418861986086915,0.4272441874391577,B,1307,Correct
2,new_learn,64,58,A,37.48115404865551,51.774845811978764,1.8740577024327758,0.8132773762182838,A,1438,Correct
2,new_learn,64,59,B,42.48908708875804,23.553337283966872,2.1244543544379018,0.3699749568941645,A,1501,Incorrect
2,new_learn,64,60,A,26.23946630010315,36.371666382640655,1.3119733150051576,0.5713247995326137,B,961,Incorrect
2,new_learn,64,61,B,69.03040921750289,37.99181239302626,3.4515204608751446,0.5967739935524647,B,649,Correct
2,new_learn,64,62,B,80.25656038154484,56.505643705241965,4.012828019077242,0.8875885757537524,B,559,Correct
2,new_learn,64,63,B,52.68508825709382,42.890490230871315,2.634254412854691,0.6737222450908505,A,1603,Incorrect
2,new_learn,64,64,B,79.59722911947088,54.9196503419475,3.979861455973544,0.8626758502599123,B,578,Correct
2,new_learn,64,65,B,50.08808656715959,42.99892376582968,2.5044043283579795,0.6754255150749904,A,821,Incorrect
2,new_learn,64,66,A,21.639772688351563,35.428437951033935,1.0819886344175782,0.5565086019756501,A,471,Correct
2,new_learn,64,67,A,58.63067351657626,68.13274568243477,2.931533675828813,1.070226666524194,A,1316,Correct
2,new_learn,64,68,B,86.88235226483432,60.51954489615348,4.344117613241716,0.9506387882217671,B,589,Correct
2,new_learn,64,69,B,48.56974226444586,37.57968018603391,2.428487113222293,0.5903002359834902,A,561,Incorrect
2,new_learn,64,70,A,32.60719803971852,45.12413630133513,1.630359901985926,0.7088082755192946,A,588,Correct
2,new_learn,64,71,B,73.31599647808686,49.24521255982242,3.665799823904343,0.7735419900120296,B,633,Correct
2,new_learn,64,72,B,40.200116725470934,29.697591950744684,2.010005836273547,0.4664886835088343,A,519,Incorrect
2,new_learn,64,73,B,48.56122287556703,35.16896807796514,2.428061143778352,0.5524328587403461,B,2076,Correct
2,new_learn,64,74,A,34.079339907290105,58.24369093025883,1.7039669953645051,0.914889757722278,B,723,Incorrect
2,new_learn,64,75,B,47.57782870249706,36.97715409777729,2.378891435124853,0.5808357783211743,B,743,Correct
2,new_learn,64,76,A,31.809385158256653,46.82229755918239,1.5904692579128326,0.7354829301806134,A,486,Correct
2,new_learn,64,77,B,58.46185240051788,30.307342873054814,2.9230926200258938,0.4760666285990799,B,851,Correct
2,new_learn,64,78,A,12.668964864578712,30.293880355836343,0.6334482432289356,0.475855159873118,A,617,Correct
2,new_learn,64,79,B,66.55925377185706,47.71718344560558,3.3279626885928533,0.7495397648135548,B,521,Correct
2,new_learn,64,80,B,55.40612845009148,43.77202046847064,2.7703064225045737,0.6875692896826471,B,798,Correct
2,new_learn,64,81,B,80.02759640350452,58.40137844983816,4.0013798201752255,0.9173667074876442,B,579,Correct
2,new_learn,64,82,A,19.25843834137343,47.83934887356634,0.9629219170686716,0.7514587348685757,A,465,Correct
2,new_learn,64,83,A,20.45330201886207,41.85077305476334,1.0226651009431036,0.6573904058794908,A,610,Correct
2,new_learn,64,84,B,80.78414053220965,67.38999016325741,4.039207026610483,1.0585594901118893,B,483,Correct
2,new_learn,64,85,A,42.0746112562714,67.08562236011412,2.10373056281357,1.0537784918401683,A,490,Correct
2,new_learn,64,86,B,43.91458139764271,24.381326438550445,2.1957290698821357,0.38298098012062337,B,827,Correct
2,new_learn,64,87,A,16.404748784305106,38.73482912759275,0.8202374392152553,0.6084452731265064,A,533,Correct
2,new_learn,64,88,A,17.786509297914243,48.696215134656825,0.8893254648957122,0.76491835862333,A,410,Correct
2,new_learn,64,89,B,42.63563482870903,15.731954809945776,2.131781741435452,0.24711696828766128,B,1352,Correct
2,new_learn,64,90,A,28.590489309064342,58.935760188734164,1.429524465453217,0.9257607562132851,A,581,Correct
2,new_learn,64,91,B,61.202068621223994,38.28968609130037,3.0601034310612,0.6014529826634426,B,394,Correct
2,new_learn,64,92,B,75.09023891668,52.5513675535058,3.7545119458339995,0.8254749512109543,B,541,Correct
2,new_learn,64,93,A,62.28412989231609,74.60370166872715,3.114206494615804,1.171872205465389,B,390,Incorrect
2,new_learn,64,94,A,34.43134672216948,65.91451439327483,1.721567336108474,1.0353827709142545,A,542,Correct
2,new_learn,64,95,A,11.30073135001798,33.48205387247643,0.565036567500899,0.5259348723643481,A,529,Correct
2,new_learn,64,96,B,48.71124047740015,34.262112521183326,2.4355620238700078,0.538188004965082,B,983,Correct
2,new_learn,64,97,A,38.10050191006279,46.726344820453235,1.9050250955031396,0.7339757080851967,B,905,Incorrect
2,new_learn,64,98,B,81.62145894047069,59.17959211358125,4.081072947023534,0.9295908591323366,A,1289,Incorrect
2,new_learn,64,99,B,86.22892441452555,65.7087640186335,4.311446220726277,1.0321508515870217,B,551,Correct
2,new_learn,64,100,A,62.02747414136476,87.36925702329565,3.1013737070682383,1.3723930800699202,B,370,Incorrect
2,new_learn,64,101,B,66.40516648947656,45.90413816521175,3.3202583244738277,0.7210605161460004,B,763,Correct
2,new_learn,64,102,B,55.12966415523254,29.050014878667064,2.756483207761627,0.45631656664747317,B,1008,Correct
2,new_learn,64,103,A,34.164323026754715,58.09058506328287,1.7082161513377359,0.9124847763877123,A,655,Correct
2,new_learn,64,104,A,13.830832767776371,39.53748229879848,0.6915416383888185,0.6210533196567088,A,578,Correct
2,new_learn,64,105,B,77.699927501977,52.23985457110996,3.8849963750988503,0.820581716725991,B,476,Correct
2,new_learn,64,106,A,21.142678534774028,46.396904438221696,1.0571339267387014,0.7288008706621247,A,512,Correct
2,new_learn,64,107,B,67.49187727090184,39.498708975774264,3.3745938635450923,0.6204442697228683,B,641,Correct
2,new_learn,64,108,A,21.901883861074545,46.93338730341715,1.0950941930537272,0.7372279238024989,A,642,Correct
2,new_learn,64,109,B,74.57531196275526,49.74546809860321,3.7287655981377634,0.7813999856397863,B,483,Correct
2,new_learn,64,110,A,23.7126910599757,54.4856848224297,1.185634552998785,0.8558591358197701,A,409,Correct
2,new_learn,64,111,B,88.11901012363361,60.96923628355941,4.405950506181681,0.9577025240170525,B,573,Correct
2,new_learn,64,112,B,86.53924300206816,59.55994144713535,4.326962150103408,0.9355653724927933,B,478,Correct
2,new_learn,64,113,A,33.95390718142592,62.56878047169383,1.6976953590712958,0.9828281053697291,A,566,Correct
2,new_learn,64,114,A,51.091301427729356,64.52110677206203,2.5545650713864676,1.0134951751829635,B,476,Incorrect
2,new_learn,64,115,A,35.4310225511212,51.31281380429448,1.77155112755606,0.8060197944129623,A,784,Correct
2,new_learn,64,116,B,37.758523773342674,14.139368042419019,1.887926188667134,0.22210067384232937,B,911,Correct
2,new_learn,64,117,A,49.25784450521195,56.08352466950748,2.4628922252605974,0.8809579454457332,A,1845,Correct
2,new_learn,64,118,B,68.79145177359504,59.78903281014868,3.439572588679752,0.939163931208011,B,444,Correct
2,new_learn,64,119,B,53.88573381634242,43.47864337763903,2.694286690817121,0.6829609331162065,A,2391,Incorrect
2,new_learn,64,120,B,59.04763212247786,49.57755311430504,2.9523816061238928,0.7787623832342925,B,585,Correct
2,new_learn,64,121,B,55.58052888147792,46.77656210356304,2.779026444073896,0.7347645193237019,A,1480,Incorrect
2,new_learn,64,122,A,43.17663062814386,61.565065165823256,2.158831531407193,0.9670617822136361,B,759,Incorrect
2,new_learn,64,123,A,12.440213470721158,34.410438072896355,0.622010673536058,0.5405178972830885,A,1837,Correct
2,new_learn,64,124,A,44.69100307530992,74.92487729371214,2.2345501537654964,1.1769172203852138,A,3570,Correct
2,new_learn,64,125,A,15.2383835988927,37.452700811560405,0.761919179944635,0.5883056486334732,A,511,Correct
2,new_learn,64,126,A,34.02865295973241,63.44789718937828,1.7014326479866206,0.9966372384793565,A,896,Correct
2,new_learn,64,127,A,59.636208676773165,87.43661816237332,2.981810433838658,1.3734511863682395,B,408,Incorrect
2,new_learn,64,128,A,59.98952450064897,69.58391643037554,2.9994762250324483,1.0930216033283695,B,462,Incorrect
2,new_learn,64,129,B,76.90493063430037,48.24344580168413,3.8452465317150186,0.7578062745721411,B,375,Correct
2,new_learn,64,130,B,64.07170300465015,42.08074351750686,3.2035851502325072,0.6610027734609792,B,818,Correct
2,new_learn,64,131,B,61.81928409287689,29.26080080871088,3.0909642046438446,0.45962758429400186,B,490,Correct
2,new_learn,64,132,A,41.66037937136237,56.12283373324439,2.083018968568118,0.88157541077501,A,3789,Correct
2,new_learn,64,133,B,69.34768665407852,43.191138163507716,3.4673843327039258,0.678444811773288,B,603,Correct
2,new_learn,64,134,A,48.22363318142432,79.0712822988302,2.411181659071216,1.2420487978996482,A,771,Correct
2,new_learn,64,135,A,45.73055039480723,68.27320282355716,2.286527519740362,1.0724329621376654,A,1064,Correct
2,new_learn,64,136,B,72.56233001301669,44.232339477672596,3.6281165006508345,0.6947999637707301,B,496,Correct
2,new_learn,64,137,A,42.160952358131816,72.46971914025401,2.108047617906591,1.138351686293688,A,615,Correct
2,new_learn,64,138,A,57.28048533037587,84.50815170638222,2.8640242665187934,1.3274509428461105,B,587,Incorrect
2,new_learn,64,139,B,55.43708102343309,37.31554806330407,2.7718540511716543,0.5861512583017645,B,577,Correct
2,new_learn,64,140,B,34.416086320227635,23.332059021295546,1.7208043160113817,0.36649912607212776,A,523,Incorrect
2,new_learn,64,141,A,27.367171455190125,55.36374237992784,1.3683585727595062,0.8696516316800961,A,829,Correct
2,new_learn,64,142,A,61.52757527707233,75.27336947975168,3.076378763853617,1.18239132284269,B,2760,Incorrect
2,new_learn,64,143,A,39.94863269963814,53.78735399856056,1.997431634981907,0.8448897808895572,A,1094,Correct
2,new_learn,64,144,B,42.563232388345426,20.685383984857125,2.128161619417271,0.3249252518175555,A,1048,Incorrect
2,new_learn,64,145,A,53.28854798896352,67.49067727134968,2.664427399448176,1.0601410795073591,B,932,Incorrect
2,new_learn,64,146,B,65.85055267006796,51.36862992990981,3.2925276335033975,0.8068965520638872,B,1484,Correct
2,new_learn,64,147,A,54.61941948514527,69.18295777626325,2.7309709742572634,1.0867233595176073,A,2749,Correct
2,new_learn,64,148,A,42.968532226434675,74.20642357649726,2.1484266113217334,1.165631775785481,A,851,Correct
2,new_learn,64,149,B,89.29286532261058,65.91224141701915,4.464643266130529,1.0353470670867213,B,628,Correct
2,new_learn,64,150,A,33.32602363726616,51.89754192184405,1.666301181863308,0.815204682205168,A,555,Correct
2,new_learn,64,151,A,52.06395972705268,80.80748794685127,2.603197986352634,1.2693210524443683,A,656,Correct
2,new_learn,64,152,B,79.81218534234836,56.867420702128356,3.990609267117418,0.8932713555320329,B,559,Correct
2,new_learn,64,153,B,81.08192364737505,67.91217342065093,4.0540961823687525,1.0667619255381648,B,527,Correct
2,new_learn,64,154,B,71.46421883147502,55.67384937437135,3.573210941573751,0.8745227809579487,B,624,Correct
2,new_learn,64,155,B,53.67151919336569,26.756718640436993,2.6835759596682847,0.4202935535748297,A,537,Incorrect
2,new_learn,64,156,B,66.56332069085472,33.5714468807243,3.328166034542736,0.5273390544543172,B,461,Correct
2,new_learn,64,157,A,56.73746039581151,85.78401620236377,2.8368730197905756,1.3474921754838691,B,768,Incorrect
2,new_learn,64,158,A,38.47630792808845,61.42565090102046,1.9238153964044227,0.9648718680630858,A,596,Correct
2,new_learn,64,159,B,54.93791702439539,36.92582086713057,2.7468958512197696,0.5800294378197504,B,628,Correct
2,new_learn,64,160,B,62.458769672444454,33.665439136216804,3.1229384836222227,0.5288154813510652,B,576,Correct
2,new_learn,64,161,A,27.270864768223703,55.733892235648554,1.3635432384111852,0.8754659320173936,A,546,Correct
2,new_learn,64,162,A,40.42173566391211,47.97448857864849,2.021086783195605,0.7535815043920476,A,728,Correct
2,new_learn,64,163,B,51.3048007692755,22.531917811830873,2.5652400384637755,0.3539305373446844,B,891,Correct
2,new_learn,64,164,B,62.34809347729496,41.92854647034913,3.117404673864748,0.6586120678347355,B,571,Correct
2,new_learn,64,165,A,10.365158807370651,34.55208812276183,0.5182579403685326,0.5427429310632785,A,815,Correct
2,new_learn,64,166,A,10.236332493637967,34.68279124215018,0.5118166246818984,0.5447960108616371,A,539,Correct
2,new_learn,64,167,A,47.98883507412181,62.074729912038045,2.399441753706091,0.9750675773261466,A,879,Correct
2,new_learn,64,168,A,15.332689112694315,40.99948535425406,0.7666344556347157,0.6440184099494344,A,624,Correct
2,new_learn,64,169,B,69.95623252822185,43.06771701842309,3.4978116264110923,0.6765061169598104,B,1367,Correct
2,new_learn,64,170,A,41.547399838438395,61.361030490383584,2.0773699919219197,0.9638568130264418,A,982,Correct
2,new_learn,64,171,A,13.227371647651879,30.589332615575117,0.6613685823825939,0.4804961131165272,A,536,Correct
2,new_learn,64,172,B,62.07305143983708,44.41138518774492,3.103652571991854,0.6976124072078299,A,916,Incorrect
2,new_learn,64,173,A,33.48207095674605,51.70352846822126,1.6741035478373023,0.812157126002173,A,465,Correct
2,new_learn,64,174,A,33.265903107832926,63.94238738509563,1.6632951553916462,1.0044046723100455,A,598,Correct
2,new_learn,64,175,A,45.71125825784098,52.94236049062619,2.285562912892049,0.8316166539052687,A,1186,Correct
2,new_learn,64,176,A,50.98471011472532,66.61131748618212,2.5492355057362657,1.0463281283026353,A,1034,Correct
2,new_learn,64,177,A,29.494514944430655,50.985011379505664,1.4747257472215327,0.8008706859652351,A,610,Correct
2,new_learn,64,178,B,45.81716373683531,36.0002470630559,2.2908581868417657,0.5654905585035698,A,740,Incorrect
2,new_learn,64,179,B,47.50708121546472,18.178472853086475,2.375354060773236,0.28554678384368987,A,2021,Incorrect
2,new_learn,64,180,B,69.61918113096988,48.54167273716608,3.480959056548494,0.7624908123202044,A,996,Incorrect
2,new_learn,64,181,B,83.48498974458894,56.38322081457318,4.174249487229447,0.885665561483971,B,476,Correct
2,new_learn,64,182,B,49.951199480233406,40.946687609584124,2.4975599740116703,0.6431890649155284,A,778,Incorrect
2,new_learn,64,183,B,57.681626361085534,32.14526777515696,2.884081318054277,0.5049366854505491,B,505,Correct
2,new_learn,64,184,A,55.12556750665494,66.8160678312042,2.756278375332747,1.049544339201342,A,860,Correct
2,new_learn,64,185,A,20.994146223923874,48.221024221514014,1.0497073111961936,0.7574540772144196,A,572,Correct
2,new_learn,64,186,A,48.08750148796014,75.2968127830947,2.404375074398007,1.1827595693904815,A,659,Correct
2,new_learn,64,187,B,68.17317752596149,37.56145414560503,3.4086588762980745,0.5900139420099132,B,688,Correct
2,new_learn,64,188,A,28.303166301525316,37.73702419205752,1.4151583150762659,0.592771789850541,A,486,Correct
2,new_learn,64,189,B,73.01262376367697,53.063147060595625,3.6506311881838487,0.8335139649096102,B,533,Correct
2,new_learn,64,190,A,64.85148806304773,89.08476816269705,3.2425744031523864,1.399340266033395,B,552,Incorrect
2,new_learn,64,191,B,61.703806399661666,41.517391901085965,3.085190319983083,0.6521536669633002,B,573,Correct
2,new_learn,64,192,A,48.89473080607265,76.4451615118692,2.4447365403036327,1.2007977890408674,A,662,Correct
2,new_learn,64,193,B,75.52366129689928,44.95085269555069,3.7761830648449637,0.7060863430046949,B,488,Correct
2,new_learn,64,194,B,61.80573870694546,37.42094546428701,3.0902869353472733,0.5878068368049417,B,437,Correct
2,new_learn,64,195,B,39.43801189563267,12.617726754574779,1.9719005947816333,0.1981987883858775,A,410,Incorrect
2,new_learn,64,196,B,47.342346612440416,17.56493749051618,2.367117330622021,0.27590939290484784,B,741,Correct
2,new_learn,64,197,B,57.90796104491061,26.30662941182133,2.8953980522455307,0.4132235685044353,B,765,Correct
2,new_learn,64,198,A,65.54219756185188,76.99329379854143,3.277109878092594,1.2094078308658915,B,503,Incorrect
2,new_learn,64,199,B,64.49299103732291,35.03489932286693,3.224649551866145,0.5503269116598838,B,1244,Correct
2,new_learn,64,200,A,20.727992283858246,44.91222056357307,1.0363996141929122,0.705479510894628,A,525,Correct
2,new_learn,64,201,B,42.66905169300463,23.225816706287578,2.1334525846502315,0.36483027569048077,A,764,Incorrect
2,new_learn,64,202,B,57.74821394229343,40.13892808364214,2.887410697114672,0.6305008079526959,B,1746,Correct
2,new_learn,64,203,B,53.24134138191041,45.64211942759763,2.6620670690955204,0.7169447354400432,B,594,Correct
2,new_learn,64,204,A,54.0955517700295,72.33820818320537,2.704777588501475,1.136285917011035,B,540,Incorrect
2,new_learn,64,205,A,57.84351433709321,82.30479757646407,2.8921757168546605,1.2928407371070727,B,1087,Incorrect
2,new_learn,64,206,B,60.95630726171046,39.77913098989916,3.047815363085523,0.6248491284202664,A,1233,Incorrect
2,new_learn,64,207,A,46.1292795929476,61.77627931007621,2.30646397964738,0.9703795262332326,A,1138,Correct
2,new_learn,64,208,B,88.6012478788058,62.17699261730661,4.43006239394029,0.9766739161441862,B,774,Correct
2,new_learn,64,209,A,37.28840039332896,64.78641392821358,1.8644200196664482,1.0176626102465163,A,987,Correct
2,new_learn,64,210,B,88.48815357654037,63.82013655814502,4.424407678827018,1.0024843608108291,B,630,Correct
2,new_learn,64,211,B,62.68674989166066,37.11667224885803,3.1343374945830327,0.5830273243135626,B,2128,Correct
2,new_learn,64,212,B,86.75475452791484,58.60329255422324,4.3377377263957415,0.9205383668226058,B,631,Correct
2,new_learn,64,213,A,25.948339009197962,45.243034934405614,1.2974169504598982,0.7106759308801752,A,525,Correct
2,new_learn,64,214,B,60.49553753453455,27.672982262876204,3.0247768767267273,0.4346861888998626,B,564,Correct
2,new_learn,64,215,B,83.61169419157886,55.741911379245195,4.180584709578943,0.8755918964304499,B,520,Correct
2,new_learn,64,216,B,36.47742583888076,13.172382090917672,1.8238712919440383,0.2069112940355236,A,525,Incorrect
2,new_learn,64,217,A,62.230232896912256,78.1983227923161,3.1115116448456126,1.2283363820369178,B,590,Incorrect
2,new_learn,64,218,B,70.32882028924654,38.44494410746081,3.516441014462327,0.6038917698783455,B,572,Correct
2,new_learn,64,219,B,72.23182914029087,42.861830521055424,3.6115914570145433,0.6732720594217925,B,506,Correct
2,new_learn,64,220,A,58.575536758326166,84.01029831284454,2.9287768379163084,1.319630680027597,A,631,Correct
2,new_learn,64,221,A,14.540731816455466,34.31289111530046,0.7270365908227733,0.538985633256272,A,743,Correct
2,new_learn,64,222,B,68.41858972684658,38.70106843349822,3.4209294863423287,0.6079149613837693,B,537,Correct
2,new_learn,64,223,A,42.300434969717855,57.08542498189423,2.115021748485893,0.8966957587508507,A,594,Correct
2,new_learn,64,224,A,20.43886149556946,34.54408436536944,1.0219430747784728,0.5426172083361533,A,590,Correct
2,new_learn,64,225,A,61.05971450116076,78.28325395528836,3.052985725058038,1.22967047762519,B,486,Incorrect
2,new_learn,64,226,B,42.26841593577059,21.937499221318113,2.1134207967885295,0.34459343195912395,A,529,Incorrect
2,new_learn,64,227,A,55.2718176058839,77.90350106518164,2.763590880294195,1.2237053331764964,A,889,Correct
2,new_learn,64,228,B,83.61375724639387,57.966304808136414,4.180687862319694,0.9105325867049403,B,581,Correct
2,new_learn,64,229,B,64.69230439965172,36.26752288459803,3.234615219982586,0.5696889172907643,B,670,Correct
2,new_learn,64,230,B,52.186191497650604,43.4394440805545,2.60930957488253,0.6823451919974732,A,636,Incorrect
2,new_learn,64,231,B,64.05785152085483,54.985381452219194,3.202892576042741,0.8637083521256214,B,718,Correct
2,new_learn,64,232,B,72.50804172329323,53.245051943309434,3.6254020861646614,0.8363713201255394,B,523,Correct
2,new_learn,64,233,A,65.94466822229845,77.19065644118004,3.2972334111149224,1.2125079960069243,B,588,Incorrect
2,new_learn,64,234,B,52.2341015685021,28.794114670238486,2.611705078425105,0.45229689557321656,A,784,Incorrect
2,new_learn,64,235,B,53.03335433604602,24.46177551012581,2.6516677168023013,0.3842446711818698,B,878,Correct
2,new_learn,64,236,B,58.54216423376458,34.70964217368993,2.927108211688229,0.5452177843079736,B,1564,Correct
2,new_learn,64,237,A,32.95577828297422,54.410604773673626,1.6477889141487112,0.854679781171754,A,858,Correct
2,new_learn,64,238,A,37.40153181453206,70.25044546636148,1.8700765907266033,1.103491416942658,A,703,Correct
2,new_learn,64,239,A,30.963986681924013,50.98911834414472,1.5481993340962006,0.8009351980149281,A,586,Correct
2,new_learn,64,240,A,52.67000085620866,69.20340414475093,2.633500042810433,1.087044530322775,A,623,Correct
2,new_learn,64,241,B,35.36571586794588,13.19694016116339,1.768285793397294,0.20729705130087506,A,1546,Incorrect
2,new_learn,64,242,B,47.771735675784356,27.65620743424211,2.3885867837892176,0.43442269050785215,A,1099,Incorrect
2,new_learn,64,243,B,74.75528921358159,59.08874736729451,3.7377644606790796,0.9281638731945783,B,775,Correct
2,new_learn,64,244,A,37.6466723993707,45.3596230080973,1.882333619968535,0.7125072920592053,A,776,Correct
2,new_learn,64,245,B,84.97622294087543,64.65814681780859,4.248811147043772,1.0156477951877885,B,871,Correct
2,new_learn,64,246,A,48.7815479448179,72.48020432355803,2.439077397240895,1.1385163871678852,A,1196,Correct
2,new_learn,64,247,A,33.081459961465384,64.17856072827549,1.6540729980732691,1.0081144745095834,A,1119,Correct
2,new_learn,64,248,A,49.122187855146,69.74775397251601,2.4561093927573,1.095595157422223,A,828,Correct
2,new_learn,64,249,A,29.555363347082107,61.078666811794555,1.4777681673541054,0.9594214547349624,A,745,Correct
2,new_learn,64,250,A,45.99572190561902,54.71865158072057,2.299786095280951,0.8595185691016562,A,1225,Correct
2,new_learn,64,251,B,60.854363626030114,30.557967610319352,3.0427181813015056,0.48000343276607066,B,1239,Correct
2,new_learn,64,252,B,62.33567112986465,53.22572961666938,3.1167835564932322,0.8360678057284261,B,547,Correct
2,new_learn,64,253,A,48.597089503933546,62.18721138892297,2.4298544751966773,0.9768344322333795,B,370,Incorrect
2,new_learn,64,254,A,28.837357113462513,41.4729390171219,1.4418678556731257,0.6514554026948384,A,687,Correct
2,new_learn,64,255,B,58.862535136159465,31.634200363797447,2.943126756807973,0.496908857325468,B,1163,Correct
2,new_learn,64,256,B,86.77470342212337,63.120884254012104,4.338735171106168,0.9915005313024804,B,878,Correct
2,new_learn,64,257,B,70.42728443487675,57.77207052864276,3.5213642217438377,0.9074815617772776,B,749,Correct
2,new_learn,64,258,A,36.09216519770875,55.10767794234832,1.8046082598854378,0.8656293809003688,A,617,Correct
2,new_learn,64,259,A,43.46532753426894,53.28778290072064,2.173266376713447,0.8370425364349587,B,689,Incorrect
2,new_learn,64,260,A,42.16705883011009,50.66861438838571,2.1083529415055047,0.7959007336506333,A,506,Correct
2,new_learn,64,261,B,46.57653645278006,38.21241683769884,2.328826822639003,0.6002392400661279,B,695,Correct
2,new_learn,64,262,A,16.36896314852714,36.86994829656501,0.818448157426357,0.5791517935336208,A,475,Correct
2,new_learn,64,263,A,39.97428139921702,49.89612297736,1.9987140699608512,0.7837664669414351,A,567,Correct
2,new_learn,64,264,A,47.482084968868826,71.59464017196244,2.3741042484434414,1.1246059780032094,B,603,Incorrect
2,new_learn,64,265,B,42.882020813585356,17.420753613341436,2.144101040679268,0.27364455785835645,A,472,Incorrect
2,new_learn,64,266,A,45.33755873680927,53.052000739673126,2.266877936840464,0.8333388789099868,B,491,Incorrect
2,new_learn,64,267,A,44.984453888532,54.819573437500786,2.2492226944266003,0.8611038459208931,A,976,Correct
2,new_learn,64,268,A,43.04401895185619,71.65303206960398,2.152200947592809,1.1255231957865084,B,1405,Incorrect
2,new_learn,64,269,B,70.1986431056564,59.88047117071282,3.50993215528282,0.9406002416170339,B,614,Correct
2,new_learn,64,270,A,36.522899187002665,63.79856854225292,1.8261449593501333,1.0021455712094334,A,576,Correct
2,new_learn,64,271,B,62.91919923102203,35.62811758749658,3.1459599615511014,0.5596451623705628,B,731,Correct
2,new_learn,64,272,B,52.59175761951315,40.425204492713206,2.6295878809756577,0.6349976272708645,B,640,Correct
2,new_learn,64,273,A,60.986337832411365,80.73659597642693,3.0493168916205686,1.2682074839769504,B,636,Incorrect
2,new_learn,64,274,B,33.63464865990427,20.242061522667473,1.6817324329952135,0.3179615588656238,A,678,Incorrect
2,new_learn,64,275,A,11.004641610706102,34.58191273615989,0.5502320805353051,0.5432114149950161,A,692,Correct
2,new_learn,64,276,A,20.98107070198536,34.61907690817844,1.049053535099268,0.5437951884439672,A,516,Correct
2,new_learn,64,277,A,12.244986519076729,36.985310249118996,0.6122493259538365,0.5809638948468576,A,365,Correct
2,new_learn,64,278,B,73.20699217769909,63.47572035433399,3.6603496088849545,0.9970742837324787,B,563,Correct
2,new_learn,64,279,B,46.29257165821776,19.18905100995749,2.314628582910888,0.3014209084112113,A,2240,Incorrect
2,new_learn,64,280,B,72.10037309640305,57.215152126072994,3.605018654820152,0.8987335079664669,B,663,Correct
2,new_learn,64,281,A,31.34279160288616,53.78078547479396,1.567139580144308,0.8447866027595069,A,728,Correct
2,new_learn,64,282,B,37.86445013279008,22.237866540920404,1.893222506639504,0.349311590782329,A,2606,Incorrect
2,new_learn,64,283,B,57.98359718642733,40.58690940440913,2.8991798593213667,0.637537682084031,B,591,Correct
2,new_learn,64,284,A,55.00461437306096,65.5315612136433,2.7502307186530484,1.029367356435258,B,690,Incorrect
2,new_learn,64,285,A,21.561801121074797,44.13855332826931,1.0780900560537399,0.6933267743808608,A,645,Correct
2,new_learn,64,286,B,45.929645274152385,38.64898974264843,2.2964822637076194,0.607096911220858,A,3162,Incorrect
2,new_learn,64,287,A,21.11116619605126,42.18544997972239,1.055558309802563,0.6626474987233778,A,621,Correct
2,new_learn,64,288,A,18.12766011551572,38.0565067917498,0.906383005775786,0.5977902107912562,A,778,Correct
2,new_learn,64,289,B,77.14875065160601,49.910279570033865,3.8574375325803003,0.7839888381791557,B,606,Correct
2,new_learn,64,290,B,57.64297852787595,26.93317042468241,2.8821489263937976,0.4230652517203207,B,519,Correct
2,new_learn,64,291,B,88.04305103907538,64.54009958503184,4.402152551953769,1.0137935135914484,B,381,Correct
2,new_learn,64,292,A,60.71151022111082,77.12674654200185,3.035575511055541,1.211504101658175,B,404,Incorrect
2,new_learn,64,293,B,39.71351258068138,17.086660549385318,1.985675629034069,0.2683966362816573,A,608,Incorrect
2,new_learn,64,294,B,68.02827747608804,39.06051388592586,3.4014138738044015,0.6135611173473339,B,628,Correct
2,new_learn,64,295,B,72.84857075106366,49.86869673092154,3.642428537553183,0.7833356564698022,B,3880,Correct
2,new_learn,64,296,A,48.75552110777946,71.41963504476297,2.437776055388973,1.1218570038934574,B,1116,Incorrect
2,new_learn,64,297,A,52.71846447564003,74.66177913895919,2.6359232237820014,1.1727844842344894,B,1247,Incorrect
2,new_learn,64,298,B,64.57852358510408,39.96701210969382,3.2289261792552044,0.627800358148742,A,3049,Incorrect
2,new_learn,64,299,A,13.963463857986486,37.25585923471628,0.6981731928993242,0.5852136683748006,A,879,Correct
2,new_learn,64,300,A,48.21109503600603,70.28069888904193,2.4105547518003014,1.1039666365948524,B,1863,Incorrect
2,new_learn,64,301,A,39.89239707332224,70.10187604410851,1.994619853666112,1.101157693915168,A,1192,Correct
2,new_learn,64,302,A,31.719966206301695,59.565238493191835,1.5859983103150848,0.9356485782976771,A,1595,Incorrect
2,new_learn,64,303,A,48.72011391901301,75.90395700605538,2.4360056959506506,1.1922965685430955,A,1361,Correct
2,new_learn,64,304,B,71.47635728326382,46.33205750841816,3.5738178641631912,0.7277822574707316,B,1181,Correct
2,new_learn,64,305,B,52.43785751431095,32.12727285028028,2.6218928757155475,0.5046540218315767,A,1070,Incorrect
2,new_learn,64,306,B,76.72016589930823,52.074035555913824,3.8360082949654113,0.8179770377261627,B,461,Correct
2,new_learn,64,307,B,35.56213608563339,17.151279963177025,1.7781068042816697,0.26941167565989377,A,688,Correct
2,new_learn,64,308,A,18.899237321170904,33.66006545387934,0.9449618660585452,0.5287310717462946,A,543,Correct
2,new_learn,64,309,A,37.01931425545271,54.985805229763045,1.8509657127726356,0.863715008807714,A,594,Correct
2,new_learn,64,310,A,59.67931902986027,80.99909763840077,2.9839659514930132,1.2723308504410111,B,538,Incorrect
2,new_learn,64,311,B,66.42541555401961,49.45613855679362,3.3212707777009802,0.7768552078247087,B,801,Correct
2,new_learn,64,312,A,37.23271414836077,66.45286084057285,1.8616357074180385,1.0438390971338427,A,583,Incorrect
2,new_learn,64,313,A,59.81280544500897,74.3577286339228,2.990640272250449,1.1680084700697764,B,446,Incorrect
2,new_learn,64,314,B,47.67953599177565,20.3000573217145,2.3839767995887824,0.3188725547467498,A,751,Incorrect
2,new_learn,64,315,B,84.85380568175478,59.09649019616763,4.24269028408774,0.9282854972661073,B,541,Correct
2,new_learn,64,316,B,48.40584044865808,40.54777454481359,2.420292022432904,0.636922953147008,B,607,Incorrect
2,new_learn,64,317,A,42.335187518649306,69.25900946463082,2.1167593759324657,1.0879179766449505,A,706,Correct
2,new_learn,64,318,B,48.050891500488895,22.43020965082757,2.4025445750244447,0.3523329092875939,A,1012,Correct
2,new_learn,64,319,A,13.593572110515854,38.508688120250326,0.6796786055257926,0.6048930584897948,A,564,Incorrect
2,new_learn,64,320,B,67.76914069454917,59.37586390188433,3.388457034727458,0.932673889173536,B,902,Correct
2,new_learn,64,321,A,23.893781119507807,52.97760025894973,1.1946890559753904,0.832170198891666,A,646,Incorrect
2,new_learn,64,322,A,62.18572392927851,81.38002036279677,3.1092861964639256,1.2783143706037507,A,1074,Correct
2,new_learn,64,323,A,41.328954215421604,48.480177493357125,2.0664477107710804,0.7615248472892997,B,649,Incorrect
2,new_learn,64,324,B,67.90453919498282,53.74991223974702,3.3952269597491407,0.8443016471174267,A,414,Correct
2,new_learn,64,325,A,60.379636634917695,72.05692480714922,3.0189818317458847,1.1318675280720605,A,641,Correct
2,new_learn,64,326,B,72.34828976335298,52.251296429457774,3.6174144881676487,0.8207614450166356,A,500,Incorrect
2,new_learn,64,327,B,72.89693835554522,61.65488625138785,3.6448469177772607,0.968472688526372,A,1235,Incorrect
2,new_learn,64,328,B,44.769253171948336,32.906102604402605,2.2384626585974168,0.516887851001316,B,1024,Correct
2,new_learn,64,329,A,14.68847383142364,34.03829019962302,0.7344236915711819,0.5346722121594657,A,509,Correct
2,new_learn,64,330,B,63.37767719168249,46.10245112585151,3.168883859584124,0.7241756088472879,B,538,Correct
2,new_learn,64,331,B,59.4078101483796,29.182746670588767,2.97039050741898,0.45840151275946833,B,600,Incorrect
2,new_learn,64,332,A,15.051104205810852,34.95565054307937,0.7525552102905425,0.549082074737951,A,545,Correct
2,new_learn,64,333,B,56.87480155025002,41.045756890867096,2.843740077512501,0.6447452415469035,A,1056,Correct
2,new_learn,64,334,A,39.55700382837348,53.095687088578764,1.977850191418674,0.8340251024739074,A,823,Correct
2,new_learn,64,335,A,18.84311604717763,37.10569805067296,0.9421558023588815,0.5828549420115763,A,1032,Incorrect
2,new_learn,64,336,A,24.02297540783484,39.401031209659365,1.2011487703917418,0.6189099509606402,B,495,Correct
2,new_learn,64,337,A,19.081600993644066,39.198129440271174,0.9540800496822033,0.6157227774200886,B,484,Correct
2,new_learn,64,338,B,65.88601562858241,42.79140481739178,3.2943007814291208,0.6721658150555245,A,824,Incorrect
2,new_learn,64,339,A,37.35749877976415,61.65312004469571,1.8678749389882074,0.9684449450165282,B,1046,Incorrect
2,new_learn,64,340,A,20.585849036484095,36.692548295372205,1.0292924518242048,0.5763652008311502,B,1758,Incorrect
2,new_learn,64,341,A,65.2416731560559,77.2939167760131,3.2620836578027945,1.214130005553518,B,1156,Incorrect
2,new_learn,64,342,B,39.699802665244114,20.888090476223688,1.9849901332622055,0.3281093579381163,A,1437,Correct
2,new_learn,64,343,A,37.93841924534012,64.25721395611367,1.8969209622670062,1.0093499565233712,A,795,Correct
2,new_learn,64,344,B,74.65322644418829,45.44542397470593,3.732661322209415,0.713855050491048,B,493,Correct
2,new_learn,64,345,A,35.37168929358234,55.7986689335353,1.7685844646791171,0.8764834420084175,B,730,Correct
2,new_learn,64,346,B,42.30706756571033,20.423199141772084,2.1153533782855165,0.3208068619329627,A,755,Incorrect
2,new_learn,64,347,A,45.51519724142424,53.643561446208516,2.275759862071212,0.8426310927590067,B,818,Correct
2,new_learn,64,348,B,36.294573221204104,25.697974654173866,1.8147286610602051,0.40366284192844665,A,806,Correct
2,new_learn,64,349,A,23.26703798665872,51.34799537996273,1.1633518993329361,0.8065724253112678,A,614,Incorrect
2,new_learn,64,350,B,64.10543612483838,38.578202756445435,3.2052718062419188,0.6059849918417325,B,626,Correct
2,new_learn,64,351,B,46.7416919142044,38.15487947973283,2.33708459571022,0.5993354453606631,B,531,Incorrect
2,new_learn,64,352,A,33.9517795757521,54.387099378215886,1.6975889787876048,0.8543105592833051,A,871,Incorrect
2,new_learn,64,353,A,37.40526579703365,65.77996296868929,1.8702632898516824,1.0332692420792147,A,1481,Incorrect
2,new_learn,64,354,A,69.31803643980467,86.23006492552967,3.4659018219902338,1.3544986924430746,B,620,Correct
2,new_learn,64,355,B,82.87239249118018,52.196202498635486,4.143619624559009,0.8198960315749922,B,594,Correct
2,new_learn,64,356,B,56.239838846892866,24.393256255914753,2.8119919423446436,0.38316837325357533,B,552,Incorrect
2,new_learn,64,357,B,57.34680316381137,33.59257297536059,2.8673401581905686,0.5276709023728593,B,635,Correct
2,new_learn,64,358,B,48.41284938258751,27.207623767108153,2.4206424691293758,0.42737635474191016,B,613,Correct
2,new_learn,64,359,A,40.70930922805444,69.61299201962396,2.035465461402722,1.0934783216162776,A,777,Correct
2,new_learn,64,360,A,47.200063911520616,59.747322127330044,2.3600031955760308,0.9385087413344148,A,1525,Incorrect
2,new_learn,64,361,A,44.11069475930859,63.99695298005058,2.2055347379654298,1.0052617866712916,B,913,Incorrect
2,new_learn,64,362,A,21.25615945610568,51.50924309787467,1.062807972805284,0.8091052985412692,A,714,Correct
2,new_learn,64,363,A,20.59872649195141,39.11535779499485,1.0299363245975706,0.6144226034564604,A,614,Incorrect
2,new_learn,64,364,A,50.11107231925202,76.32498689784927,2.505553615962601,1.1989100906181025,B,1943,Incorrect
2,new_learn,64,365,B,80.17162425761467,58.354922057830166,4.008581212880733,0.9166369721884212,107,885,Incorrect
2,new_learn,64,366,A,60.38763523757267,85.92839731554244,3.0193817618786336,1.3497601087062652,A,482,Correct
2,new_learn,64,367,B,45.6171003779089,35.3969588203023,2.280855018895445,0.5560141289464107,A,634,Incorrect
2,new_learn,64,368,B,57.35971135318394,47.89711510287136,2.8679855676591965,0.752366124676627,A,989,Incorrect
2,new_learn,64,369,A,38.507212903458324,67.0193061987112,1.9253606451729162,1.05273680001278,B,1737,Correct
2,new_learn,64,370,B,32.109773682171394,19.12925672710834,1.6054886841085698,0.3004816620125835,B,968,Incorrect
2,new_learn,64,371,B,81.4012914275535,68.22154479947389,4.070064571377674,1.0716215197928707,B,2298,Incorrect
2,new_learn,64,372,B,63.465137843557116,38.09549910460845,3.1732568921778554,0.5984027006093723,A,1079,Incorrect
2,new_learn,64,373,B,40.76532633162098,27.310717032132953,2.0382663165810495,0.42899573996209256,A,961,Correct
2,new_learn,64,374,B,61.359115765450035,34.717559751449315,3.0679557882725015,0.5453421533285893,A,593,Correct
2,new_learn,64,375,A,32.403895513010305,63.86397891388106,1.620194775650515,1.003173034924311,B,1298,Incorrect
2,new_learn,64,376,A,56.57943206879878,67.4711656503412,2.828971603439939,1.0598345916812597,A,586,Correct
2,new_learn,64,377,A,40.78166682989106,73.34389876213781,2.039083341494553,1.1520832676838284,A,601,Correct
2,new_learn,64,378,A,63.55555004059936,85.0321242360868,3.177777502029968,1.3356814840961242,A,636,Correct
2,new_learn,64,379,A,44.30216205482716,59.032976735075394,2.215108102741358,0.9272878301522501,A,598,Correct
2,new_learn,64,380,B,83.79355446301184,60.658098426767204,4.189677723150592,0.9528151819912921,B,1164,Correct
2,new_learn,64,381,B,66.57490719920361,35.239502670677155,3.3287453599601804,0.5535408135317863,B,850,Incorrect
2,new_learn,64,382,A,43.26515885373791,58.83862796659315,2.1632579426868954,0.92423500683576,100,737,Incorrect
2,new_learn,64,383,A,51.770358079239344,75.28626591812441,2.5885179039619675,1.1825938996229366,B,596,Incorrect
2,new_learn,64,384,B,55.66087257146699,34.901386745596426,2.783043628573349,0.5482297010003095,B,1411,Incorrect
2,new_learn,64,385,A,59.67036381958169,70.17673035405623,2.9835181909790847,1.1023335026662744,B,838,Incorrect
2,new_learn,64,386,B,64.95523775205122,39.268989188496654,3.247761887602561,0.6168358397423904,A,492,Incorrect
2,new_learn,64,387,B,65.38066201673433,36.48726874747585,3.2690331008367166,0.5731406772331329,A,553,Correct
2,new_learn,64,388,B,62.243588080422704,35.23179744278233,3.1121794040211355,0.5534197800950432,A,419,Incorrect
2,new_learn,64,389,A,18.04435629582716,36.26086760498258,0.902217814791358,0.5695843764030268,A,616,Correct
2,new_learn,64,390,B,84.83322193973706,63.03985819326407,4.241661096986853,0.9902277769165038,B,1703,Correct
2,new_learn,64,391,A,32.9503402421528,56.451597157888656,1.64751701210764,0.8867396145731672,A,806,Correct
2,new_learn,64,392,A,38.923290328037226,60.11736932759075,1.9461645164018615,0.9443214291635172,A,997,Correct
2,new_learn,64,393,A,32.086764492826696,41.64636953493841,1.6043382246413347,0.6541796428982414,A,752,Correct
2,new_learn,64,394,B,67.29901536544804,33.93402800951231,3.364950768272402,0.5330344655069708,A,654,Correct
2,new_learn,64,395,B,62.865456651683246,48.33839982432698,3.143272832584162,0.7592978088719589,B,1866,Incorrect
2,new_learn,64,396,B,40.203531411947225,13.694163679184584,2.010176570597361,0.2151074200579123,A,751,Correct
2,new_learn,64,397,B,73.69398207803171,54.05613371412995,3.6846991039015853,0.8491117627888909,B,807,Correct
2,new_learn,64,398,B,57.35846055156159,27.538175001157395,2.86792302757808,0.43256864138453077,B,1112,Correct
2,new_learn,64,399,B,35.63123745110082,15.903424119737828,1.781561872555041,0.2498104019074554,B,828,Incorrect
2,new_learn,64,400,A,26.939947342503707,50.53096193578667,1.3469973671251854,0.7937384939814645,A,704,Correct
2,new_learn,64,401,B,41.35290589900074,32.83512662255001,2.067645294950037,0.5157729628854687,B,631,Correct
2,new_learn,64,402,A,34.08693804320491,43.3415359946878,1.7043469021602453,0.6808072553810439,A,889,Correct
2,new_learn,64,403,B,39.97080676856201,24.752570660423196,1.9985403384281002,0.3888124707212388,B,635,Incorrect
2,new_learn,64,404,B,36.88063980850461,14.505509725460758,1.8440319904252305,0.22785201395041407,B,999,Correct
2,new_learn,64,405,B,36.862029307261665,21.001611397302124,1.843101465363083,0.32989254039656013,B,692,Incorrect
2,new_learn,64,406,A,64.67200536756388,85.18269470469133,3.2336002683781944,1.3380466394862023,A,774,Correct
2,new_learn,64,407,A,50.28205035403404,77.37686829046311,2.514102517701702,1.2154330048955195,B,973,Incorrect
2,new_learn,64,408,B,76.83865726945814,54.373807803043846,3.8419328634729073,0.8541017757087297,B,1955,Correct
2,new_learn,64,409,A,54.67078728908699,71.29026520151805,2.7335393644543498,1.119824867147786,A,688,Correct
2,new_learn,64,410,A,47.356174816317534,60.9993322572559,2.3678087408158768,0.9581752704663902,B,588,Correct
2,new_learn,64,411,B,79.31772013394558,53.113035285581375,3.9658860066972794,0.8342976073151894,B,583,Incorrect
2,new_learn,64,412,B,48.24969328175855,20.504938042533574,2.4124846640879274,0.3220908135836868,B,1373,Incorrect
2,new_learn,64,413,A,48.83781204536483,62.745624053764836,2.4418906022682414,0.9856059578610731,A,712,Incorrect
2,new_learn,64,414,B,78.83144449616267,53.513231277871085,3.941572224808134,0.8405838712620566,B,918,Incorrect
2,new_learn,64,415,B,55.52057875497317,45.02224176030838,2.7760289377486584,0.7072077198116421,A,612,Incorrect
2,new_learn,64,416,B,61.06882739955961,33.52570050247328,3.0534413699779805,0.5266204720251084,A,675,Incorrect
2,new_learn,64,417,A,55.877835650587244,74.54587402607184,2.7938917825293625,1.1709638509786873,A,647,Correct
2,new_learn,64,418,B,65.12031579651797,45.15962945718853,3.2560157898258986,0.7093658007077035,B,690,Correct
2,new_learn,64,419,A,61.93197346760898,78.57272400717302,3.096598673380449,1.2342174625673656,B,1086,Incorrect
2,new_learn,64,420,B,56.83335041181285,27.32925998982129,2.8416675205906428,0.4292870120603402,A,792,Incorrect
2,new_learn,64,421,A,38.59326168415217,67.0923534801535,1.9296630842076083,1.0538842240264992,B,709,Correct
2,new_learn,64,422,A,57.55670752960739,69.06052633110227,2.8778353764803692,1.0848002108741768,B,592,Correct
2,new_learn,64,423,B,64.30075594408929,45.08241682156037,3.215037797204465,0.7081529474634348,B,508,Correct
2,new_learn,64,424,A,27.03028913724978,40.56944714589417,1.351514456862489,0.6372633855687025,A,684,Correct
2,new_learn,64,425,B,64.55858118090781,40.17144365555247,3.2279290590453904,0.6310115613618998,B,506,Incorrect
2,new_learn,64,426,B,54.009372297436585,45.25293646342845,2.7004686148718293,0.7108314637343625,A,856,Correct
2,new_learn,64,427,A,53.60484890823336,79.81381872833109,2.6802424454116682,1.253712532859362,A,681,Incorrect
2,new_learn,64,428,B,79.52569134585455,61.821132167208035,3.976284567292728,0.971084073265522,B,1138,Correct
2,new_learn,64,429,A,39.855810213194474,49.98512977459346,1.9927905106597237,0.7851645824429762,B,621,Correct
2,new_learn,64,430,A,39.85334789831405,58.467408109308366,1.9926673949157023,0.9184038989531972,B,658,Incorrect
2,new_learn,64,431,B,38.27593248363256,11.49356604803739,1.913796624181628,0.1805405133003167,A,756,Correct
2,new_learn,64,432,B,52.41818020845527,29.307712471549394,2.6209090104227637,0.46036447097070765,A,847,Correct
2,new_learn,64,433,B,63.519757990603864,35.10065282983549,3.175987899530193,0.5513597653320848,B,895,Correct
2,new_learn,64,434,B,66.43837961515666,35.32179200696695,3.3219189807578333,0.5548334114035702,B,673,Correct
2,new_learn,64,435,B,82.57371915427208,52.45400935967383,4.128685957713604,0.8239456522784077,B,603,Correct
2,new_learn,64,436,B,82.58874114369414,53.2700115590232,4.129437057184707,0.8367633848523532,B,518,Correct
2,new_learn,64,437,B,47.941112519596814,38.545808465207806,2.3970556259798403,0.6054761435048804,B,766,Correct
2,new_learn,64,438,B,38.6270100319674,17.658917876403958,1.9313505015983703,0.27738563335428074,B,781,Correct
2,new_learn,64,439,A,44.14548142703221,65.48665520380183,2.207274071351611,1.0286619744821581,A,758,Correct
2,new_learn,64,440,A,68.26472899909221,85.02356356439681,3.4132364499546104,1.3355470133796692,A,827,Correct
2,new_learn,64,441,A,28.54188775134916,43.682423850648874,1.4270943875674582,0.6861619093009703,A,697,Incorrect
2,new_learn,64,442,A,39.51951109064436,63.5109872249499,1.975975554532218,0.997628254440689,B,457,Correct
2,new_learn,64,443,A,17.75276546863845,39.0119666840951,0.8876382734319225,0.6127985396842146,B,611,Correct
2,new_learn,64,444,B,75.82392948343306,54.74331928237735,3.7911964741716533,0.8599060484531859,A,810,Incorrect
2,new_learn,64,445,B,46.296147523734376,32.71402701398067,2.3148073761867187,0.5138707346822985,A,592,Correct
2,new_learn,64,446,B,57.703036557964,31.475512160725366,2.8851518278982,0.49441618886055494,B,464,Correct
2,new_learn,64,447,A,30.78589417779215,63.001664938107325,1.5392947088896076,0.9896278386674181,B,878,Correct
2,new_learn,64,448,A,36.899927931448175,60.01985080863,1.844996396572409,0.942789611849737,A,663,Incorrect
2,new_learn,64,449,B,34.04935041892671,21.485710346727632,1.7024675209463354,0.33749674891218867,B,548,Incorrect
2,new_learn,64,450,B,40.51636206690779,12.876278315134567,2.0258181033453893,0.20226010680202156,B,626,Correct
2,new_learn,64,451,B,53.86178404936611,45.27636835984518,2.6930892024683057,0.7111995311025748,A,602,Correct
2,new_learn,64,452,A,36.39951127840593,61.25742720475066,1.8199755639202966,0.9622294164212811,A,787,Correct
2,new_learn,64,453,B,80.70334744735553,57.83783943776132,4.035167372367777,0.9085146573858849,B,658,Correct
2,new_learn,64,454,B,42.20195453263523,22.7801159809604,2.1100977266317615,0.35782922506854314,B,603,Incorrect
2,new_learn,64,455,B,39.196311693278616,15.161926508748639,1.959815584663931,0.23816298467076533,B,1281,Correct
2,new_learn,64,456,B,54.492341112084354,43.00145961697764,2.7246170556042175,0.6754653481316756,A,2149,Correct
2,new_learn,64,457,A,16.75234190184676,31.378601187906714,0.837617095092338,0.4928939148592585,B,796,Incorrect
2,new_learn,64,458,A,59.89844741038226,83.43659903107172,2.9949223705191126,1.3106190327826608,A,1047,Correct
2,new_learn,64,459,A,23.051158218057086,44.73896374466089,1.1525579109028543,0.7027579991472337,B,711,Correct
2,new_learn,64,460,B,70.3244581221281,51.89823988821042,3.5162229061064054,0.815215645835213,A,2161,Incorrect
2,new_learn,64,461,A,46.005850872498335,53.53964729630703,2.300292543624917,0.8409988131093338,A,1095,Correct
2,new_learn,64,462,A,58.368778200057406,79.1812716889337,2.9184389100028705,1.243776507199258,B,725,Incorrect
2,new_learn,64,463,A,52.528790906518246,67.0799261860947,2.6264395453259124,1.0536890165479034,A,973,Correct
2,new_learn,64,464,A,47.35089024558139,73.97635474864498,2.3675445122790695,1.1620178630884774,B,632,Incorrect
2,new_learn,64,465,B,74.55068159376252,54.619742038914374,3.7275340796881262,0.8579649016521148,B,701,Incorrect
2,new_learn,64,466,B,33.743251051195095,14.869102054905696,1.687162552559755,0.23356330890584315,A,842,Correct
2,new_learn,64,467,A,59.07704610849297,69.33855179750937,2.9538523054246486,1.0891674246880538,B,959,Incorrect
2,new_learn,64,468,B,58.07783704111896,46.29787970814493,2.903891852055948,0.7272453938394604,A,819,Incorrect
2,new_learn,64,469,B,32.61757686742836,11.391880088178574,1.630878843371418,0.17894323397798828,B,1317,Correct
2,new_learn,64,470,B,35.961111505594644,19.883368152957743,1.7980555752797323,0.3123272165897665,A,609,Correct
2,new_learn,64,471,B,75.95052974796086,62.86925981691036,3.7975264873980428,0.9875480238871679,A,995,Correct
2,new_learn,64,472,B,70.90473769599848,49.40382644378592,3.545236884799924,0.7760334910751149,B,795,Correct
2,new_learn,64,473,A,62.679868255706175,85.31886832716728,3.133993412785309,1.3401856497461182,A,877,Incorrect
2,new_learn,64,474,A,53.50830073921014,60.81999793622861,2.675415036960507,0.9553582935390109,B,546,Correct
2,new_learn,64,475,B,35.207835860969666,18.857927658835134,1.7603917930484834,0.29621963497462117,B,827,Correct
2,new_learn,64,476,B,69.4634868619646,58.87469035314864,3.47317434309823,0.924801473479128,B,704,Correct
2,new_learn,64,477,B,70.94510348341336,58.64779358400901,3.5472551741706684,0.9212373873638665,A,793,Incorrect
2,new_learn,64,478,A,57.78760552522067,82.08372753153523,2.8893802762610337,1.2893681769616867,B,700,Incorrect
2,new_learn,64,479,A,35.40252028671157,65.51073007380403,1.7701260143355784,1.0290401416558332,A,1526,Correct
2,new_learn,64,480,B,68.00767577928677,55.130893898967,3.400383788964339,0.8659940562941655,A,776,Correct
2,new_learn,64,481,A,23.563339997780496,37.748820440129926,1.178166999889025,0.592957084881962,A,742,Incorrect
2,new_learn,64,482,A,16.165514436508126,33.713551827737724,0.8082757218254062,0.5295712337421978,B,1205,Incorrect
2,new_learn,64,483,A,48.95260895609567,59.03985784987913,2.4476304478047837,0.9273959184508297,A,2805,Incorrect
2,new_learn,64,484,B,52.56755898207618,32.757483566708665,2.6283779491038093,0.5145533486163016,B,1001,Incorrect
2,new_learn,64,485,B,58.10574181999497,30.424853163731385,2.905287090999748,0.47791247592863345,A,4107,Correct
2,new_learn,64,486,B,51.819980865205466,21.383723619178944,2.5909990432602736,0.33589474514203554,B,1532,Incorrect
2,new_learn,64,487,A,40.56039633443069,54.46193317870301,2.0280198167215344,0.8554860458725579,A,2658,Correct
2,new_learn,64,488,A,39.93005783380537,65.69132838422355,1.9965028916902685,1.0318769732821569,B,695,Incorrect
2,new_learn,64,489,A,35.52706139421223,48.88154864629856,1.7763530697106118,0.7678295706165182,A,1045,Correct
2,new_learn,64,490,A,57.35027056870743,76.69526865478903,2.867513528435371,1.2047264628549037,A,911,Correct
2,new_learn,64,491,B,37.15199260423913,21.982766012011,1.8575996302119566,0.3453044810445858,A,721,Correct
2,new_learn,64,492,B,52.57613228018216,29.285148160001867,2.628806614009108,0.46001003159375253,A,1200,Incorrect
2,new_learn,64,493,A,33.54867255606819,57.80884697481335,1.6774336278034097,0.9080592448428507,B,1713,Correct
2,new_learn,64,494,B,76.89902501421412,59.82812889139035,3.8449512507107055,0.9397780510160757,B,610,Incorrect
2,new_learn,64,495,B,48.04032785216961,23.60991406784518,2.4020163926084805,0.3708636629371437,A,550,Incorrect
2,new_learn,64,496,A,60.04520300467293,79.00284451231103,3.0022601502336466,1.2409737796628653,A,742,Incorrect
2,new_learn,64,497,B,60.96545799386113,38.5638705191609,3.0482728996930564,0.6057598615849196,B,700,Incorrect
2,new_learn,64,498,B,32.362931567134616,16.420841607170274,1.6181465783567308,0.2579379767942387,B,565,Correct
2,new_learn,64,499,B,72.2677089584043,41.26207731181147,3.6133854479202148,0.6481431947732049,B,653,Correct
2,new_learn,64,500,B,37.26890373867085,20.239978435072807,1.8634451869335424,0.3179288378022028,A,611,Correct
2,new_learn,64,501,B,62.08639986501287,41.70515216287174,3.1043199932506433,0.6551029982586117,A,445,Correct
2,new_learn,64,502,A,37.70165759952192,55.41176854925665,1.8850828799760961,0.8704060249838133,A,417,Correct
2,new_learn,64,503,A,47.79092669143322,58.83419627224883,2.3895463345716608,0.9241653939437847,B,459,Correct
2,new_learn,64,504,B,72.55031383684222,46.137701958824195,3.6275156918421114,0.7247293276367874,B,580,Incorrect
2,new_learn,64,505,B,75.94244466379207,54.999496589772626,3.7971222331896035,0.8639300721878328,A,1007,Incorrect
2,new_learn,64,506,A,24.294011170684424,49.36054719770033,1.2147005585342212,0.7753536622673382,B,881,Incorrect
2,new_learn,64,507,B,45.777621506404635,38.536926022353356,2.2888810753202318,0.6053366184187932,B,726,Correct
2,new_learn,64,508,B,33.097816673824184,20.82253834521755,1.6548908336912092,0.32707966747213607,A,728,Correct
2,new_learn,64,509,B,33.96436776913749,12.540829376725085,1.6982183884568745,0.19699088719921296,B,729,Incorrect
2,new_learn,64,510,B,55.5783882048229,23.58234480990153,2.7789194102411447,0.3704306060460402,B,786,Correct
2,new_learn,64,511,A,29.686733477443035,48.90251099101359,1.4843366738721517,0.7681588463573121,A,717,Correct
2,new_learn,64,512,A,32.573010482413885,54.59625563000298,1.628650524120694,0.8575959780036386,B,692,Incorrect
2,new_learn,64,513,A,50.44274400969623,77.22471239499814,2.5221372004848117,1.213042945678554,A,856,Correct
2,new_learn,64,514,A,16.66112021697474,41.690267054381835,0.833056010848737,0.6548691835212127,A,770,Incorrect
2,new_learn,64,515,B,81.13250234079256,57.38028827562928,4.056625117039627,0.9013274605379075,B,575,Incorrect
2,new_learn,64,516,A,48.403486951776614,64.51128213854115,2.420174347588831,1.0133408502004966,A,540,Correct
2,new_learn,64,517,A,60.11858686427388,69.70175162688719,3.005929343213694,1.094872554266846,B,646,Incorrect
2,new_learn,64,518,A,37.99157058557862,54.398439638415674,1.899578529278931,0.8544886916739725,A,2487,Correct
2,new_learn,64,519,A,20.330601722926037,44.417127970682294,1.0165300861463018,0.6977026146312661,A,621,Correct
2,new_learn,64,520,B,57.67235844567468,42.56421661616224,2.8836179222837344,0.6685971511356995,A,789,Incorrect
2,new_learn,64,521,B,62.62017779229091,36.232152423595906,3.131008889614545,0.5691333193885726,B,752,Correct
2,new_learn,64,522,A,50.61747419750883,62.67969974302584,2.5308737098754417,0.9845704212095203,B,511,Incorrect
2,new_learn,64,523,A,28.858411185788203,55.475240615670444,1.44292055928941,0.8714030418715819,A,1099,Correct
2,new_learn,64,524,B,80.22318393855895,59.47186574618802,4.011159196927947,0.9341818826175138,B,1106,Correct
2,new_learn,64,525,B,48.92971250293676,34.95284118137099,2.446485625146838,0.5490379453874294,A,669,Incorrect
2,new_learn,64,526,B,62.63940403743606,35.32066956300004,3.1319702018718028,0.5548157800949676,A,1162,Correct
2,new_learn,64,527,A,34.62607570051422,44.19365345054879,1.731303785025711,0.6941922850776864,B,819,Incorrect
2,new_learn,64,528,A,46.985284642956174,54.909218210409875,2.3492642321478088,0.8625119827209128,A,558,Incorrect
2,new_learn,64,529,B,63.400274465571755,33.44793411707058,3.170013723278588,0.5253989204997217,A,804,Incorrect
2,new_learn,64,530,A,48.62228615652688,64.94580221166854,2.431114307826344,1.020166275548368,A,946,Correct
2,new_learn,64,531,A,45.2459524773039,69.30300351937844,2.262297623865195,1.0886090336409344,B,977,Correct
2,new_learn,64,532,B,62.62582518771725,41.878988607728914,3.1312912593858626,0.657833614749059,B,785,Incorrect
2,new_learn,64,533,B,50.02173339911097,19.458108717822267,2.5010866699555487,0.3056472570033097,B,847,Correct
2,new_learn,64,534,A,60.00507112611063,76.63174907083615,3.0002535563055313,1.2037286995633765,B,746,Incorrect
2,new_learn,64,535,A,24.1298477192229,45.378233569176714,1.2064923859611452,0.7127996260690365,A,1247,Correct
2,new_learn,64,536,B,55.83720780945898,25.60182093323764,2.7918603904729493,0.40215246281190375,A,915,Incorrect
2,new_learn,64,537,A,24.70947564531633,44.72215856102099,1.2354737822658166,0.702494023939907,A,734,Correct
2,new_learn,64,538,B,39.90087279790636,17.2034620570825,1.9950436398953177,0.2702313500742057,A,737,Incorrect
2,new_learn,64,539,A,13.580041903299513,34.44460800341638,0.6790020951649757,0.5410546372965654,B,856,Correct
2,new_learn,64,540,B,59.6490829978912,31.492133129122507,2.9824541498945596,0.4946772704216151,B,1166,Correct
2,new_learn,64,541,A,49.61028828567543,76.72881128812917,2.4805144142837716,1.2052533493073208,A,818,Incorrect
2,new_learn,64,542,A,18.6847673786979,36.3718166380288,0.934238368934895,0.5713271597387314,A,1039,Correct
2,new_learn,64,543,A,43.1298660982002,74.23631799750015,2.1564933049100103,1.166101356252511,A,1455,Incorrect
2,new_learn,64,544,A,61.44231261280299,88.23655068384801,3.0721156306401496,1.3860164970324016,B,834,Correct
2,new_learn,64,545,B,56.43914975150736,41.42894405627254,2.8219574875753675,0.6507643314658418,A,869,Incorrect
2,new_learn,64,546,B,43.243891523099386,25.66281832419179,2.1621945761549695,0.4031106075884523,B,1170,Correct
2,new_learn,64,547,A,55.4291371699558,66.88692369283868,2.77145685849779,1.0506573404732154,B,1166,Correct
2,new_learn,64,548,B,83.59373494666345,62.44227354468927,4.1796867473331725,0.9808409392072006,B,955,Correct
2,new_learn,64,549,B,58.9125695611698,38.97589584033987,2.94562847805849,0.6122319401954635,B,746,Correct
2,new_learn,64,550,A,21.997335607560238,39.93096623418663,1.099866780378012,0.627234150860314,A,676,Correct
2,new_learn,64,551,B,37.89505557741896,23.675887203196464,1.894752778870948,0.37189996652391305,B,589,Correct
2,new_learn,64,552,B,75.78365573042096,60.25209600235023,3.7891827865210477,0.946437710821852,B,603,Correct
2,new_learn,64,553,A,11.851247524433848,37.27226915148654,0.5925623762216924,0.5854714347446579,A,521,Incorrect
2,new_learn,64,554,A,36.55339755144826,47.36926041728448,1.8276698775724132,0.7440746026646133,B,558,Incorrect
2,new_learn,64,555,A,61.12469087092361,85.84188533600161,3.0562345435461804,1.3484011817094004,B,582,Correct
2,new_learn,64,556,A,28.25159616416358,47.11293523780054,1.4125798082081789,0.7400482561606293,A,618,Correct
2,new_learn,64,557,B,37.24862464615127,19.59671630053508,1.8624312323075634,0.3078244998212218,A,636,Incorrect
2,new_learn,64,558,A,37.111895344356995,51.27337052527333,1.8555947672178497,0.8054002208349306,B,663,Correct
2,new_learn,64,559,A,54.038839931630235,74.79181255383641,2.701941996581512,1.1748270443389868,A,1990,Incorrect
2,new_learn,64,560,A,59.89053984524679,74.28965867693347,2.9945269922623394,1.166939229685737,B,556,Correct
2,new_learn,64,561,A,45.88243857024276,58.757327288064566,2.294121928512138,0.9229579387637737,B,576,Incorrect
2,new_learn,64,562,B,51.716227545522564,30.265322021902627,2.585811377276128,0.47540656661269337,A,817,Correct
2,new_learn,64,563,A,20.741131488114856,45.93505332450574,1.037056574405743,0.7215461303326133,A,595,Incorrect
2,new_learn,64,564,B,65.34418092695556,53.33585877889787,3.2672090463477783,0.8377977105634411,B,483,Correct
2,new_learn,64,565,B,66.08231697802806,38.59010938277675,3.3041158489014033,0.6061720206907899,B,540,Correct
2,new_learn,64,566,A,64.97766632445587,88.57238557618264,3.2488833162227935,1.3912917791852897,A,692,Incorrect
2,new_learn,64,567,B,82.37549916836974,64.42475807069098,4.118774958418487,1.0119817333209125,B,1164,Correct
2,new_learn,64,568,B,77.59285970989784,55.51023518372867,3.8796429854948915,0.8719527352612182,B,790,Correct
2,new_learn,64,569,B,59.90014758118505,43.69346837955313,2.995007379059252,0.6863353963553103,B,706,Correct
2,new_learn,64,570,A,30.284697706885346,48.342460364383804,1.5142348853442673,0.7593615916860196,A,1185,Incorrect
2,new_learn,64,571,A,43.80304614290275,60.98538181010342,2.1901523071451376,0.9579561373549474,B,1143,Incorrect
2,new_learn,64,572,A,61.87568053214804,73.83522820620311,3.0937840266074024,1.1598010525436677,B,3706,Incorrect
2,new_learn,64,573,B,78.98124822259594,64.8685543607709,3.9490624111297965,1.01895286914394,A,1412,Correct
2,new_learn,64,574,A,47.485348385624334,70.06540633512249,2.3742674192812165,1.1005848290660227,A,673,Correct
2,new_learn,64,575,B,85.30917933350868,62.657404485612844,4.265458966675434,0.9842202081250273,B,1308,Incorrect
2,new_learn,64,576,A,40.71668289573849,47.72266475287536,2.035834144786924,0.749625864986809,A,1447,Correct
2,new_learn,64,577,B,55.539638604935995,43.671884503121525,2.7769819302467997,0.6859963576171425,A,757,Incorrect
2,new_learn,64,578,B,86.66745979956806,58.1237487284452,4.333372989978403,0.9130057100219126,B,703,Incorrect
2,new_learn,64,579,B,71.4637141430508,52.131073785167494,3.5731857071525392,0.8188729921361484,B,964,Correct
2,new_learn,64,580,B,57.64931431302892,33.799997469781275,2.8824657156514455,0.5309291187120923,B,619,Incorrect
2,new_learn,64,581,B,57.81164083702433,40.359206089360406,2.8905820418512165,0.6339609267752555,B,1081,Correct
2,new_learn,64,582,A,65.09381588678569,76.29963724109976,3.2546907943392847,1.198511899141026,A,2072,Incorrect
2,new_learn,64,583,B,61.70663943202652,30.788864247809617,3.085331971601326,0.48363034866646054,A,731,Incorrect
2,new_learn,64,584,B,65.37190823362499,49.79013253255303,3.2685954116812495,0.7821015729276539,A,797,Incorrect
2,new_learn,64,585,A,17.155893212192886,39.45316153868972,0.8577946606096444,0.619728812254195,A,805,Correct
2,new_learn,64,586,B,50.888029699635766,38.96474045286517,2.544401484981788,0.6120567117787713,B,1437,Incorrect
2,new_learn,64,587,A,16.995136327256457,35.11417089923856,0.8497568163628229,0.5515721066697219,A,719,Correct
2,new_learn,64,588,A,31.424933844869983,50.043821534551526,1.5712466922434993,0.7860865104525289,A,542,Correct
2,new_learn,64,589,B,57.17881945822023,27.845745910868544,2.858940972911012,0.4373999539365632,A,1309,Correct
2,new_learn,64,590,A,50.91185706635777,62.681706700940886,2.5455928533178884,0.9846019464307301,A,714,Correct
2,new_learn,64,591,A,20.788624962634312,46.63332795014505,1.0394312481317156,0.7325146025030964,A,652,Correct
2,new_learn,64,592,B,70.93634570503168,44.69562645062649,3.546817285251584,0.7020772585244092,B,888,Incorrect
2,new_learn,64,593,B,66.5578861715275,36.14974152512683,3.3278943085763752,0.5678388120225417,B,549,Correct
2,new_learn,64,594,B,42.69758490218749,30.54169295147494,2.1348792451093743,0.4797477910227442,A,1035,Incorrect
2,new_learn,64,595,A,29.80118113526592,49.99870990668348,1.490059056763296,0.7853778986590202,A,6688,Correct
2,new_learn,64,596,A,40.43393545678842,64.57554912321689,2.021696772839421,1.0143503536351248,B,788,Incorrect
2,new_learn,64,597,A,21.656342920371465,43.528346727681864,1.0828171460185732,0.6837416715129734,A,686,Correct
2,new_learn,64,598,A,21.45362560876268,44.295093491029064,1.072681280438134,0.6957857015074498,A,875,Incorrect
2,new_learn,64,599,A,51.90142458102952,59.03261617483694,2.595071229051476,0.9272821664852687,B,721,Correct
2,new_learn,64,600,A,36.66047156073715,77.2600922195235,1.8330235780368576,1.2135986906626248,B,2577,Incorrect
2,new_learn,64,601,A,74.54587402607184,44.122164349412756,3.727293701303592,0.693069336902983,B,1088,Incorrect
2,new_learn,64,602,A,41.321772776356894,81.35885481011205,2.066088638817845,1.277981902879633,A,822,Correct
2,new_learn,64,603,B,36.60035193156933,51.44376080268756,1.8300175965784664,0.8080767050537689,B,1292,Correct
2,new_learn,64,604,A,82.48243240574804,33.192917900941765,4.1241216202874025,0.521393135144039,B,744,Incorrect
2,new_learn,64,605,A,34.184284439915146,88.73244952508921,1.7092142219957571,1.3938060578152367,A,717,Correct
2,new_learn,64,606,A,36.985310249118996,87.75501348092327,1.8492655124559496,1.378452528336709,A,762,Correct
2,new_learn,64,607,B,37.11667224885803,37.31325010833934,1.8558336124429016,0.5861151621095871,B,877,Correct
2,new_learn,64,608,B,34.70964217368993,41.45783576623542,1.7354821086844965,0.6512181613846868,B,615,Correct
2,new_learn,64,609,A,61.206243800794645,68.15942613174693,3.060312190039732,1.0706457620419614,B,656,Incorrect
2,new_learn,64,610,B,23.456598930810518,62.11949960917049,1.1728299465405259,0.9757708180842203,A,742,Incorrect
2,new_learn,64,611,A,61.565065165823256,56.82336937185614,3.0782532582911633,0.8925793988542126,B,623,Incorrect
2,new_learn,64,612,A,40.99948535425406,84.66731088730569,2.0499742677127033,1.3299510094138134,A,920,Correct
2,new_learn,64,613,A,44.91222056357307,79.27200771614176,2.2456110281786534,1.2452017853817217,A,675,Correct
2,new_learn,64,614,B,63.82013655814502,11.51184642345963,3.191006827907251,0.18082766076597356,B,770,Correct
2,new_learn,64,615,A,40.56944714589417,72.96971086275022,2.0284723572947088,1.1462055379049372,A,583,Correct
2,new_learn,64,616,A,42.89255256112146,70.56773378502596,2.144627628056073,1.1084753701975893,A,416,Correct
2,new_learn,64,617,A,73.31046412997692,55.91187387602317,3.6655232064988463,0.8782616610867673,B,1114,Incorrect
2,new_learn,64,618,A,56.84352048026433,62.030019894830666,2.8421760240132166,0.9743652740181437,A,523,Correct
2,new_learn,64,619,A,35.826363765099046,84.55510596307766,1.7913181882549523,1.3281884985855565,A,528,Correct
2,new_learn,64,620,B,40.17144365555247,35.44141881909219,2.0085721827776237,0.5567125049742954,B,653,Correct
2,new_learn,64,621,A,79.00284451231103,39.95479699532707,3.950142225615551,0.6276084835809553,B,1801,Incorrect
2,new_learn,64,622,B,12.540829376725085,66.03563223086252,0.6270414688362542,1.0372852854581753,A,553,Incorrect
2,new_learn,64,623,B,48.33090518907332,25.325377694974378,2.416545259453666,0.3978101025795916,A,741,Incorrect
2,new_learn,64,624,B,24.686544949675053,54.97961527403712,1.2343272474837526,0.8636177772105411,A,656,Incorrect
2,new_learn,64,625,A,43.67520882361236,77.50970138799482,2.183760441180618,1.2175195423123157,B,512,Incorrect
2,new_learn,64,626,B,63.873208981741435,10.616674232061868,3.193660449087072,0.1667663288650081,B,525,Correct
2,new_learn,64,627,A,46.396904438221696,78.85732146522597,2.319845221911085,1.238687908984613,A,790,Correct
2,new_learn,64,628,B,27.07979889884124,51.25678112186652,1.3539899449420618,0.8051396350955792,B,1595,Correct
2,new_learn,64,629,A,44.73896374466089,76.94884178194292,2.236948187233045,1.2087095802219758,A,915,Correct
2,new_learn,64,630,B,35.03489932286693,35.50700896267709,1.7517449661433462,0.5577427925404664,B,606,Correct
2,new_learn,64,631,A,58.94964213666526,58.271145873268445,2.947482106833263,0.9153210189585965,B,776,Incorrect
2,new_learn,64,632,B,38.59010938277675,33.91768302197194,1.9295054691388376,0.5327777190430715,A,881,Incorrect
2,new_learn,64,633,A,80.99909763840077,40.32068097013973,4.049954881920039,0.6333557756176437,B,684,Incorrect
2,new_learn,64,634,B,36.26752288459803,35.30769560034828,1.8133761442299017,0.5546119855661942,A,732,Incorrect
2,new_learn,64,635,B,49.79013253255303,34.62809176637501,2.4895066266276515,0.5439367935053846,B,825,Correct
2,new_learn,64,636,B,27.672982262876204,39.50446246546545,1.38364911314381,0.6205346453275998,A,1211,Incorrect
2,new_learn,64,637,A,39.45316153868972,82.8441067878071,1.9726580769344861,1.3013121863889157,B,1539,Incorrect
2,new_learn,64,638,B,24.381326438550445,56.08541860235729,1.2190663219275222,0.88098769527337,A,768,Incorrect
2,new_learn,64,639,B,24.393256255914753,43.760161153107134,1.2196628127957376,0.6873830039925342,B,4451,Correct
2,new_learn,64,640,A,39.93096623418663,78.00266439243975,1.9965483117093314,1.2252629870785943,A,7590,Correct
2,new_learn,64,641,B,51.89823988821042,29.675541877871893,2.5949119944105212,0.46614232177409304,B,706,Correct
2,new_learn,64,642,B,17.036539287433627,64.4584378366576,0.8518269643716814,1.0125107738475894,A,1477,Incorrect
2,new_learn,64,643,A,62.81524590196469,50.842820403282296,3.140762295098234,0.7986371553336846,B,967,Incorrect
2,new_learn,64,644,A,39.14603353826577,76.5214628371715,1.9573016769132885,1.2019963274560115,A,651,Correct
2,new_learn,64,645,B,30.307342873054814,41.53814759948212,1.5153671436527407,0.6524796967113077,B,894,Correct
2,new_learn,64,646,A,70.22444093106503,46.79522043044456,3.5112220465532515,0.7350576036369981,B,1722,Incorrect
2,new_learn,64,647,B,41.26207731181147,27.7322910415957,2.0631038655905733,0.43561780901745545,A,602,Incorrect
2,new_learn,64,648,A,32.72245465835617,84.67396653837845,1.6361227329178087,1.3300555561363885,B,1588,Incorrect
2,new_learn,64,649,A,45.96437308005377,81.02710111535183,2.2982186540026883,1.2727707280283331,A,973,Correct
2,new_learn,64,650,B,64.65814681780859,15.02377705912457,3.232907340890429,0.23599293819058303,A,789,Incorrect
2,new_learn,64,651,A,66.88692369283868,44.5708628300442,3.3443461846419336,0.7001174761551261,B,916,Incorrect
2,new_learn,64,652,A,37.8835054817754,80.20447790365816,1.8941752740887698,1.2598489928356869,A,7849,Correct
2,new_learn,64,653,B,37.99181239302626,30.969590782497107,1.899590619651313,0.48646919443487546,A,847,Incorrect
2,new_learn,64,654,B,15.576968856267506,62.3237982339414,0.7788484428133754,0.9789799333778142,B,1460,Correct
2,new_learn,64,655,A,31.376590866438317,83.74349655214971,1.568829543321916,1.3154397677707785,B,1494,Incorrect
2,new_learn,64,656,B,16.726096696750773,64.2119871060057,0.8363048348375386,1.00863953482315,A,1250,Incorrect
2,new_learn,64,657,A,59.75288232857635,64.05785878393091,2.987644116428817,1.0062184928014486,A,865,Correct
2,new_learn,64,658,B,46.77656210356304,44.41947111852208,2.338828105178152,0.6977394207114649,A,845,Incorrect
2,new_learn,64,659,A,52.94236049062619,54.28874174215902,2.6471180245313097,0.8527655611490017,B,772,Incorrect
2,new_learn,64,660,A,43.3415359946878,65.91306195679509,2.16707679973439,1.0353599560953817,A,662,Correct
2,new_learn,64,661,A,48.88154864629856,64.47293860578776,2.4440774323149284,1.012738551396443,A,715,Correct
2,new_learn,64,662,A,70.17673035405623,40.32963618041831,3.508836517702812,0.6334964437317564,B,616,Incorrect
2,new_learn,64,663,B,23.47171526370329,58.15775991058716,1.1735857631851645,0.913539956421698,B,890,Correct
2,new_learn,64,664,A,65.48665520380183,55.85451857296779,3.2743327601900916,0.8773607260931514,A,638,Correct
2,new_learn,64,665,A,85.30515846610639,39.79645641814584,4.265257923305319,0.6251212756107667,A,629,Correct
2,new_learn,64,666,A,44.28754275115263,74.51346187206956,2.2143771375576313,1.1704547220541843,A,968,Correct
2,new_learn,64,667,B,44.704239749986804,45.94482518779198,2.23521198749934,0.7216996264021729,A,685,Incorrect
2,new_learn,64,668,B,33.59257297536059,42.65319683618863,1.6796286487680294,0.669994849163448,A,922,Incorrect
2,new_learn,64,669,B,19.644199633024026,63.462023255252575,0.9822099816512013,0.9968591302032304,B,653,Correct
2,new_learn,64,670,B,48.25045805900331,26.91741926333394,2.4125229029501654,0.4228178330564315,A,442,Incorrect
2,new_learn,64,671,B,11.391880088178574,67.38242313257163,0.5695940044089287,1.0584406274718299,B,570,Correct
2,new_learn,64,672,B,37.57968018603391,51.43025773555414,1.8789840093016954,0.8078645993712327,A,1582,Incorrect
2,new_learn,64,673,B,38.21241683769884,53.42346354721994,1.910620841884942,0.8391738030463414,B,552,Correct
2,new_learn,64,674,B,59.100481945580064,23.78711360308192,2.9550240972790034,0.37364710672773993,A,996,Incorrect
2,new_learn,64,675,A,55.7986689335353,64.62831070641766,2.7899334466767653,1.0151791306460016,B,625,Incorrect
2,new_learn,64,676,A,44.417127970682294,79.66939827707397,2.2208563985341145,1.2514439817158745,B,916,Incorrect
2,new_learn,64,677,B,64.89526536939718,13.63583506494112,3.244763268469859,0.21419119632790562,A,2126,Incorrect
2,new_learn,64,678,B,42.99892376582968,49.91191343284041,2.149946188291484,0.7840145028361056,A,671,Incorrect
2,new_learn,64,679,B,43.671884503121525,44.460361395064005,2.1835942251560763,0.6983817236734017,B,449,Correct
2,new_learn,64,680,A,60.85682145501394,58.70939496973761,3.0428410727506967,0.922205019668146,A,623,Correct
2,new_learn,64,681,A,54.71865158072057,54.00427809438098,2.735932579036028,0.8482972166186373,B,3712,Incorrect
2,new_learn,64,682,B,22.43020965082757,51.949108499511105,1.1215104825413786,0.8160146881130158,B,1452,Correct
2,new_learn,64,683,A,70.16744997698197,51.84160731110566,3.5083724988490985,0.8143260633942823,A,2266,Correct
2,new_learn,64,684,A,71.3751838227402,54.81635547223678,3.5687591911370102,0.8610532982407286,B,818,Incorrect
2,new_learn,64,685,B,65.31745190906568,13.862000166213875,3.265872595453284,0.21774378943119,A,631,Incorrect
2,new_learn,64,686,B,20.82253834521755,66.90218332617582,1.0411269172608775,1.0508970382331575,B,783,Correct
2,new_learn,64,687,B,15.903424119737828,64.36876254889918,0.7951712059868913,1.0111021577214374,B,564,Correct
2,new_learn,64,688,A,58.83419627224883,52.20907330856678,2.9417098136124418,0.8200982057846218,A,951,Correct
2,new_learn,64,689,B,30.265322021902627,48.283772454477436,1.5132661010951312,0.7584397241529377,B,955,Correct
2,new_learn,64,690,A,51.70352846822126,66.51792904325396,2.585176423411063,1.044861186071469,A,625,Correct
2,new_learn,64,691,B,63.62859984836569,23.074950050470378,3.181429992418284,0.3624604678025458,B,641,Correct
2,new_learn,64,692,A,40.30655260840624,82.05185997101793,2.015327630420312,1.288867602491642,A,1516,Correct
2,new_learn,64,693,A,45.12413630133513,67.39280196028147,2.256206815066756,1.0586036577162603,B,503,Incorrect
2,new_learn,64,694,A,54.909218210409875,53.014715357043826,2.745460910520494,0.8327532014892144,B,895,Incorrect
2,new_learn,64,695,A,40.15696776053987,79.64576869300805,2.0078483880269937,1.2510728090773304,A,1145,Correct
2,new_learn,64,696,B,44.35289961379758,44.95001360735814,2.217644980689879,0.7060731626381878,A,1900,Incorrect
2,new_learn,64,697,A,84.01029831284454,41.424463241673834,4.200514915642227,0.6506939469947148,A,886,Correct
2,new_learn,64,698,B,46.33205750841816,28.523642716736177,2.316602875420908,0.44804833206259187,B,654,Correct
2,new_learn,64,699,A,74.3577286339228,40.18719455499103,3.71788643169614,0.6312589759117179,A,727,Correct
2,new_learn,64,700,A,43.528346727681864,78.34365707962854,2.1764173363840933,1.2306192876835949,B,666,Incorrect
2,new_learn,64,701,B,33.18990763663368,52.45870187382297,1.6594953818316838,0.8240193621182966,A,512,Incorrect
2,new_learn,64,702,B,20.504938042533574,51.75030671824145,1.0252469021266788,0.8128919170352292,B,995,Correct
2,new_learn,64,703,A,50.11578537871148,58.27316320376212,2.505789268935574,0.9153527071118907,B,1139,Incorrect
2,new_learn,64,704,B,64.54009958503184,11.95694896092462,3.227004979251592,0.1878193150749445,A,3540,Incorrect
2,new_learn,64,705,A,72.48020432355803,51.2184520551821,3.6240102161779015,0.8045375635240055,B,876,Incorrect
2,new_learn,64,706,B,19.883368152957743,64.03888849440536,0.9941684076478872,1.005920508190399,B,849,Correct
2,new_learn,64,707,B,18.178472853086475,52.49291878453528,0.9089236426543238,0.8245568400949084,B,753,Correct
2,new_learn,64,708,B,43.4394440805545,47.813808502349396,2.171972204027725,0.7510575476556502,100,700,Incorrect
2,new_learn,64,709,A,59.565238493191835,68.28003379369831,2.978261924659592,1.0725402627657272,A,717,Correct
2,new_learn,64,710,A,70.10187604410851,60.10760292667776,3.505093802205425,0.944168018896716,A,1519,Correct
2,new_learn,64,711,A,48.221024221514014,79.00585377607612,2.411051211075701,1.2410210490675508,B,793,Incorrect
2,new_learn,64,712,A,68.85176849174795,49.2615216053988,3.4425884245873974,0.7737981719008786,A,871,Correct
2,new_learn,64,713,A,46.688864872368825,66.74283937465418,2.3344432436184412,1.0483940692956857,A,736,Correct
2,new_learn,64,714,B,45.55692730885339,31.718947139100322,2.2778463654426697,0.49824005655900283,A,652,Incorrect
2,new_learn,64,715,B,36.0002470630559,54.18283626316469,1.800012353152795,0.8511020017750842,B,497,Correct
2,new_learn,64,716,A,77.22471239499814,49.55725599030377,3.861235619749907,0.7784435567560356,A,744,Correct
2,new_learn,64,717,A,52.311713280049425,77.2974139892753,2.615585664002471,1.214184939650981,B,715,Incorrect
2,new_learn,64,718,B,32.71402701398067,53.703852476265624,1.6357013506990337,0.8435781420445306,A,569,Incorrect
2,new_learn,64,719,A,87.36925702329565,37.97252585863524,4.368462851164782,0.5964710413786846,B,774,Incorrect
2,new_learn,64,720,A,61.77627931007621,53.8707204070524,3.0888139655038107,0.8461992973719279,A,6505,Correct
2,new_learn,64,721,A,81.86406085471435,31.670334602047873,4.093203042735718,0.4974764526126211,A,1036,Correct
2,new_learn,64,722,A,62.36909104312696,48.376566077083595,3.118454552156348,0.7598973229683352,B,688,Incorrect
2,new_learn,64,723,A,76.69526865478903,42.64972943129257,3.834763432739452,0.6699403832947056,A,667,Correct
2,new_learn,64,724,B,52.92035356151299,24.96517534452653,2.6460176780756495,0.39215205728972785,A,656,Incorrect
2,new_learn,64,725,B,23.553337283966872,57.51091291124196,1.1776668641983437,0.9033793075160006,B,1171,Correct
2,new_learn,64,726,B,40.946687609584124,50.048800519766594,2.047334380479206,0.7861647201693986,B,563,Correct
2,new_learn,64,727,B,65.98417173374321,19.295880418888686,3.2992085866871603,0.3030989808426392,B,981,Correct
2,new_learn,64,728,B,42.10994913433349,26.751723897979574,2.1054974567166744,0.42021509634377563,B,702,Correct
2,new_learn,64,729,B,39.498708975774264,32.50812272909816,1.9749354487887132,0.5106363977386509,B,1225,Correct
2,new_learn,64,730,A,34.12587967073105,81.85001675883404,1.7062939835365527,1.2856970567287727,A,753,Correct
2,new_learn,64,731,B,20.202061454295546,51.2472745351578,1.0101030727147773,0.8049903059807553,B,699,Correct
2,new_learn,64,732,A,41.359997295863074,73.43119333419776,2.067999864793154,1.1534544876152373,A,549,Correct
2,new_learn,64,733,A,64.17856072827549,66.91854003853462,3.2089280364137744,1.0511539688700737,A,698,Correct
2,new_learn,64,734,B,64.8685543607709,21.018751777404063,3.2434277180385447,0.3301617808576,B,485,Correct
2,new_learn,64,735,B,62.17699261730661,11.398752121194207,3.1088496308653304,0.17905117962017394,A,1051,Incorrect
2,new_learn,64,736,A,65.51073007380403,64.59747971328844,3.2755365036902013,1.0146948385384134,A,527,Correct
2,new_learn,64,737,B,48.10550761334168,25.192993622848704,2.4052753806670837,0.39573061843737994,B,500,Correct
2,new_learn,64,738,A,82.08372753153523,42.21239447477933,4.104186376576762,0.6630707418620057,A,909,Correct
2,new_learn,64,739,B,36.48726874747585,34.619337983265666,1.8243634373737927,0.5437992894018475,B,709,Correct
2,new_learn,64,740,B,58.64779358400901,29.054896516586638,2.9323896792004507,0.45639324723660124,B,524,Correct
2,new_learn,64,741,B,24.288138131751264,49.73140838299311,1.2144069065875633,0.781179136143425,A,908,Incorrect
2,new_learn,64,742,B,49.910279570033865,22.851249348393992,2.4955139785016933,0.3589465853913156,B,404,Correct
2,new_learn,64,743,A,77.68531804521693,47.78961787527155,3.8842659022608466,0.7506775621740829,A,894,Correct
2,new_learn,64,744,B,34.262112521183326,51.28875952259985,1.7131056260591664,0.8056419506396661,B,911,Correct
2,new_learn,64,745,A,36.692548295372205,79.41415096351591,1.8346274147686104,1.2474345662902617,A,983,Correct
2,new_learn,64,746,A,53.78078547479396,68.65720839711383,2.6890392737396978,1.0784649075817814,A,646,Correct
2,new_learn,64,747,A,85.92839731554244,39.61236476242733,4.296419865777122,0.6222295706448046,A,718,Correct
2,new_learn,64,748,B,60.51954489615348,13.117647735165676,3.025977244807674,0.2060515287858764,B,558,Correct
2,new_learn,64,749,B,28.794114670238486,47.7658984314979,1.4397057335119243,0.75030497802255,A,476,Incorrect
2,new_learn,64,750,A,73.34389876213781,59.21833317010894,3.6671949381068907,0.9301994022252351,A,1197,Correct
2,new_learn,64,751,B,36.841267099263945,31.163167169373594,1.8420633549631973,0.48950988520947347,B,535,Correct
2,new_learn,64,752,A,71.65303206960398,56.95598104814381,3.582651603480199,0.8946624581942405,A,410,Correct
2,new_learn,64,753,B,62.86925981691036,24.049470252039143,3.143462990845518,0.37776819533266215,B,569,Correct
2,new_learn,64,754,B,10.144413975694995,67.97417852328527,0.5072206987847497,1.0677358994127706,A,504,Incorrect
2,new_learn,64,755,A,79.81381872833109,46.39515109176664,3.990690936416554,0.7287733291604127,B,490,Incorrect
2,new_learn,64,756,B,39.77913098989916,39.04369273828954,1.988956549494958,0.6132968913781379,A,907,Incorrect
2,new_learn,64,757,A,55.704266813865495,58.86835009660345,2.7852133406932746,0.9247018809622071,A,501,Correct
2,new_learn,64,758,A,45.1239416764823,72.67698919477832,2.256197083824115,1.1416074766967017,A,659,Correct
2,new_learn,64,759,B,20.242061522667473,66.36535134009573,1.0121030761333736,1.0424645011147513,B,1106,Correct
2,new_learn,64,760,B,54.05613371412995,26.30601792196829,2.7028066857064976,0.41321396324428505,A,672,Incorrect
2,new_learn,64,761,B,38.96474045286517,49.111970300364234,1.9482370226432584,0.7714490254947219,A,615,Incorrect
2,new_learn,64,762,A,69.06052633110227,42.44329247039261,3.453026316555113,0.6666976790957422,A,866,Correct
2,new_learn,64,763,A,32.58634951135909,80.31987559711672,1.6293174755679545,1.2616616555657398,B,528,Incorrect
2,new_learn,64,764,B,27.532276729584765,42.605496887328094,1.3766138364792382,0.6692455801188637,B,1307,Correct
2,new_learn,64,765,A,53.095687088578764,60.44299617162652,2.6547843544289385,0.9494363636686894,A,846,Correct
2,new_learn,64,766,B,21.10367600279183,65.5335282768458,1.0551838001395915,1.0293982549917886,A,2211,Incorrect
2,new_learn,64,767,B,20.239978435072807,62.73109626132915,1.0119989217536403,0.9853777558311289,A,611,Incorrect
2,new_learn,64,768,B,29.285148160001867,47.42386771981784,1.4642574080000934,0.7449323721669695,B,1453,Correct
2,new_learn,64,769,B,19.044425536127935,64.00529148840538,0.9522212768063967,1.0053927676542382,B,786,Correct
2,new_learn,64,770,B,38.12188658176394,49.99879394289688,1.9060943290881969,0.7853792186967734,B,1581,Correct
2,new_learn,64,771,A,80.73659597642693,39.013662167588635,4.036829798821347,0.6128251722766525,A,925,Correct
2,new_learn,64,772,B,28.415110377049032,47.977090866152324,1.4207555188524514,0.7536223810285705,B,743,Correct
2,new_learn,64,773,B,31.68904950503388,43.191974209717074,1.584452475251694,0.6784579443564349,B,457,Correct
2,new_learn,64,774,A,82.77449987790726,47.58190709333851,4.138724993895363,0.7474148488411215,A,774,Correct
2,new_learn,64,775,B,31.868511074621562,42.260850731081604,1.5934255537310782,0.6638318909561041,B,407,Correct
2,new_learn,64,776,B,41.878988607728914,37.37417481228275,2.0939494303864454,0.5870721651212408,B,1014,Correct
2,new_learn,64,777,A,74.28965867693347,40.10946015475321,3.7144829338466736,0.6300379268081261,A,789,Correct
2,new_learn,64,778,A,62.61257935003039,67.6507900043747,3.1306289675015195,1.062656124436447,A,675,Correct
2,new_learn,64,779,B,24.17592016969199,56.82346160254787,1.2087960084845997,0.8925808476105305,B,479,Correct
2,new_learn,64,780,B,30.088156867238126,49.870589959219586,1.5044078433619064,0.7833653952303657,B,714,Correct
2,new_learn,64,781,B,32.432970424152806,57.733116222957996,1.6216485212076404,0.9068696689744529,B,1074,Correct
2,new_learn,64,782,B,54.619742038914374,25.44931840623748,2.730987101945719,0.3997569587195158,A,988,Incorrect
2,new_learn,64,783,A,60.11736932759075,61.076709671962774,3.005868466379537,0.9593907120543745,A,679,Correct
2,new_learn,64,784,A,54.53289689489097,72.95023712782098,2.726644844744549,1.145899645191979,A,625,Correct
2,new_learn,64,785,A,39.198129440271174,80.91839900635594,1.9599064720135586,1.2710632392930774,A,605,Correct
2,new_learn,64,786,B,24.752570660423196,60.02919323143799,1.2376285330211598,0.9429363622840388,B,967,Correct
2,new_learn,64,787,B,34.901386745596426,44.33912742853301,1.7450693372798214,0.696477384980305,B,636,Correct
2,new_learn,64,788,A,33.66006545387934,81.1007626788291,1.683003272693967,1.273927801161694,A,827,Correct
2,new_learn,64,789,B,39.846885188451964,32.092994837242614,1.992344259422598,0.5041155840618827,B,564,Correct
2,new_learn,64,790,A,55.606039573116504,75.36403028297028,2.7803019786558254,1.1838154194094905,A,730,Correct
2,new_learn,64,791,B,58.87469035314864,30.536513138035403,2.943734517657432,0.4796664267035012,B,719,Correct
2,new_learn,64,792,A,69.33855179750937,40.92295389150703,3.466927589875468,0.6428162565437615,B,738,Incorrect
2,new_learn,64,793,B,20.449504802443254,49.36575294122997,1.0224752401221628,0.7754354338954839,B,720,Correct
2,new_learn,64,794,A,70.31207806063769,62.49390599257886,3.5156039030318844,0.9816519798020844,B,612,Incorrect
2,new_learn,64,795,A,53.78735399856056,60.05136730036186,2.689367699928028,0.9432846717441958,A,596,Correct
2,new_learn,64,796,A,48.122020557210405,59.210355367920364,2.4061010278605206,0.930074087201498,A,744,Correct
2,new_learn,64,797,A,46.726344820453235,61.89949808993721,2.3363172410226616,0.972315042301211,A,506,Correct
2,new_learn,64,798,B,26.539397086322616,40.80822410220006,1.3269698543161308,0.6410140852275883,B,655,Correct
2,new_learn,64,799,B,36.92582086713057,45.06208297560461,1.8462910433565285,0.7078335441580657,B,581,Correct
2,new_learn,64,800,B,42.792031293303936,48.701562957365255,2.1396015646651967,0.7650023620259974,B,495,Correct
2,new_learn,64,801,A,39.04083725728836,87.54596251947655,1.952041862864418,1.3751687635131744,A,739,Correct
2,new_learn,64,802,A,66.45286084057285,62.76728585163923,3.3226430420286426,0.9859462205864018,B,544,Incorrect
2,new_learn,64,803,A,68.13274568243477,41.36932648342374,3.406637284121739,0.6498278608214084,A,727,Correct
2,new_learn,64,804,B,28.82863096749217,54.465426087125685,1.4414315483746085,0.8555409123497596,B,562,Correct
2,new_learn,64,805,A,85.18269470469133,35.327994632436116,4.259134735234567,0.5549308420166047,A,810,Correct
2,new_learn,64,806,A,38.508688120250326,86.40642788948415,1.9254344060125164,1.3572689954026982,A,650,Correct
2,new_learn,64,807,B,39.268989188496654,35.04476224794878,1.9634494594248326,0.5504818381247841,B,774,Correct
2,new_learn,64,808,B,54.985381452219194,35.942148479145175,2.7492690726109594,0.5645779480815802,B,1131,Correct
2,new_learn,64,809,B,53.245051943309434,27.491958276706768,2.6622525971654714,0.4318426707744954,B,1127,Correct
2,new_learn,64,810,B,20.888090476223688,60.300197334755886,1.0444045238111843,0.9471932847844194,B,987,Correct
2,new_learn,64,811,A,63.04390420778363,57.40788943242055,3.152195210389182,0.9017610184949377,B,1050,Incorrect
2,new_learn,64,812,B,53.33585877889787,34.65581907304444,2.666792938944894,0.5443723330200672,A,819,Incorrect
2,new_learn,64,813,A,36.371666382640655,73.76053369989685,1.8185833191320326,1.1586277539822913,A,1051,Correct
2,new_learn,64,814,B,42.890490230871315,47.31491174290618,2.144524511543566,0.7432208956838176,B,718,Correct
2,new_learn,64,815,B,29.33683762353337,42.535395553351094,1.4668418811766686,0.6681444309397188,B,784,Correct
2,new_learn,64,816,A,79.33207352286547,43.77992100877354,3.9666036761432735,0.687693391079522,A,1017,Correct
2,new_learn,64,817,A,53.052000739673126,54.66244126319073,2.652600036983656,0.8586356194986179,A,1242,Correct
2,new_learn,64,818,A,81.36762972428396,40.784834250184716,4.068381486214198,0.6406466782912885,A,943,Correct
2,new_learn,64,819,B,43.00145961697764,45.507658887915646,2.150072980848882,0.7148326342217303,B,755,Correct
2,new_learn,64,820,A,41.64636953493841,67.91323550717331,2.0823184767469205,1.066778608754246,A,1508,Correct
2,new_learn,64,821,B,48.31707530677547,39.06708027675233,2.4158537653387735,0.613664261973239,B,645,Correct
2,new_learn,64,822,A,49.89612297736,60.02571860078298,2.494806148868,0.94288178291334,B,921,Incorrect
2,new_learn,64,823,A,46.93338730341715,78.09811613892546,2.3466693651708574,1.2267623396062535,A,778,Correct
2,new_learn,64,824,B,48.33839982432698,37.134543348316754,2.416919991216349,0.5833080428874181,B,1224,Correct
2,new_learn,64,825,B,32.83512662255001,58.64709410099926,1.6417563311275003,0.9212263999104429,B,1047,Correct
2,new_learn,64,826,B,25.66281832419179,56.756108476900614,1.2831409162095895,0.8915228671868818,B,465,Correct
2,new_learn,64,827,A,32.61102578270574,81.60211202776676,1.6305512891352867,1.2818029783192166,B,582,Incorrect
2,new_learn,64,828,B,33.162302718973415,56.98444582581837,1.6581151359486708,0.8951095818763828,B,595,Correct
2,new_learn,64,829,A,67.0193061987112,61.492787096541676,3.3509653099355603,0.9659264409562828,A,1068,Correct
2,new_learn,64,830,B,51.17045924954513,24.722172644906337,2.5585229624772565,0.38833497981008147,A,927,Incorrect
2,new_learn,64,831,B,35.32066956300004,37.36059596256394,1.7660334781500018,0.5868588690486368,B,553,Correct
2,new_learn,64,832,B,31.492133129122507,40.3509170021088,1.5746066564561254,0.6338307220971825,B,813,Correct
2,new_learn,64,833,B,19.59671630053508,62.75137535384873,0.9798358150267539,0.9856962990715339,B,1073,Correct
2,new_learn,64,834,B,58.40137844983816,19.972403596495482,2.920068922491908,0.31372578206640284,B,1511,Correct
2,new_learn,64,835,B,42.400845044209944,35.75189693533811,2.120042252210497,0.5615894838197881,B,1184,Correct
2,new_learn,64,836,B,51.04018815688491,33.68797248290613,2.5520094078442455,0.529169434333165,B,617,Correct
2,new_learn,64,837,A,33.48205387247643,88.69926864998202,1.6741026936238215,1.3932848538478546,A,647,Correct
2,new_learn,64,838,B,16.420841607170274,67.63706843286539,0.8210420803585137,1.0624405864952002,A,495,Incorrect
2,new_learn,64,839,A,71.41963504476297,51.24447889222054,3.5709817522381484,0.8049463921241863,A,789,Correct
2,new_learn,64,840,A,70.28069888904193,51.78890496399397,3.514034944452096,0.8134982168617171,A,1850,Correct
2,new_learn,64,841,A,56.0272464312802,70.68513383319754,2.8013623215640098,1.1103194858419236,A,854,Correct
2,new_learn,64,842,A,78.99082773502991,50.00020261082715,3.9495413867514957,0.7854013460008789,A,735,Correct
2,new_learn,64,843,B,42.56421661616224,42.32764155432532,2.1282108308081122,0.6648810387542523,A,1134,Incorrect
2,new_learn,64,844,A,78.53198418977459,52.0446887412774,3.9265992094887294,0.8175160590398224,A,675,Correct
2,new_learn,64,845,A,45.06792470601363,78.31136359838567,2.2533962353006816,1.230112022866438,A,1110,Correct
2,new_learn,64,846,A,37.748820440129926,76.4366600022195,1.887441022006496,1.200664247639568,A,752,Correct
2,new_learn,64,847,B,20.685383984857125,57.436767611654574,1.0342691992428563,0.9022146358735909,B,928,Correct
2,new_learn,64,848,A,56.79205774351808,69.66021193269005,2.839602887175904,1.0942200502762356,A,1584,Correct
2,new_learn,64,849,A,51.34799537996273,76.73296201334128,2.5673997689981367,1.2053185487464881,A,1528,Correct
2,new_learn,64,850,A,52.143597574051434,77.30558354202431,2.6071798787025715,1.214313266685478,A,697,Correct
2,new_learn,64,851,A,41.690267054381835,83.33887978302526,2.0845133527190916,1.3090840624237754,A,941,Correct
2,new_learn,64,852,B,35.7982527334546,56.05435141369442,1.7899126366727303,0.8804996930150152,B,726,Correct
2,new_learn,64,853,B,38.928275042595956,48.90470638727108,1.9464137521297977,0.7681933315610833,B,678,Correct
2,new_learn,64,854,B,44.46492513342101,46.89820376696464,2.2232462566710507,0.7366752621042665,B,570,Correct
2,new_learn,64,855,A,63.94238738509563,66.73409689216707,3.1971193692547812,1.0482567427019078,A,1018,Correct
2,new_learn,64,856,A,74.60370166872715,37.71587010768391,3.7301850834363575,0.5924395022702332,A,584,Correct
2,new_learn,64,857,A,64.78641392821358,62.71159960667104,3.2393206964106787,0.9850715030959114,A,608,Correct
2,new_learn,64,858,A,63.001664938107325,69.21410582220784,3.150083246905366,1.0872126318791735,A,503,Correct
2,new_learn,64,859,B,12.617726754574775,60.56198810436733,0.6308863377287388,0.9513054845773641,B,839,Correct
2,new_learn,64,860,B,32.757483566708665,47.43244101792382,1.6378741783354331,0.7450670412187033,B,666,Correct
2,new_learn,64,861,B,30.60905446502791,56.47076235194265,1.5304527232513954,0.8870406607373905,B,501,Correct
2,new_learn,64,862,B,25.253831493874998,56.109209292275736,1.26269157469375,0.881361398556728,B,517,Correct
2,new_learn,64,863,B,38.98518226473496,27.991664351772442,1.949259113236748,0.43969203544639796,B,728,Correct
2,new_learn,64,864,A,77.90350106518164,44.7281823941161,3.8951750532590825,0.7025886460888973,A,660,Correct
2,new_learn,64,865,A,39.0119666840951,82.24723453136156,1.950598334204755,1.291936538909011,A,811,Correct
2,new_learn,64,866,A,53.88689074414037,77.59151322477545,2.6943445372070185,1.2188046396393493,A,735,Correct
2,new_learn,64,867,B,13.19694016116339,64.63428413205412,0.6598470080581694,1.0152729609964828,B,784,Correct
2,new_learn,64,868,B,57.42677203063663,14.7635781214926,2.8713386015318316,0.23190574283590076,B,721,Correct
2,new_learn,64,869,A,76.4451615118692,51.10526919392735,3.8222580755934596,0.8027596912968546,A,1604,Correct
2,new_learn,64,870,A,64.91729269446068,59.94526146749357,3.245864634723034,0.9416179652189856,A,653,Correct
2,new_learn,64,871,A,76.29963724109976,34.90618411321431,3.814981862054988,0.548305057874634,A,1351,Correct
2,new_learn,64,872,B,47.71718344560558,33.44074622814294,2.385859172280279,0.5252860134044722,B,542,Correct
2,new_learn,64,873,B,53.2700115590232,17.411258856305864,2.6635005779511602,0.2734954145636036,B,578,Correct
2,new_learn,64,874,A,76.72881128812917,50.38971171432457,3.8364405644064585,0.791519740691148,A,801,Correct
2,new_learn,64,875,B,51.23879094044406,28.21759237245834,2.5619395470222033,0.4432409044965325,B,716,Correct
2,new_learn,64,876,B,18.857927658835134,64.79216413903033,0.9428963829417567,1.0177529343468086,B,1215,Correct
2,new_learn,64,877,B,46.137701958824195,27.44968616315778,2.30688509794121,0.4311786619676094,B,504,Correct
2,new_learn,64,878,A,61.078666811794555,70.4446366529179,3.0539333405897278,1.1065417649680456,A,547,Correct
2,new_learn,64,879,B,45.64211942759763,46.75865861808959,2.2821059713798815,0.7344832920315167,B,806,Correct
2,new_learn,64,880,A,57.546064155193136,62.47909378625388,2.8773032077596565,0.9814193102092145,A,750,Correct
2,new_learn,64,881,B,43.77202046847064,44.59387154990852,2.1886010234235322,0.7004788962815974,B,525,Correct
2,new_learn,64,882,B,41.045756890867096,43.12519844974998,2.052287844543355,0.6774090331716823,B,911,Correct
2,new_learn,64,883,A,66.8160678312042,44.87443249334506,3.3408033915602093,0.7048859372755197,B,3230,Incorrect
2,new_learn,64,884,B,15.361433077425772,60.19029752098438,0.7680716538712886,0.9454669825465424,B,711,Correct
2,new_learn,64,885,A,81.02551249806837,39.24018364330594,4.051275624903418,0.6163833632966215,B,630,Incorrect
2,new_learn,64,886,B,20.3000573217145,52.32046400822435,1.015002866085725,0.8218479268032339,B,457,Correct
2,new_learn,64,887,A,55.475240615670444,71.1415888142118,2.773762030783522,1.1174894639171682,A,570,Correct
2,new_learn,64,888,A,80.80748794685127,47.93604027294732,4.040374397342563,0.7529775598183788,A,556,Correct
2,new_learn,64,889,A,51.774845811978764,62.51884595134449,2.588742290598938,0.9820437357582792,A,691,Correct
2,new_learn,64,890,A,75.19520319827237,46.800737705421675,3.759760159913618,0.7351442687896776,A,598,Correct
2,new_learn,64,891,A,63.79856854225292,63.477100812997335,3.1899284271126462,0.9970959679264556,A,478,Correct
2,new_learn,64,892,B,26.398455827161204,47.10444456467536,1.3199227913580602,0.7399148849790589,B,611,Correct
2,new_learn,64,893,A,60.340414939942015,67.76613036813123,3.0170207469971007,1.0644678866336463,A,610,Correct
2,new_learn,64,894,A,69.30300351937844,54.7540475226961,3.4651501759689216,0.8600745672580424,A,518,Correct
2,new_learn,64,895,B,17.086660549385314,60.28648741931862,0.8543330274692658,0.9469779299363242,B,488,Correct
2,new_learn,64,896,A,41.40022387211506,75.31505297566159,2.0700111936057533,1.1830460856653227,A,1761,Correct
2,new_learn,64,897,B,23.58234480990153,44.4216117951771,1.1791172404950765,0.6977730463817303,B,486,Correct
2,new_learn,64,898,A,34.410438072896355,87.55978652927884,1.7205219036448176,1.3753859105513646,A,859,Correct
