experiment,condition,subject,trial,cat,x,y,xt,yt,resp,rt,fb
2,relearn,69,0,A,42.05490427665821,68.66236110934635,2.1027452138329106,1.07854584619626,B,1649,Incorrect
2,relearn,69,1,B,51.019129128601016,40.72643988522578,2.550956456430051,0.6397294217514582,A,1704,Incorrect
2,relearn,69,2,A,31.5952674341084,44.20761438640825,1.57976337170542,0.6944115829453531,A,1308,Correct
2,relearn,69,3,A,13.06154539140104,36.967900658201486,0.653077269570052,0.5806904256322154,A,1000,Correct
2,relearn,69,4,B,75.6440067355372,48.482373339844465,3.7822003367768606,0.7615593395652651,B,676,Correct
2,relearn,69,5,B,43.7783989367537,16.729260909376276,2.1889199468376854,0.2627826158644171,B,1552,Correct
2,relearn,69,6,B,72.26328928388249,41.82519020743526,3.6131644641941243,0.6569885514533719,B,843,Correct
2,relearn,69,7,B,49.81443208103386,34.856191454829286,2.490721604051693,0.547519775033055,B,622,Correct
2,relearn,69,8,A,29.37121176334668,61.567004023632684,1.468560588167334,0.9670922377208884,A,770,Correct
2,relearn,69,9,A,17.199457531864862,41.16224272385041,0.8599728765932432,0.6465749967326418,A,696,Correct
2,relearn,69,10,A,15.752548437660394,31.52019913356522,0.7876274218830197,0.4951181301884793,A,681,Correct
2,relearn,69,11,A,40.349953155297676,52.40716248532354,2.0174976577648835,0.8232097832968951,B,590,Incorrect
2,relearn,69,12,B,42.827532295381225,27.277452277730806,2.141376614769061,0.4284732184218264,B,937,Correct
2,relearn,69,13,A,17.862576933092676,34.169206908274305,0.8931288466546338,0.5367286470101208,A,913,Correct
2,relearn,69,14,A,45.38566977618342,70.22874939069611,2.269283488809171,1.1031506157830477,B,817,Incorrect
2,relearn,69,15,B,56.81331410761079,33.34560783313883,2.8406657053805393,0.523791582990376,B,1154,Correct
2,relearn,69,16,A,49.6375898591731,57.5073494691061,2.481879492958655,0.9033233330978233,A,881,Correct
2,relearn,69,17,B,87.62951109714247,60.34267046766199,4.381475554857124,0.9478604511959835,A,1043,Incorrect
2,relearn,69,18,A,42.98853537157474,75.0014157099381,2.149426768578737,1.1781194830158783,A,1019,Correct
2,relearn,69,19,A,64.93483973092488,85.5861259553619,3.246741986546244,1.3443837227528783,A,734,Correct
2,relearn,69,20,A,51.21309657203365,71.4272360501407,2.5606548286016824,1.1219764002067305,B,1703,Incorrect
2,relearn,69,21,A,34.90538577388954,46.58125417085852,1.7452692886944772,0.7316966294908404,B,917,Incorrect
2,relearn,69,22,A,27.965869981593336,54.182837482214445,1.3982934990796667,0.8511020209238729,A,1000,Correct
2,relearn,69,23,A,43.67533697035017,73.57726545096126,2.1837668485175086,1.15574898305983,B,929,Incorrect
2,relearn,69,24,B,70.05401743919683,55.5894161133931,3.5027008719598416,0.8731965063959092,A,1411,Incorrect
2,relearn,69,25,A,42.951131066358904,62.665009303845885,2.147556553317945,0.9843396643304914,A,2047,Correct
2,relearn,69,26,A,39.42666723087277,49.843500667603585,1.9713333615436386,0.7829398776327068,B,928,Incorrect
2,relearn,69,27,A,11.191978221754116,31.88852013897262,0.5595989110877058,0.5009037030122327,A,1706,Correct
2,relearn,69,28,B,55.75294456470529,31.33555852327212,2.7876472282352642,0.4922178022642235,B,1139,Correct
2,relearn,69,29,A,57.31338018887425,80.0459245818515,2.8656690094437125,1.2573584430807363,A,1418,Correct
2,relearn,69,30,B,39.0751489448467,11.802396327445155,1.9537574472423354,0.18539160798528426,B,924,Correct
2,relearn,69,31,A,63.90264502069293,75.34422782539718,3.1951322510346465,1.1835043631333173,A,830,Correct
2,relearn,69,32,A,54.431421608551936,68.09366979321312,2.7215710804275965,1.0696128638916378,A,862,Correct
2,relearn,69,33,A,55.12511249455103,70.2077244366018,2.756255624727552,1.1028203565764239,A,584,Correct
2,relearn,69,34,B,47.33982278756879,32.170824679497784,2.3669911393784395,0.5053381323651772,B,821,Correct
2,relearn,69,35,A,33.67482731252324,56.214867773542046,1.683741365626162,0.8830210780994067,B,1537,Incorrect
2,relearn,69,36,A,49.37353522013361,71.59590424469198,2.4686767610066807,1.124625834011213,A,871,Correct
2,relearn,69,37,B,73.32502120465041,63.16465532839914,3.6662510602325202,0.9921880857311507,A,2062,Incorrect
2,relearn,69,38,A,36.33066534733054,49.64317621851654,1.8165332673665266,0.7797931885447754,A,1562,Correct
2,relearn,69,39,A,13.103577220600094,39.05061026266144,0.6551788610300048,0.6134055515968768,A,1117,Correct
2,relearn,69,40,A,63.73306181038713,84.99171286340284,3.1866530905193566,1.3350467037383973,A,1480,Correct
2,relearn,69,41,A,56.24101545071666,69.09187925261793,2.812050772535833,1.0852927014136877,A,1869,Correct
2,relearn,69,42,A,30.14006640944906,47.53245003751261,1.507003320472453,0.7466379792248674,A,1680,Correct
2,relearn,69,43,A,56.80181356639452,73.34980717663878,2.840090678319726,1.1521760768417815,A,743,Correct
2,relearn,69,44,B,61.948574458841335,39.97514155203971,3.097428722942067,0.6279280551305001,B,940,Correct
2,relearn,69,45,B,61.3282838265809,45.17512172322021,3.066414191329045,0.7096091526534665,B,676,Correct
2,relearn,69,46,B,79.50865050762918,59.97799675086026,3.975432525381459,0.9421321698476752,B,696,Correct
2,relearn,69,47,A,41.01916602785084,61.47524948413395,2.050958301392542,0.9656509607847747,A,1033,Correct
2,relearn,69,48,B,39.995151331435345,15.012306595227528,1.9997575665717673,0.23581276056502204,B,915,Correct
2,relearn,69,49,A,26.108530061531987,39.45751733287955,1.3054265030765992,0.6197972329093315,A,1347,Correct
2,relearn,69,50,B,51.58972115911027,29.111821580312956,2.579486057955513,0.4572874240466399,B,988,Correct
2,relearn,69,51,A,45.187665124824896,55.77415996005168,2.259383256241245,0.8760984559532018,A,907,Correct
2,relearn,69,52,B,69.35801129554443,47.13000041826121,3.4679005647772216,0.7403163153884665,B,2753,Correct
2,relearn,69,53,B,64.71552358330526,46.31236270495721,3.2357761791652626,0.7274728922213973,B,792,Correct
2,relearn,69,54,B,78.17238483581932,51.179603698494034,3.908619241790966,0.8039273349641293,B,744,Correct
2,relearn,69,55,A,43.79126132188398,64.10304170058056,2.189563066094199,1.0069282243965203,A,635,Correct
2,relearn,69,56,B,46.94321646692096,17.04787142681382,2.347160823346048,0.26778733816910816,B,737,Correct
2,relearn,69,57,A,15.567540825904931,42.66661290924745,0.7783770412952465,0.6702055883462561,A,625,Correct
2,relearn,69,58,A,63.85529347590431,76.94516613976131,3.1927646737952156,1.2086518433696012,A,1038,Correct
2,relearn,69,59,B,84.42147674287936,62.25461010011048,4.221073837143968,0.9778931287130201,A,1934,Incorrect
2,relearn,69,60,B,55.25951450631135,30.206989336507426,2.7629757253155676,0.47449027893318474,B,1367,Correct
2,relearn,69,61,A,54.32971752921529,64.82995630806636,2.716485876460764,1.0183465723498428,A,940,Correct
2,relearn,69,62,B,40.526375227361754,30.980196180281496,2.026318761368088,0.48663578363371457,A,908,Incorrect
2,relearn,69,63,A,30.54870905800984,51.55043556118436,1.527435452900492,0.8097523482418539,A,854,Correct
2,relearn,69,64,B,45.58393153190802,18.01439846249606,2.2791965765954014,0.28296950934308446,B,710,Correct
2,relearn,69,65,B,70.4675807279812,53.782330440194535,3.52337903639906,0.8448108710192692,B,1797,Correct
2,relearn,69,66,B,83.21256477355996,60.68995229483397,4.160628238677998,0.9533155413808271,B,852,Correct
2,relearn,69,67,A,25.56845281421058,49.30798675329936,1.278422640710529,0.7745280447373405,A,665,Correct
2,relearn,69,68,A,59.90215591513211,68.74159597637629,2.9951077957566055,1.079790464577107,B,836,Incorrect
2,relearn,69,69,B,54.919126939942586,43.91614949877494,2.7459563469971293,0.6898332631965122,B,1143,Correct
2,relearn,69,70,B,54.38889222817607,24.914442867888475,2.7194446114088033,0.39135515341020527,B,784,Correct
2,relearn,69,71,A,55.88074408767768,67.80065407041401,2.794037204383884,1.0650101836809778,A,982,Correct
2,relearn,69,72,A,53.392397475425994,60.51784854893093,2.6696198737712997,0.9506121420619057,A,815,Correct
2,relearn,69,73,A,32.2568844965822,60.64685509880147,1.61284422482911,0.952638572208597,A,742,Correct
2,relearn,69,74,A,36.91744288836777,48.21237268608525,1.8458721444183885,0.757318179213693,A,726,Correct
2,relearn,69,75,B,47.18793277899487,22.625890559940668,2.3593966389497436,0.35540665782018127,B,636,Correct
2,relearn,69,76,B,75.00234467121362,52.91147902854881,3.750117233560681,0.8311315690332968,A,2132,Incorrect
2,relearn,69,77,B,72.48007924123823,41.39915076622439,3.6240039620619116,0.650296339560134,B,736,Correct
2,relearn,69,78,B,72.22346637698821,56.69056663219969,3.6111733188494104,0.890493338297806,B,799,Correct
2,relearn,69,79,A,50.80764465171431,77.81166861262832,2.5403822325857157,1.2222628323849831,A,779,Correct
2,relearn,69,80,A,65.94401617496648,80.01230106183884,3.2972008087483236,1.2568302860634384,A,1211,Correct
2,relearn,69,81,A,62.521991545979354,88.14881580457174,3.1260995772989677,1.384638360771412,A,719,Correct
2,relearn,69,82,A,28.33045923925433,56.05403266146396,1.4165229619627167,0.8804946860666873,A,988,Correct
2,relearn,69,83,B,39.49259554692995,13.01816091079463,1.9746297773464974,0.20448879340301113,B,860,Correct
2,relearn,69,84,B,87.10188685333681,64.55190521019621,4.35509434266684,1.0139789559178853,A,1837,Incorrect
2,relearn,69,85,B,43.93819113606217,21.21610256748424,2.1969095568031087,0.33326175981908013,B,1529,Correct
2,relearn,69,86,A,32.760283064843755,55.95105443958258,1.6380141532421877,0.8788771079399761,A,1049,Correct
2,relearn,69,87,A,40.18557196199472,54.94766242602065,2.009278598099736,0.863115863047592,A,750,Correct
2,relearn,69,88,A,16.09052246350968,36.481063283524115,0.8045261231754839,0.5730432020333185,A,644,Correct
2,relearn,69,89,A,37.16334049632781,50.53147562499662,1.8581670248163906,0.7937465629927053,A,815,Correct
2,relearn,69,90,B,45.851715794898624,24.948183325306218,2.292585789744931,0.39188514727596696,B,1022,Correct
2,relearn,69,91,B,33.05526148622203,19.878505994914946,1.6527630743111015,0.3122508419898273,B,1544,Correct
2,relearn,69,92,A,46.65094320633347,76.17626153175692,2.3325471603166736,1.1965739180305115,A,895,Correct
2,relearn,69,93,A,33.760810447550824,47.26552477762304,1.6880405223775412,0.7424451270472343,A,2238,Correct
2,relearn,69,94,A,53.330210701293225,60.41406821002872,2.6665105350646616,0.9489819643104943,B,1627,Incorrect
2,relearn,69,95,B,39.90433528788225,17.472548528894205,1.9952167643941123,0.2744581504893259,B,1167,Correct
2,relearn,69,96,A,32.036105542050805,46.88689242363566,1.6018052771025402,0.7364975839387436,A,991,Correct
2,relearn,69,97,B,48.24380142626337,36.643614495144504,2.412190071313168,0.5755965504946121,B,968,Correct
2,relearn,69,98,A,36.67480238974963,68.05591028863718,1.8337401194874814,1.069019738980743,A,706,Correct
2,relearn,69,99,A,53.018031564202154,62.94716172763213,2.650901578210108,0.9887717042392885,A,1064,Correct
2,relearn,69,100,A,53.32779808527343,66.71948270713263,2.6663899042636716,1.0480271836201955,A,1193,Correct
2,relearn,69,101,A,23.729085122434242,53.579020296105064,1.1864542561217122,0.8416172827439105,A,736,Correct
2,relearn,69,102,A,18.55308994336189,34.32972248790031,0.9276544971680946,0.5392500198388197,A,1006,Correct
2,relearn,69,103,B,49.30915659646844,34.544270451902264,2.4654578298234218,0.5426201313765756,A,1566,Incorrect
2,relearn,69,104,A,26.35414858993809,42.15760451357253,1.3177074294969047,0.6622101031639167,A,1364,Correct
2,relearn,69,105,B,56.7292372031921,34.63751317867216,2.8364618601596048,0.5440847847036805,A,2230,Incorrect
2,relearn,69,106,A,24.090647919801,35.94200529461517,1.20453239599005,0.5645756989442424,A,740,Correct
2,relearn,69,107,B,82.53282454584303,66.95836358363233,4.1266412272921515,1.0517795156536685,B,1067,Correct
2,relearn,69,108,B,51.22560929049202,37.51097010719457,2.5612804645246006,0.5892209405889439,B,1361,Correct
2,relearn,69,109,A,44.002402414791284,72.3697246579611,2.200120120739564,1.1367809766388333,A,672,Correct
2,relearn,69,110,B,37.660941447640226,19.49174278992586,1.8830470723820114,0.30617557977246446,B,876,Correct
2,relearn,69,111,B,81.89039035041269,66.43426202521034,4.094519517520634,1.043546947625301,A,1787,Incorrect
2,relearn,69,112,B,64.39051221351652,32.45639196614033,3.2195256106758254,0.5098238128142862,B,1011,Correct
2,relearn,69,113,B,53.78269630153255,22.34660437311367,2.6891348150766277,0.35101964065625724,B,765,Correct
2,relearn,69,114,A,28.500770676689832,60.687489412209615,1.4250385338344915,0.9532768545110303,A,817,Correct
2,relearn,69,115,B,49.35561295155978,24.98142304928377,2.467780647577989,0.39240727563924316,B,789,Correct
2,relearn,69,116,B,49.80296318484197,32.50020445482309,2.4901481592420986,0.5105120177771925,B,855,Correct
2,relearn,69,117,A,54.97859449346289,73.43795689730983,2.7489297246731446,1.1535607294161623,A,644,Correct
2,relearn,69,118,B,54.14028975684502,37.57545353167742,2.7070144878422515,0.5902338438521121,B,937,Correct
2,relearn,69,119,A,38.35559817086089,53.657656082998884,1.9177799085430445,0.8428524907959848,A,897,Correct
2,relearn,69,120,A,16.836584024136865,46.547241477454946,0.8418292012068433,0.7311623593522129,A,754,Correct
2,relearn,69,121,A,54.16651816375969,78.235169264635,2.7083259081879847,1.2289151650706565,A,848,Correct
2,relearn,69,122,A,35.46421310036275,61.13217223786994,1.7732106550181372,0.9602619160023904,A,1408,Correct
2,relearn,69,123,A,33.04153992493115,56.22204789023899,1.6520769962465576,0.8831338631087418,A,628,Correct
2,relearn,69,124,A,59.052528150017565,68.87237176317136,2.9526264075008783,1.0818446858324213,A,1117,Correct
2,relearn,69,125,A,45.293075450185725,67.7032067008409,2.264653772509286,1.063479483979165,A,852,Correct
2,relearn,69,126,B,74.00835802777291,49.23549898668573,3.700417901388646,0.7733894095619979,B,784,Correct
2,relearn,69,127,B,46.95269713482737,38.81179267580841,2.3476348567413683,0.6096542137148493,A,1536,Incorrect
2,relearn,69,128,A,44.593225047574336,51.70931961680558,2.2296612523787167,0.812248093151415,B,1642,Incorrect
2,relearn,69,129,B,52.251972561256714,32.0833457897324,2.6125986280628357,0.5039640171780216,B,1586,Correct
2,relearn,69,130,B,64.48811542861316,45.915063886396695,3.2244057714306575,0.7212321369730493,B,1128,Correct
2,relearn,69,131,A,61.16742179658242,70.50978804777225,3.0583710898291208,1.1075651606852734,A,1158,Correct
2,relearn,69,132,A,60.57636835470093,74.09715064838437,3.028818417735047,1.1639153206445025,A,2219,Correct
2,relearn,69,133,A,49.79542906768139,77.7126649023604,2.4897714533840696,1.220707685740704,A,912,Correct
2,relearn,69,134,B,36.90871606445914,12.230021257804733,1.8454358032229572,0.19210872468383175,B,832,Correct
2,relearn,69,135,B,88.36243381556072,64.76364175628557,4.418121690778036,1.0173049058063395,B,942,Correct
2,relearn,69,136,B,69.89903010471387,54.830673785968685,3.4949515052356936,0.8612782097868883,B,969,Correct
2,relearn,69,137,A,14.439830710109337,33.09102773456462,0.7219915355054668,0.5197926481532215,A,586,Correct
2,relearn,69,138,A,55.292933358897194,83.99848855975597,2.76464666794486,1.3194451728598784,A,1124,Correct
2,relearn,69,139,A,58.579845974842314,79.39065783547301,2.928992298742116,1.247065537097915,A,827,Correct
2,relearn,69,140,A,27.792959800910747,39.84078035309858,1.3896479900455372,0.6258175143528953,A,762,Correct
2,relearn,69,141,B,64.40170906381529,55.91755246795337,3.2200854531907646,0.8783508602002205,B,852,Correct
2,relearn,69,142,A,52.765410112395536,80.11621196699157,2.6382705056197766,1.258462514744717,A,954,Correct
2,relearn,69,143,A,64.3583268491039,83.92305632769973,3.217916342455195,1.3182602861295192,A,2542,Correct
2,relearn,69,144,B,38.81285634216644,23.500992437234327,1.940642817108322,0.3691527259644232,B,1156,Correct
2,relearn,69,145,A,25.301946775038545,45.74496503448614,1.2650973387519273,0.7185602304553181,A,597,Correct
2,relearn,69,146,B,59.99177328835816,50.30893958904881,2.999588664417908,0.7902509751142424,B,2003,Correct
2,relearn,69,147,A,56.95051461165794,71.74173526282922,2.8475257305828965,1.1269165422874408,A,1353,Correct
2,relearn,69,148,B,46.545798045371605,38.189365532683944,2.3272899022685802,0.5998771510136757,B,2601,Correct
2,relearn,69,149,A,35.76626640585199,66.27990125874244,1.7883133202925992,1.0411222543756107,A,1046,Correct
2,relearn,69,150,B,36.72846394700097,21.079592370394934,1.8364231973500482,0.33111746265750086,B,786,Correct
2,relearn,69,151,A,55.10605265638538,68.17820242044188,2.7553026328192693,1.07094069929509,A,1630,Correct
2,relearn,69,152,B,51.638994518878604,36.367720836773174,2.58194972594393,0.5712628230430552,B,867,Correct
2,relearn,69,153,B,65.03399516957087,55.48562303601629,3.2516997584785434,0.871566128549007,B,1041,Correct
2,relearn,69,154,B,42.02769030284102,19.917819057212906,2.101384515142051,0.3128683701283542,B,1837,Correct
2,relearn,69,155,B,34.31206977480004,19.205762281415108,1.7156034887400018,0.3016834084494282,B,1014,Correct
2,relearn,69,156,B,53.49828675807306,45.24355327183865,2.674914337903653,0.7106840729055337,A,1403,Incorrect
2,relearn,69,157,B,72.50085370930506,53.218244584376045,3.6250426854652527,0.8359502311161029,B,761,Correct
2,relearn,69,158,B,58.212124199715475,34.27345364608784,2.910606209985774,0.5383661509384993,B,699,Correct
2,relearn,69,159,B,64.51268392611574,42.859301777881804,3.225634196305787,0.6732323380169072,B,1614,Correct
2,relearn,69,160,B,37.98300025382317,21.711599496419822,1.8991500126911587,0.34104500737818183,A,690,Incorrect
2,relearn,69,161,B,31.31246879711312,16.008101333011446,1.565623439855656,0.2514546677285487,B,1274,Correct
2,relearn,69,162,A,61.091987174123794,69.748829756981,3.0545993587061897,1.0956120558050833,A,1276,Correct
2,relearn,69,163,B,41.30110494415781,21.229542459788583,2.0650552472078902,0.333472873153722,B,1236,Correct
2,relearn,69,164,B,80.04403549583803,60.352108942429,4.002201774791902,0.9480087104109289,B,698,Correct
2,relearn,69,165,A,27.28005110444508,50.99439928829687,1.3640025552222539,0.8010181508916903,A,902,Correct
2,relearn,69,166,A,24.95658875221809,48.75579379665474,1.2478294376109045,0.7658542180575468,A,612,Correct
2,relearn,69,167,B,37.644628653812234,25.750575519700877,1.8822314326906116,0.4044890943920072,A,1587,Incorrect
2,relearn,69,168,B,31.99141930239921,13.650707605518527,1.5995709651199603,0.2144248136489966,B,4205,Correct
2,relearn,69,169,A,35.733905899749196,53.22133826539458,1.78669529498746,0.8359988265439048,A,776,Correct
2,relearn,69,170,A,38.27396600355931,59.16309171098633,1.9136983001779655,0.9293316714144692,A,1879,Correct
2,relearn,69,171,B,65.09666224520375,52.13951528077682,3.254833112260187,0.819005590839106,B,880,Correct
2,relearn,69,172,A,43.829610592629514,59.149803124608056,2.1914805296314754,0.9291229347877562,A,839,Correct
2,relearn,69,173,A,63.8626077753222,87.06470599270925,3.19313038876611,1.367609203668253,A,1514,Correct
2,relearn,69,174,B,46.86016410845595,24.192829706004257,2.343008205422797,0.3800200803696595,B,751,Correct
2,relearn,69,175,A,43.721391658454344,51.12404875252259,2.186069582922717,0.8030546799134571,B,640,Incorrect
2,relearn,69,176,B,49.50701817968104,35.921476919244505,2.475350908984052,0.5642532399779692,A,1991,Incorrect
2,relearn,69,177,A,24.74079416566645,52.662447442622124,1.2370397082833224,0.8272197900290013,A,638,Correct
2,relearn,69,178,B,47.276253942952486,33.72738391863347,2.3638126971476243,0.5297885077179072,B,1155,Correct
2,relearn,69,179,A,53.7504130005168,73.97416072391329,2.68752065002584,1.161983399428583,A,2030,Correct
2,relearn,69,180,A,38.03527407071896,49.659477697309576,1.9017637035359483,0.7800492515748698,A,792,Correct
2,relearn,69,181,A,28.904320335249878,43.65486823565337,1.445216016762494,0.6857290667127952,A,711,Correct
2,relearn,69,182,A,36.08381458587026,52.92715210875343,1.8041907292935127,0.8313777612014466,A,945,Correct
2,relearn,69,183,B,78.0947452086514,46.915085917096434,3.90473726043257,0.7369404462984205,B,720,Correct
2,relearn,69,184,B,40.5442476179813,23.430360638414548,2.0272123808990647,0.368043244263013,B,1003,Correct
2,relearn,69,185,A,41.48436971794366,55.540835921003534,2.0742184858971826,0.872433410518304,A,770,Correct
2,relearn,69,186,B,53.02337663256749,26.524641525530267,2.6511688316283744,0.4166480947785433,B,1564,Correct
2,relearn,69,187,A,47.84036812073169,75.59368243168132,2.3920184060365846,1.1874227869258491,A,876,Correct
2,relearn,69,188,A,49.04086663952969,64.41707763751825,2.4520433319764847,1.0118610893587534,A,1446,Correct
2,relearn,69,189,A,36.205298399780084,50.925049789105095,1.8102649199890042,0.799928811505735,A,1862,Correct
2,relearn,69,190,B,32.49163753815972,13.791763347987292,1.624581876907986,0.21664051207042923,B,741,Correct
2,relearn,69,191,A,34.47441734988694,53.596245210565044,1.7237208674943472,0.8418878510675413,A,773,Correct
2,relearn,69,192,B,71.54401615872848,53.27149288778275,3.577200807936424,0.836786653510096,B,2105,Correct
2,relearn,69,193,A,33.432318829636905,56.164160416782124,1.6716159414818452,0.882224568802007,A,838,Correct
2,relearn,69,194,A,17.009379626040324,37.79163275680901,0.8504689813020163,0.5936295791797728,A,672,Correct
2,relearn,69,195,B,41.51936717607792,27.74176764991063,2.0759683588038964,0.43576666723277113,B,864,Correct
2,relearn,69,196,B,57.32521220230705,39.418441968037286,2.8662606101153525,0.6191834385137076,B,2453,Correct
2,relearn,69,197,B,51.763227011111766,22.18206682334677,2.5881613505555885,0.3484350908683204,B,1245,Correct
2,relearn,69,198,B,40.85177817837591,29.14604408731469,2.0425889089187956,0.4578249899295602,A,1478,Incorrect
2,relearn,69,199,A,36.67997147451533,51.93568849654595,1.8339985737257662,0.8158038871993833,A,591,Correct
2,relearn,69,200,A,60.33664728527273,79.27061732564296,3.016832364263637,1.2451799451788383,B,1357,Incorrect
2,relearn,69,201,B,64.2220253259561,54.88896719043206,3.211101266297805,0.8621938804429626,A,1730,Incorrect
2,relearn,69,202,A,54.41879129447632,80.6859022350417,2.7209395647238157,1.2674111885493562,A,1229,Correct
2,relearn,69,203,B,64.84491028518774,38.37080054908722,3.2422455142593867,0.602727125586858,B,1701,Correct
2,relearn,69,204,B,49.98103759937014,38.49308081468898,2.499051879968507,0.6046478995073256,A,2222,Incorrect
2,relearn,69,205,A,42.87194137296233,56.70969396741677,2.1435970686481167,0.8907937897768097,A,994,Correct
2,relearn,69,206,B,67.10439592452505,48.67011061501615,3.355219796226253,0.7645083097876867,B,735,Correct
2,relearn,69,207,A,63.08728728926954,79.04649387577405,3.154364364463477,1.2416594222608117,A,860,Correct
2,relearn,69,208,A,11.07671986413835,36.07474083658826,0.5538359932069176,0.5666607039619069,A,1697,Correct
2,relearn,69,209,A,60.36586438206169,73.2470960446138,3.018293219103084,1.1505626941527236,A,1339,Correct
2,relearn,69,210,A,10.388811017284848,34.42134484573211,0.5194405508642425,0.5406892204701644,A,778,Correct
2,relearn,69,211,B,56.51089995887995,30.57937198645055,2.8255449979439975,0.48033965192011285,B,1772,Correct
2,relearn,69,212,B,77.5075382424019,52.04383714494591,3.875376912120095,0.8175026821959283,A,2032,Incorrect
2,relearn,69,213,A,48.1119415052535,76.18093416270298,2.405597075262675,1.1966473155457769,A,1143,Correct
2,relearn,69,214,A,21.639704890964513,36.40428851637755,1.0819852445482256,0.5718372268110749,A,1180,Correct
2,relearn,69,215,A,15.902145486536412,36.366495810046835,0.7951072743268206,0.5712435803682356,A,731,Correct
2,relearn,69,216,B,81.08283650389346,54.613278529958,4.054141825194673,0.8578633730908463,B,950,Correct
2,relearn,69,217,A,34.44591539637536,46.721192570781305,1.7222957698187682,0.7338947767366029,A,1639,Correct
2,relearn,69,218,A,62.627594372995944,88.29875333302661,3.131379718649797,1.386993573960868,A,1200,Correct
2,relearn,69,219,B,52.50184245349674,43.236589012066,2.625092122674837,0.6791587520329385,B,1369,Correct
2,relearn,69,220,B,31.968450387488126,11.270176979090891,1.5984225193744064,0.17703152601084376,B,1514,Correct
2,relearn,69,221,A,54.576213098718334,64.32241067950899,2.728810654935917,1.0103740642596555,A,1061,Correct
2,relearn,69,222,B,64.89092225887917,52.69970524829055,3.244546112943959,0.8278050342718853,A,2164,Incorrect
2,relearn,69,223,A,49.57969918317065,70.65832540345782,2.4789849591585327,1.1098983800123006,A,846,Correct
2,relearn,69,224,A,21.01588380883072,45.206513097080936,1.0507941904415359,0.7101022472010011,A,551,Correct
2,relearn,69,225,B,75.03618484533928,58.24600490921184,3.751809242266964,0.9149261056186747,B,1060,Correct
2,relearn,69,226,B,46.473141582203084,16.331905022240104,2.3236570791101543,0.2565409641849788,A,857,Incorrect
2,relearn,69,227,A,27.890528900041094,41.230099561203915,1.3945264450020547,0.6476408894412699,A,628,Correct
2,relearn,69,228,B,57.1583382478858,34.52717203478857,2.85791691239429,0.5423515500686136,A,962,Incorrect
2,relearn,69,229,B,74.62158212653198,63.748328846154095,3.7310791063265984,1.00135640790852,A,1031,Incorrect
2,relearn,69,230,B,62.33379712727584,33.497641330463416,3.116689856363792,0.5261797195818484,B,1286,Correct
2,relearn,69,231,B,77.65059016808468,48.80210140209029,3.882529508404234,0.7665816162227549,B,1002,Correct
2,relearn,69,232,B,70.65230169621974,50.589215396032614,3.532615084810987,0.7946535371952386,B,793,Correct
2,relearn,69,233,A,25.87797008182052,40.757193927281364,1.2938985040910262,0.6402125051144083,A,643,Correct
2,relearn,69,234,A,41.177053159272,55.82696768728327,2.0588526579636,0.8769279577928194,A,701,Correct
2,relearn,69,235,A,12.979837336413105,40.50543331676574,0.6489918668206553,0.6362578586921125,A,572,Correct
2,relearn,69,236,A,65.96377017456291,84.21879578022404,3.2981885087281455,1.3229057505866546,A,839,Correct
2,relearn,69,237,B,38.44534421801318,12.254596558146886,1.9222672109006593,0.19249475259890508,B,1267,Correct
2,relearn,69,238,B,68.4056336048101,44.0170464863827,3.420281680240505,0.6914181493717014,B,1139,Correct
2,relearn,69,239,B,62.97443514973514,29.922770850582054,3.148721757486757,0.47002578539619694,B,1982,Correct
2,relearn,69,240,A,41.43584296355398,59.08719791016146,2.071792148177699,0.928139534378847,A,634,Correct
2,relearn,69,241,B,31.28907072143603,12.809321165884118,1.5644535360718015,0.20120834636106896,B,1133,Correct
2,relearn,69,242,A,22.598466111903125,49.73663542687683,1.1299233055951563,0.7812612423567505,A,720,Correct
2,relearn,69,243,A,39.97313495185692,49.200064033712195,1.998656747592846,0.7728327986222883,A,1728,Correct
2,relearn,69,244,A,28.65912881181754,58.40265947272068,1.432956440590877,0.9173868297480281,A,718,Correct
2,relearn,69,245,A,15.924838326809454,30.735118110615797,0.7962419163404726,0.482786106317626,A,724,Correct
2,relearn,69,246,B,77.91188781194231,46.426996367494965,3.895594390597115,0.729273553581811,B,762,Correct
2,relearn,69,247,A,20.32837098149963,37.38733122566241,1.0164185490749815,0.5872788255793464,A,598,Correct
2,relearn,69,248,A,15.410773040491389,42.42511511575496,0.7705386520245695,0.6664121498767854,A,636,Correct
2,relearn,69,249,A,45.946231009613626,68.6145604865464,2.297311550480681,1.0777949957691333,A,1075,Correct
2,relearn,69,250,A,63.32531531576467,86.75598318821952,3.1662657657882334,1.36275979719535,B,855,Incorrect
2,relearn,69,251,A,39.15200378898945,60.36070655157632,1.9576001894494723,0.9481437613396072,A,1280,Correct
2,relearn,69,252,B,64.59271669845083,45.08443262143433,3.2296358349225414,0.7081846115738106,B,1122,Correct
2,relearn,69,253,A,31.12376179615478,61.17502178335073,1.5561880898077391,0.9609349950888512,A,537,Correct
2,relearn,69,254,B,79.94561491681449,56.79151144026821,3.9972807458407247,0.8920789756350364,B,1140,Correct
2,relearn,69,255,A,34.36465319374806,62.16218120223367,1.7182326596874031,0.9764412589802741,A,1325,Correct
2,relearn,69,256,A,43.26714951847542,54.96228820475316,2.163357475923771,0.8633456042426874,A,730,Correct
2,relearn,69,257,B,47.53808374695659,37.79881420427669,2.3769041873478294,0.5937423850928057,A,2454,Incorrect
2,relearn,69,258,A,53.755359606853446,78.12590612704028,2.6877679803426724,1.2271988637187778,A,1237,Correct
2,relearn,69,259,A,48.48737366077684,58.66254184541248,2.424368683038842,0.9214690525122584,A,996,Correct
2,relearn,69,260,A,55.92170125780957,83.55782746413807,2.7960850628904783,1.3125232845562982,A,862,Correct
2,relearn,69,261,A,59.51685423672479,72.58577890679206,2.97584271183624,1.1401747488433545,B,1014,Incorrect
2,relearn,69,262,A,20.523090481884417,50.93666420583267,1.026154524094221,0.8001112503370704,A,635,Correct
2,relearn,69,263,A,48.12625655746229,62.47720300852374,2.4063128278731143,0.9813896099420815,A,683,Correct
2,relearn,69,264,B,64.39159013072667,41.08909806936241,3.2195795065363337,0.6454260431866975,B,1620,Correct
2,relearn,69,265,B,55.44827500706297,41.761244759525695,2.7724137503531483,0.6559840987064559,B,938,Correct
2,relearn,69,266,A,33.69663339529454,43.126509272241066,1.6848316697647272,0.6774296235232232,A,1240,Correct
2,relearn,69,267,B,77.45939873512475,64.43202027307942,3.8729699367562374,1.0120958077292743,B,1143,Correct
2,relearn,69,268,A,17.162294348406366,32.00980367713133,0.8581147174203183,0.5028088203746367,A,628,Correct
2,relearn,69,269,B,71.96389652991806,55.65418887123943,3.598194826495903,0.8742139544969231,B,1003,Correct
2,relearn,69,270,B,40.611892793103436,21.03359358628339,2.0305946396551717,0.33039491544630645,B,2090,Correct
2,relearn,69,271,A,29.374557890179275,50.83503231631428,1.468727894508964,0.7985148203496634,A,567,Correct
2,relearn,69,272,A,39.71602042608331,47.48801495002395,1.9858010213041655,0.7459399945027875,A,1692,Correct
2,relearn,69,273,B,51.341911458252035,36.243294000448465,2.567095572912602,0.5693083308685197,B,1620,Correct
2,relearn,69,274,A,33.735830771852626,53.44629514643202,1.6867915385926313,0.8395324409681133,A,1039,Correct
2,relearn,69,275,B,71.9270045241567,41.36552219084214,3.596350226207835,0.6497681031332762,B,823,Correct
2,relearn,69,276,A,29.121456340588303,47.533422956388726,1.4560728170294153,0.7466532617988362,A,887,Correct
2,relearn,69,277,B,44.158911127864,30.635045299233013,2.2079455563932,0.48121416627230484,B,1463,Correct
2,relearn,69,278,A,22.393920742206497,50.14430624803308,1.1196960371103248,0.7876649206408874,A,671,Correct
2,relearn,69,279,B,62.42858281016978,36.668925563167264,3.121429140508489,0.5759941358213863,B,1309,Correct
2,relearn,69,280,A,45.698684839959355,60.24658855574813,2.2849342419979677,0.9463512000529262,A,725,Correct
2,relearn,69,281,B,72.83874751718807,51.79659284338281,3.641937375859403,0.8136189777887655,B,892,Correct
2,relearn,69,282,B,43.03305290046797,14.138145507944813,2.1516526450233986,0.22208147031571482,B,1048,Correct
2,relearn,69,283,B,72.84818272385735,50.46764093783976,3.6424091361928674,0.7927438500716245,B,786,Correct
2,relearn,69,284,B,43.87215242402285,19.69187648671295,2.1936076212011426,0.30931927253027497,B,1440,Correct
2,relearn,69,285,B,37.27933703573119,13.315005682857088,1.8639668517865595,0.2091516201788509,B,1233,Correct
2,relearn,69,286,A,16.778727389323738,38.011806664529956,0.8389363694661869,0.5970880628348143,A,1024,Correct
2,relearn,69,287,B,59.89678919102829,34.112960724816034,2.9948394595514145,0.535845134026396,A,3875,Incorrect
2,relearn,69,288,A,18.100219368103346,44.74447263615122,0.9050109684051674,0.7028445326124111,A,751,Correct
2,relearn,69,289,B,48.96353412481294,19.105611541033255,2.448176706240647,0.30011024429825217,B,1030,Correct
2,relearn,69,290,B,54.22056157686823,31.94209758746309,2.711028078843411,0.5017452956051115,B,3316,Correct
2,relearn,69,291,A,26.997961658591354,42.61008532884385,1.3498980829295677,0.6693176551896504,A,1100,Correct
2,relearn,69,292,A,15.168060487858071,32.487916814223134,0.7584030243929035,0.5103190039699985,A,618,Correct
2,relearn,69,293,A,63.94936002355873,77.97770663634599,3.1974680011779366,1.2248709515626228,A,2071,Correct
2,relearn,69,294,A,57.20706394973103,73.73128623921286,2.8603531974865515,1.1581683359441866,A,1331,Correct
2,relearn,69,295,B,48.9450971831757,27.05335726904156,2.447254859158785,0.42495314225680497,B,759,Correct
2,relearn,69,296,B,48.72186566208315,41.424133935158146,2.436093283104157,0.6506887742600623,A,2167,Incorrect
2,relearn,69,297,A,20.016931263377778,44.007955179301504,1.000846563168889,0.6912753434540124,A,784,Correct
2,relearn,69,298,A,64.2144786703461,82.41011679866503,3.210723933517305,1.2944950875808143,A,1408,Correct
2,relearn,69,299,B,82.3583064046689,63.2243382172152,4.117915320233445,0.9931255823563983,B,855,Correct
2,relearn,69,300,B,70.28879975024522,46.06283485511067,3.514439987512261,0.7235533179216777,B,1267,Incorrect
2,relearn,69,301,B,32.351926510020164,15.40973581022368,1.6175963255010084,0.24205556407579135,A,1208,Incorrect
2,relearn,69,302,B,57.558480976244866,48.64922745227319,2.8779240488122433,0.7641802778344017,A,2883,Incorrect
2,relearn,69,303,A,21.779663303102048,40.48189617966896,1.0889831651551023,0.6358881382071635,A,696,Correct
2,relearn,69,304,B,67.40788044413559,57.515387673010025,3.370394022206779,0.9034495969094861,A,1247,Correct
2,relearn,69,305,A,21.326125971227608,40.6697488570597,1.0663062985613805,0.6388389211634032,A,665,Correct
2,relearn,69,306,A,65.57967805538333,88.1604802458856,3.2789839027691663,1.3848215853871113,A,988,Correct
2,relearn,69,307,B,56.15430647472925,28.735541821208997,2.8077153237364625,0.4513768354121623,B,1108,Correct
2,relearn,69,308,A,61.28647510844595,72.4116480869551,3.0643237554222975,1.1374395083215378,A,1376,Correct
2,relearn,69,309,B,68.75463795212788,43.14135523812582,3.437731897606394,0.677662823410018,B,624,Correct
2,relearn,69,310,B,61.969286072378345,30.87060345667236,3.0984643036189174,0.4849143051568278,B,1656,Correct
2,relearn,69,311,B,37.84810851885612,23.616793423999166,1.892405425942806,0.37097172361091757,A,703,Incorrect
2,relearn,69,312,B,68.81086257623063,45.8427445087834,3.440543128811532,0.7200961468459387,A,964,Incorrect
2,relearn,69,313,A,20.20926574113214,37.380625124660355,1.010463287056607,0.5871734863911351,A,611,Incorrect
2,relearn,69,314,B,85.89709853571368,59.56440331999275,4.294854926785684,0.9356354594277437,B,1200,Incorrect
2,relearn,69,315,B,30.95251388021216,11.608856580201007,1.5476256940106081,0.18235149274468507,B,1353,Correct
2,relearn,69,316,B,45.98420696286633,38.059462595136544,2.2992103481433164,0.5978366404422825,B,1454,Correct
2,relearn,69,317,B,77.355240000643,58.39248756025378,3.8677620000321498,0.9172270497206332,B,1238,Correct
2,relearn,69,318,A,19.8554015038807,35.85553342473984,0.9927700751940349,0.5632174019885297,A,996,Incorrect
2,relearn,69,319,A,50.37092963502438,73.34378963857316,2.518546481751219,1.152081553574883,A,2705,Correct
2,relearn,69,320,B,69.92264569079553,58.22679385192245,3.496132284539777,0.9146243390364346,B,994,Correct
2,relearn,69,321,A,37.65743065892962,54.221709927492434,1.8828715329464811,0.851712627866435,A,1049,Correct
2,relearn,69,322,B,44.68002851456085,16.375833472076053,2.2340014257280427,0.25723099066141986,B,1273,Correct
2,relearn,69,323,A,65.94687027124509,87.35841022554509,3.297343513562254,1.3722226989692794,A,1277,Incorrect
2,relearn,69,324,B,79.08187202284445,60.055809972681956,3.9540936011422225,0.9433544570778114,B,1293,Correct
2,relearn,69,325,A,46.46021964278042,54.54124509965036,2.3230109821390212,0.8567318746135094,A,1123,Incorrect
2,relearn,69,326,A,40.24484911542073,53.28004113447191,2.012242455771036,0.8369209290550946,A,1709,Incorrect
2,relearn,69,327,A,21.198610150410364,42.44960515138389,1.059930507520518,0.6667968384568753,A,886,Correct
2,relearn,69,328,B,79.83716535369366,48.33266973774901,3.991858267684683,0.7592078008824699,B,978,Correct
2,relearn,69,329,B,42.57726173722182,17.471282540031734,2.1288630868610907,0.27443826438277663,B,878,Correct
2,relearn,69,330,A,56.88890748259323,85.99165251770151,2.8444453741296614,1.3507537190982866,A,1137,Correct
2,relearn,69,331,B,69.94008712639081,53.64760266557916,3.4970043563195405,0.8426945720844383,B,883,Correct
2,relearn,69,332,A,57.115707408495524,81.47258152011142,2.8557853704247758,1.279768317862888,A,722,Incorrect
2,relearn,69,333,B,81.03833208434,63.87149702450398,4.051916604217,1.00329112912982,B,1000,Incorrect
2,relearn,69,334,A,47.18923226338863,75.60438890660282,2.3594616131694317,1.1875909638406454,A,1242,Correct
2,relearn,69,335,B,66.30282777671633,35.002309713218075,3.315141388835816,0.5498149952686028,B,2469,Correct
2,relearn,69,336,A,53.40688843373046,67.82695333561345,2.6703444216865226,1.0654232915727047,A,804,Correct
2,relearn,69,337,A,45.242447177214494,59.39991574389749,2.262122358860725,0.9330516946244051,A,1358,Correct
2,relearn,69,338,B,36.87342542318235,15.53357990903664,1.8436712711591172,0.24400090263089755,B,2122,Incorrect
2,relearn,69,339,A,63.995822521820585,83.27525690130878,3.199791126091029,1.3080846765347718,A,1088,Incorrect
2,relearn,69,340,A,20.231474447295838,34.06471412787687,1.0115737223647918,0.535087278253872,B,1668,Correct
2,relearn,69,341,A,41.113496661374384,66.19191168646321,2.055674833068719,1.0397401174062861,A,921,Correct
2,relearn,69,342,B,60.49184263491572,39.750357485466054,3.024592131745786,0.624397155269541,B,975,Correct
2,relearn,69,343,B,55.59494435572239,34.510505169315785,2.7797472177861198,0.5420897475579753,B,886,Correct
2,relearn,69,344,B,39.10195277088589,22.395085983320055,1.9550976385442942,0.3517811880085502,B,977,Correct
2,relearn,69,345,B,69.48792344937219,60.41140339807732,3.4743961724686097,0.948940105542246,B,1811,Correct
2,relearn,69,346,A,64.89802974515044,78.72364863622826,3.244901487257522,1.2365881810967942,A,3075,Correct
2,relearn,69,347,B,34.15866277662397,10.268086945558363,1.7079331388311985,0.16129073257293705,B,1282,Correct
2,relearn,69,348,A,51.5765415553436,60.57194895443734,2.5788270777671802,0.9514619492443815,A,1329,Correct
2,relearn,69,349,A,14.747810217379541,42.30638071316234,0.737390510868977,0.6645470742422186,A,802,Correct
2,relearn,69,350,A,22.902947017407257,53.92503549788544,1.145147350870363,0.8470524768236285,A,1047,Incorrect
2,relearn,69,351,A,60.32877770601499,68.71062927435268,3.0164388853007496,1.079304040759191,A,998,Correct
2,relearn,69,352,B,68.44188574782231,40.628722459614295,3.4220942873911158,0.6381944800193144,B,867,Incorrect
2,relearn,69,353,B,49.20955456747647,39.00464195733566,2.460477728373823,0.6126834831453295,B,6111,Correct
2,relearn,69,354,A,19.560588794193837,43.278167194671184,0.9780294397096918,0.6798118605980488,A,954,Correct
2,relearn,69,355,A,44.80293235031792,68.51706296657503,2.240146617515896,1.076263508306707,A,1734,Incorrect
2,relearn,69,356,A,23.810791435535894,35.539697619516076,1.1905395717767946,0.5582562647613719,B,1492,Correct
2,relearn,69,357,B,86.18512188775875,65.12963895164896,4.309256094387938,1.02305397630728,B,859,Correct
2,relearn,69,358,B,63.97894229980333,34.79782266860693,3.1989471149901663,0.5466029202830796,B,1252,Correct
2,relearn,69,359,B,79.04285114438954,47.28038051195197,3.952142557219477,0.7426784803763916,B,659,Correct
2,relearn,69,360,A,22.87724184230647,43.890784443338646,1.1438620921153235,0.6894348298374293,A,976,Correct
2,relearn,69,361,B,71.48377618816455,53.813355802380315,3.5741888094082275,0.8452982162688584,B,772,Incorrect
2,relearn,69,362,A,61.576594289979795,82.51120134175164,3.0788297144989896,1.2960829198705761,A,892,Correct
2,relearn,69,363,A,50.49762563650046,63.574828808238486,2.524881281825023,0.9986310756859538,A,1618,Correct
2,relearn,69,364,A,51.1671621983392,80.29670778300155,2.55835810991696,1.26129773639262,A,614,Incorrect
2,relearn,69,365,B,70.81755043985396,41.83267221326309,3.540877521992698,0.657106078526086,B,995,Incorrect
2,relearn,69,366,B,35.236862036402755,24.87490387865637,1.7618431018201377,0.3907340764196955,B,6926,Correct
2,relearn,69,367,A,17.641701392925246,32.293921853781185,0.8820850696462622,0.5072717382572092,A,1198,Correct
2,relearn,69,368,B,56.320304636469515,45.331802424492004,2.816015231823476,0.7120702873538403,B,2043,Correct
2,relearn,69,369,B,38.649307830936266,17.169483719573115,1.9324653915468133,0.2696976195967023,B,1751,Correct
2,relearn,69,370,B,71.27322521093228,44.23271207686863,3.5636612605466143,0.6948058165452151,B,1709,Incorrect
2,relearn,69,371,A,53.09629865099214,63.007633566266485,2.654814932549607,0.9897215936593023,A,703,Incorrect
2,relearn,69,372,A,11.769011305788013,33.83633046207621,0.5884505652894007,0.5314998360204758,A,619,Correct
2,relearn,69,373,B,59.554535169409675,42.52079955604077,2.977726758470484,0.6679151575501092,A,2345,Correct
2,relearn,69,374,B,61.24102940063077,44.58756799793825,3.0620514700315384,0.7003798803187908,A,1432,Incorrect
2,relearn,69,375,B,67.79404622291477,36.68856322242913,3.3897023111457383,0.5763026034517402,B,820,Correct
2,relearn,69,376,B,79.13165837900486,55.13498585049214,3.956582918950243,0.8660583325184166,B,3413,Correct
2,relearn,69,377,A,32.24205583131771,54.567424375991976,1.6121027915658854,0.8571430977246649,A,1145,Correct
2,relearn,69,378,A,42.92996968094337,53.08745075455231,2.146498484047169,0.8338957264415572,A,1718,Incorrect
2,relearn,69,379,A,14.696276656553305,38.698647900068934,0.7348138328276653,0.6078769397335732,A,701,Incorrect
2,relearn,69,380,B,42.06418385333609,13.951911449965866,2.1032091926668044,0.21915611257374043,B,1034,Correct
2,relearn,69,381,B,83.14714720707946,67.27011331069052,4.157357360353973,1.0566764689150916,A,1973,Incorrect
2,relearn,69,382,B,68.9631855746903,51.600857130245174,3.4481592787345154,0.8105443683965737,B,1002,Incorrect
2,relearn,69,383,B,40.47451528677239,31.034341861205853,2.0237257643386193,0.4874863020007925,A,4779,Incorrect
2,relearn,69,384,A,27.521856254552183,43.552425858169215,1.376092812727609,0.6841199056101928,A,884,Correct
2,relearn,69,385,A,30.292435880549046,56.22644375695433,1.5146217940274522,0.883202913221637,A,628,Incorrect
2,relearn,69,386,A,48.9658559562467,64.32798065818625,2.4482927978123348,1.0104615572801212,B,4627,Correct
2,relearn,69,387,A,28.185729179884902,60.27630361568734,1.409286458994245,0.9468179631229561,A,1220,Correct
2,relearn,69,388,B,40.765665732233174,24.13722258638338,2.0382832866116587,0.37914660577721826,B,1490,Correct
2,relearn,69,389,B,69.5412268416064,42.23024401089585,3.4770613420803205,0.6633511217196738,B,756,Incorrect
2,relearn,69,390,B,84.80335952860415,62.24425813340122,4.240167976430207,0.9777305204002,A,957,Incorrect
2,relearn,69,391,B,44.61737566260664,20.36394125982843,2.2308687831303318,0.31987604130005537,B,2297,Incorrect
2,relearn,69,392,B,71.2630644098228,50.72913145996227,3.56315322049114,0.7968513335880415,B,1259,Correct
2,relearn,69,393,A,37.30222801677402,69.84366592645841,1.865111400838701,1.0971017388717075,A,1066,Correct
2,relearn,69,394,B,30.84833451406162,13.178154545682922,1.5424167257030807,0.207001967542942,B,1119,Correct
2,relearn,69,395,B,46.31791518236916,22.594492273453326,2.315895759118458,0.3549134546893616,B,1333,Correct
2,relearn,69,396,A,48.58420790861993,57.404925084851804,2.4292103954309967,0.9017144546322143,B,928,Incorrect
2,relearn,69,397,B,59.74392660447745,29.669000038400284,2.9871963302238727,0.4660395627999681,B,1195,Incorrect
2,relearn,69,398,A,36.17105997393771,52.905392527126864,1.8085529986968853,0.8310359624925305,A,1201,Incorrect
2,relearn,69,399,B,88.06381531103126,66.52099385597985,4.403190765551563,1.0449093280371904,B,672,Correct
2,relearn,69,400,A,31.64223523985345,48.906771397852296,1.5821117619926723,0.768225768671441,A,3274,Incorrect
2,relearn,69,401,B,64.98590312043615,43.90316023881819,3.2492951560218075,0.6896292283782336,B,687,Correct
2,relearn,69,402,A,50.38408187956208,76.6941659317088,2.519204093978104,1.2047091413212647,A,1213,Correct
2,relearn,69,403,B,72.69303128405782,56.468930336787636,3.6346515642028914,0.8870118835106292,B,676,Incorrect
2,relearn,69,404,B,52.14834493997255,36.49520832647771,2.6074172469986276,0.573265391848457,B,1090,Correct
2,relearn,69,405,B,88.19791158464913,68.24719626220386,4.409895579232457,1.0720244520272024,A,915,Correct
2,relearn,69,406,B,79.72103698947826,51.55570808693409,3.9860518494739132,0.8098351688826602,A,652,Incorrect
2,relearn,69,407,B,55.22818617637211,30.679331211359965,2.761409308818606,0.4819098077532826,B,735,Correct
2,relearn,69,408,A,49.77525805174946,59.15326113723615,2.488762902587473,0.9291772531230985,A,869,Correct
2,relearn,69,409,A,40.791092690140985,71.17137635626122,2.0395546345070494,1.1179573655335229,A,641,Correct
2,relearn,69,410,A,66.61444537525199,86.2130085295847,3.3307222687625995,1.3542307712020873,A,799,Incorrect
2,relearn,69,411,A,58.547295484174725,76.8290856146217,2.927364774208736,1.206828454744584,A,1505,Correct
2,relearn,69,412,A,38.80881371794679,47.719818369828005,1.9404406858973398,0.7495811541064545,B,1778,Correct
2,relearn,69,413,B,67.44560791004653,50.28581391212004,3.372280395502327,0.7898877178304987,B,1466,Incorrect
2,relearn,69,414,A,29.97754679782144,59.445763842172894,1.498877339891072,0.9337718748680206,A,2072,Incorrect
2,relearn,69,415,A,37.71669858516589,55.058526316418806,1.8858349292582943,0.864857308965708,B,6502,Incorrect
2,relearn,69,416,B,68.92513973698779,51.45477880532816,3.4462569868493893,0.8082497754345337,A,2153,Incorrect
2,relearn,69,417,B,58.45683879503457,38.94964230389947,2.9228419397517285,0.6118195506094041,B,550,Correct
2,relearn,69,418,B,47.4991395940805,19.176749209412993,2.374956979704025,0.3012276721801287,B,1653,Incorrect
2,relearn,69,419,B,73.28602448614123,53.57147562223769,3.6643012243070614,0.8414987712839331,A,943,Correct
2,relearn,69,420,A,33.920674742946105,41.91880666692644,1.6960337371473053,0.6584590753603348,A,2335,Correct
2,relearn,69,421,B,71.99616598129799,43.22103374774854,3.5998082990648994,0.6789144105124167,B,784,Incorrect
2,relearn,69,422,A,31.663724962937334,53.520395421159186,1.5831862481468668,0.8406964053616724,A,1003,Correct
2,relearn,69,423,A,25.54205832850151,55.84590133840918,1.2771029164250756,0.8772253668892332,A,582,Correct
2,relearn,69,424,A,40.71390093565895,54.17493103867953,2.0356950467829473,0.8509778267992464,A,952,Incorrect
2,relearn,69,425,B,80.33645323154326,57.044799738415975,4.016822661577163,0.896057618918543,B,707,Correct
2,relearn,69,426,A,15.665827807552613,45.40670410715417,0.7832913903776307,0.7132468402338051,A,588,Correct
2,relearn,69,427,A,52.92810021663709,78.45813037248976,2.646405010831854,1.2324174299630204,A,837,Incorrect
2,relearn,69,428,B,38.676059715331036,28.58317519610432,1.9338029857665517,0.4489834660617567,B,971,Correct
2,relearn,69,429,B,51.825186497230845,39.49061326579462,2.591259324861542,0.6203171026078801,B,705,Correct
2,relearn,69,430,A,41.09403151285748,57.99221604264213,2.054701575642874,0.9109395994247833,A,919,Incorrect
2,relearn,69,431,B,72.2610758655359,52.519214246938034,3.6130537932767948,0.8249698882524448,B,602,Correct
2,relearn,69,432,B,52.295033361122414,24.109888260716495,2.6147516680561207,0.3787172391936886,B,701,Correct
2,relearn,69,433,B,80.59819029772092,57.10789912191893,4.029909514886046,0.8970487817168376,B,2386,Correct
2,relearn,69,434,B,46.869960124024274,29.76433774830256,2.3434980062012136,0.46753712404516345,B,1074,Incorrect
2,relearn,69,435,B,47.06253064213436,16.745241183990146,2.3531265321067183,0.2630336334310635,B,1432,Incorrect
2,relearn,69,436,B,79.6305932880498,67.44604057240288,3.9815296644024896,1.0594399278799,B,3293,Incorrect
2,relearn,69,437,B,85.77100111795342,66.74393867142655,4.28855005589767,1.0484113370090067,A,497,Correct
2,relearn,69,438,A,31.586758243873735,51.02737414493462,1.5793379121936868,0.8015361187285219,A,628,Correct
2,relearn,69,439,B,77.78712913053322,63.35412926318269,3.889356456526661,0.9951643353389645,A,454,Incorrect
2,relearn,69,440,A,27.102879320244632,45.46770287586507,1.3551439660122315,0.7142050066521062,A,767,Incorrect
2,relearn,69,441,B,70.28729745123199,42.73233265900445,3.5143648725616,0.6712379117614178,B,562,Correct
2,relearn,69,442,A,29.505041520618825,39.76069283133904,1.475252076030941,0.6245595025028753,B,498,Incorrect
2,relearn,69,443,A,50.17828613784228,75.39573987406955,2.5089143068921143,1.1843135125017197,B,406,Incorrect
2,relearn,69,444,A,49.25258697787306,78.469282466228,2.462629348893653,1.2325926066418214,A,978,Correct
2,relearn,69,445,A,43.279803625545924,71.07839832000383,2.1639901812772964,1.1164968699552655,A,602,Correct
2,relearn,69,446,B,39.77371596587399,20.069740813644042,1.9886857982936994,0.3152547514979768,B,624,Incorrect
2,relearn,69,447,B,65.59510754046697,54.45875648654039,3.2797553770233487,0.8554361465087539,A,816,Incorrect
2,relearn,69,448,B,78.86787236475496,52.22622428529888,3.9433936182377476,0.8203676126971391,A,711,Incorrect
2,relearn,69,449,A,31.83404362253224,56.75672736269827,1.5917021811266119,0.8915325886222584,B,719,Incorrect
2,relearn,69,450,B,67.21598749657116,39.472767935201155,3.360799374828558,0.6200367888104136,A,760,Incorrect
2,relearn,69,451,A,40.18763543862497,61.65456705365116,2.0093817719312486,0.9684676745800488,A,750,Correct
2,relearn,69,452,A,22.28124480428205,46.986316109319304,1.1140622402141025,0.7380593275414264,A,641,Incorrect
2,relearn,69,453,A,62.00497102219852,75.59964144862005,3.100248551109926,1.187516390945036,B,666,Incorrect
2,relearn,69,454,B,57.024353060441015,31.18218222691937,2.8512176530220508,0.4898085730349405,A,278,Correct
2,relearn,69,455,A,22.746740334590633,36.915309320885164,1.1373370167295318,0.5798643228374384,A,801,Incorrect
2,relearn,69,456,A,45.451127678294085,66.40420265513015,2.2725563839147043,1.0430747761442236,B,787,Incorrect
2,relearn,69,457,A,67.79831644483549,88.16406885548884,3.389915822241775,1.384877955134942,A,1255,Correct
2,relearn,69,458,A,47.53832309981534,58.464249268716365,2.376916154990767,0.9183542800012088,A,1375,Incorrect
2,relearn,69,459,A,59.82122184725554,73.00729282447266,2.9910610923627767,1.1467958739792106,A,692,Correct
2,relearn,69,460,A,68.45290848238871,82.73100276496764,3.4226454241194353,1.2995355525526961,A,690,Correct
2,relearn,69,461,A,42.702268154140796,67.21211635945332,2.1351134077070397,1.0557654549354043,A,1863,Correct
2,relearn,69,462,A,45.04321805540804,76.323031950108,2.252160902770402,1.198879382370792,A,777,Incorrect
2,relearn,69,463,A,27.84128958959229,38.20499744407627,1.3920644794796144,0.6001226965036341,B,993,Incorrect
2,relearn,69,464,B,67.22682357827675,46.937509434989366,3.361341178913838,0.7372926740938208,A,924,Incorrect
2,relearn,69,465,B,76.56402504281733,63.75497867839006,3.8282012521408664,1.0014608632290207,B,658,Correct
2,relearn,69,466,B,62.36549337449541,54.43866058284019,3.11827466872477,0.855120480791595,B,595,Correct
2,relearn,69,467,B,82.47145789686451,59.49461440784893,4.1235728948432255,0.9345392177592782,B,772,Correct
2,relearn,69,468,B,47.94508473778036,17.77996922043861,2.397254236889018,0.27928710341991286,B,1148,Correct
2,relearn,69,469,A,28.414630243629176,53.70443132084586,1.4207315121814588,0.8435872345139348,A,625,Incorrect
2,relearn,69,470,B,78.79737031080131,66.64746466493847,3.9398685155400655,1.04689592685878,B,894,Incorrect
2,relearn,69,471,A,69.69375813678897,84.8673224608965,3.4846879068394485,1.3330927838649425,A,777,Incorrect
2,relearn,69,472,B,42.309408796077406,19.668171803580936,2.1154704398038704,0.30894692023835885,A,1980,Incorrect
2,relearn,69,473,B,42.11894827412523,22.156302190137563,2.1059474137062613,0.34803038095625805,B,206,Correct
2,relearn,69,474,A,18.999351612886272,45.30758346199282,0.9499675806443136,0.7116898567805153,B,523,Incorrect
2,relearn,69,475,B,52.93012516508578,46.09707754640237,2.646506258254289,0.7240912008586834,A,668,Correct
2,relearn,69,476,B,62.69904420243224,32.84477767092697,3.1349522101216123,0.5159245611988712,A,527,Incorrect
2,relearn,69,477,A,53.164740795798366,64.14640994979288,2.658237039789918,1.0076094512621427,B,345,Incorrect
2,relearn,69,478,A,52.713113074245534,82.55423576935979,2.6356556537122766,1.2967589030787021,A,899,Incorrect
2,relearn,69,479,B,58.177017038406454,34.39169328019901,2.9088508519203224,0.5402234547679332,B,276,Incorrect
2,relearn,69,480,B,80.95092356921764,62.7142609171683,4.047546178460882,0.9851133068634471,B,285,Incorrect
2,relearn,69,481,A,20.394904581387813,37.913028126671236,1.0197452290693905,0.5955364531904677,B,270,Incorrect
2,relearn,69,482,B,45.081283469614945,26.937480512382695,2.2540641734807476,0.42313295441959853,A,250,Incorrect
2,relearn,69,483,A,46.80447217332074,77.69981867890846,2.340223608666037,1.2205058977345888,A,265,Correct
2,relearn,69,484,B,71.62710354601114,55.669590309228404,3.581355177300557,0.8744558797191274,A,416,Incorrect
2,relearn,69,485,A,34.71319327097609,52.25271194678838,1.7356596635488046,0.82078367991087,B,3416,Incorrect
2,relearn,69,486,B,66.97891649929036,50.2869829373723,3.348945824964518,0.7899060808362205,A,1918,Incorrect
2,relearn,69,487,B,62.569680378264344,33.36350674415812,3.128484018913217,0.5240727384272034,B,756,Incorrect
2,relearn,69,488,B,67.58899115858904,53.53002014979738,3.3794495579294517,0.8408475902455853,A,1025,Incorrect
2,relearn,69,489,A,57.88862338726526,68.36342511370621,2.894431169363263,1.0738501705572772,A,617,Incorrect
2,relearn,69,490,A,42.548845112359885,71.25288499161077,2.127442255617994,1.1192377001836142,B,533,Incorrect
2,relearn,69,491,B,62.972265149657865,47.16172582410902,3.1486132574828933,0.7408146568981846,A,381,Incorrect
2,relearn,69,492,B,67.38117459772981,53.71770690995477,3.3690587298864902,0.8437957669800179,A,1077,Correct
2,relearn,69,493,B,50.150500249401276,24.144295954824475,2.5075250124700634,0.3792577139888716,B,711,Incorrect
2,relearn,69,494,B,43.01283144655041,25.965529191787393,2.1506415723275207,0.40786557877745294,B,926,Correct
2,relearn,69,495,A,52.9574172151975,66.91156137030988,2.647870860759875,1.0510443482059406,A,655,Correct
2,relearn,69,496,B,78.03558250552027,65.54104530001044,3.9017791252760134,1.0295163321155434,A,713,Incorrect
2,relearn,69,497,B,63.287339505243885,52.92427238671427,3.164366975262194,0.8313325266334336,B,520,Correct
2,relearn,69,498,B,33.58486819447659,20.77250124969641,1.6792434097238296,0.3262936866136552,B,1393,Incorrect
2,relearn,69,499,A,22.292551512403733,43.17084253662481,1.1146275756201867,0.6781260088117114,A,521,Correct
2,relearn,69,500,A,44.561316370582794,56.436456093554796,2.22806581852914,0.8865017792907732,A,791,Correct
2,relearn,69,501,B,83.83775120888383,68.41484788071922,4.191887560444192,1.0746579174926536,B,1503,Correct
2,relearn,69,502,A,28.95165312740142,58.53483924288184,1.4475826563700709,0.9194631047224855,B,1295,Incorrect
2,relearn,69,503,A,33.60391545544987,57.4008972330058,1.6801957727724937,0.9016511852833686,B,1035,Correct
2,relearn,69,504,B,62.99014238458867,42.373910540750245,3.1495071192294337,0.6656078302934604,B,628,Correct
2,relearn,69,505,A,59.0848816286951,84.15073853317111,2.954244081434755,1.3218367098498294,B,468,Correct
2,relearn,69,506,A,44.50687341844343,53.83187617060456,2.2253436709221717,0.8455891335326338,A,730,Incorrect
2,relearn,69,507,B,46.29007368774088,38.914654025656326,2.314503684387044,0.6112699560199518,B,314,Incorrect
2,relearn,69,508,A,16.414041832138683,35.46049127471224,0.8207020916069341,0.5570120944066046,B,1317,Incorrect
2,relearn,69,509,A,27.193222758776784,48.95706116579356,1.3596611379388392,0.7690157184990161,A,914,Correct
2,relearn,69,510,B,46.1652610493577,33.28099158123854,2.308263052467885,0.5227765932790138,B,1171,Correct
2,relearn,69,511,B,46.68548321901819,35.087502736412446,2.3342741609509092,0.5511532041476256,B,506,Incorrect
2,relearn,69,512,A,37.598121759436765,59.43210278215551,1.8799060879718383,0.9335572874390662,A,1006,Correct
2,relearn,69,513,A,46.50160608264863,61.40778061911418,2.3250803041324315,0.9645911623313138,A,832,Correct
2,relearn,69,514,B,48.863607746732384,20.363485185367608,2.443180387336619,0.3198688772991773,B,1241,Correct
2,relearn,69,515,A,56.57833696343792,72.66959504306739,2.828916848171896,1.1414913296332287,A,789,Incorrect
2,relearn,69,516,B,34.787508846162105,12.044363177058436,1.7393754423081051,0.18919241437107104,B,1021,Correct
2,relearn,69,517,B,38.56685128161304,15.565186422284729,1.928342564080652,0.2444973765800265,B,969,Correct
2,relearn,69,518,B,35.95492354339186,21.71015240784552,1.7977461771695928,0.3410222765640112,B,1087,Incorrect
2,relearn,69,519,A,58.93528280848639,71.3078211899957,2.9467641404243192,1.1201006359699255,A,1020,Correct
2,relearn,69,520,A,30.742336991852497,40.97860214286324,1.5371168495926246,0.6436903772319904,B,703,Incorrect
2,relearn,69,521,B,79.22955166696869,61.13310492579321,3.9614775833484344,0.9602765666300297,B,1108,Incorrect
2,relearn,69,522,A,33.43585269183532,56.58612153350789,1.6717926345917662,0.8888527185240379,A,767,Correct
2,relearn,69,523,B,71.50468892018982,61.478076412318245,3.575234446009491,0.9656953660688549,B,1165,Correct
2,relearn,69,524,A,38.152772484054324,69.46405843321915,1.9076386242027161,1.091138878311667,A,739,Correct
2,relearn,69,525,B,42.23763471140989,25.375214014690293,2.1118817355704946,0.3985929296590989,B,883,Incorrect
2,relearn,69,526,B,35.81505683270329,21.090639554451606,1.7907528416351648,0.3312909914188774,B,658,Incorrect
2,relearn,69,527,A,20.61635516720058,35.0873352803474,1.030817758360029,0.5511505737539067,A,593,Correct
2,relearn,69,528,B,55.77884649914564,35.8509140502166,2.788942324957282,0.5631448410231977,A,1602,Incorrect
2,relearn,69,529,B,68.96019115786035,50.65622123812675,3.4480095578930174,0.7957060625015913,B,636,Correct
2,relearn,69,530,B,60.2573381724781,33.246456474120635,3.0128669086239053,0.5222341170849509,B,817,Correct
2,relearn,69,531,A,28.056798433336375,37.76770946062773,1.4028399216668188,0.593253792922109,A,706,Correct
2,relearn,69,532,A,18.061438021248883,39.36910634910109,0.9030719010624441,0.6184084764236564,A,556,Correct
2,relearn,69,533,B,66.63583149305353,48.74774306636297,3.331791574652676,0.7657277574818434,B,602,Incorrect
2,relearn,69,534,B,61.0776468481399,50.02957648284024,3.053882342406995,0.785862749703498,A,703,Incorrect
2,relearn,69,535,B,73.0672010200754,45.16296749125485,3.6533600510037703,0.7094182344242045,B,421,Correct
2,relearn,69,536,B,47.71872181132047,36.119141570705324,2.3859360905660236,0.5673581490624878,B,706,Incorrect
2,relearn,69,537,A,34.1159763803456,54.827773671459184,1.7057988190172801,0.8612326548947002,A,761,Correct
2,relearn,69,538,B,56.65747249546869,37.84796286315321,2.8328736247734345,0.5945144104211071,B,1636,Correct
2,relearn,69,539,A,44.50810785906583,52.800570902038345,2.2254053929532915,0.8293894282559532,A,1248,Incorrect
2,relearn,69,540,B,78.22096126379054,63.32527153392584,3.911048063189527,0.9947110391878015,B,787,Correct
2,relearn,69,541,B,68.4534368718752,37.68888643132395,3.4226718435937595,0.5920156436731367,B,640,Correct
2,relearn,69,542,A,23.37283126024677,54.84999622117935,1.1686415630123386,0.8615817258894247,A,440,Correct
2,relearn,69,543,B,43.964103428780135,17.488215926742203,2.1982051714390067,0.2747042533992266,B,572,Incorrect
2,relearn,69,544,A,34.31956321677595,61.96208987577517,1.7159781608387974,0.9732982317740289,A,1479,Correct
2,relearn,69,545,A,54.09770225748133,80.70614216715114,2.7048851128740665,1.2677291166594773,B,1105,Incorrect
2,relearn,69,546,A,57.79036577122247,85.79124918620585,2.8895182885611232,1.3476057909283778,A,514,Correct
2,relearn,69,547,A,40.674849714242555,61.072730539133545,2.0337424857121276,0.9593282079820548,B,919,Incorrect
2,relearn,69,548,A,32.508290448610396,54.63049218719773,1.6254145224305199,0.858133764586475,B,1250,Incorrect
2,relearn,69,549,B,46.84139397167169,26.589394337035888,2.3420696985835847,0.4176652295631699,B,765,Correct
2,relearn,69,550,B,48.27601275931731,18.48230859186612,2.4138006379658656,0.2903194244679306,B,608,Incorrect
2,relearn,69,551,B,89.05058510433106,66.40125751107357,4.452529255216553,1.0430285139295639,B,1092,Correct
2,relearn,69,552,A,13.47059346677058,32.17642474482315,0.673529673338529,0.5054260979856062,A,936,Incorrect
2,relearn,69,553,A,13.572622451975107,41.28505825015196,0.6786311225987554,0.6485041785085204,A,503,Correct
2,relearn,69,554,B,88.85351121832593,62.65079963189873,4.442675560916297,0.9841164593254957,B,640,Correct
2,relearn,69,555,A,34.46506678125781,64.89467885204039,1.7232533390628904,1.019363231693195,B,932,Correct
2,relearn,69,556,A,13.928223097832593,36.44231296185605,0.6964111548916295,0.5724345134039354,A,1097,Incorrect
2,relearn,69,557,A,49.242229678026675,63.82549390188915,2.4621114839013334,1.0025685137695755,B,699,Incorrect
2,relearn,69,558,B,41.27418905207141,23.321372004757364,2.06370945260357,0.36633125480890194,A,283,Correct
2,relearn,69,559,B,56.405169386165134,37.128906113080774,2.8202584693082566,0.5832194934033986,B,698,Incorrect
2,relearn,69,560,B,38.25263696703523,15.573970997901615,1.9126318483517617,0.24463536437114108,A,347,Incorrect
2,relearn,69,561,B,53.302372001260245,38.16281627295338,2.6651186000630123,0.5994601162170367,B,292,Correct
2,relearn,69,562,A,22.24725848006123,47.038388852836874,1.1123629240030615,0.7388772842838617,B,581,Correct
2,relearn,69,563,A,36.77232988566148,53.88068926234108,1.8386164942830738,0.846355887784626,B,2335,Correct
2,relearn,69,564,B,73.61561147617526,45.35291648510206,3.680780573808763,0.7124019462423402,B,792,Correct
2,relearn,69,565,A,43.873636800054655,65.8221696459905,2.193681840002733,1.0339322230159242,B,666,Correct
2,relearn,69,566,B,62.30291972462538,33.636310978732524,3.115145986231269,0.528357937323239,B,802,Incorrect
2,relearn,69,567,B,54.12845741657404,38.09939441714828,2.706422870828702,0.5984638880356652,A,1791,Incorrect
2,relearn,69,568,B,82.13412122295603,63.27112405309879,4.1067060611478015,0.9938604925479181,B,289,Correct
2,relearn,69,569,A,25.9358771371506,47.39872066607007,1.2967938568575301,0.7445373631704022,B,1415,Incorrect
2,relearn,69,570,B,41.98890911421166,26.947219262590686,2.099445455710583,0.4232859303501413,B,722,Correct
2,relearn,69,571,A,50.549416027585245,80.56516061685355,2.527470801379262,1.265514583645944,A,890,Incorrect
2,relearn,69,572,B,55.978728698123405,48.83483785147915,2.79893643490617,0.7670958391672782,B,630,Incorrect
2,relearn,69,573,B,49.381917500210164,39.105710826413144,2.4690958750105083,0.6142710692283317,A,399,Correct
2,relearn,69,574,B,51.04722310061371,37.67554821975361,2.5523611550306855,0.5918061275357297,B,3679,Incorrect
2,relearn,69,575,A,48.210732440669915,76.78342242371531,2.410536622033496,1.206111179019129,B,871,Incorrect
2,relearn,69,576,B,70.66801225653188,43.120967493131005,3.5334006128265942,0.6773425734605232,A,266,Incorrect
2,relearn,69,577,B,59.114692826473906,28.23356539454248,2.955734641323695,0.4434918081407083,B,407,Correct
2,relearn,69,578,A,47.80595712687207,60.50684479677885,2.3902978563436035,0.9504392955272911,A,946,Correct
2,relearn,69,579,B,39.893701619022245,31.46007283713398,1.994685080951112,0.49417366853269956,B,570,Incorrect
2,relearn,69,580,A,57.90409104900729,81.39057239324029,2.8952045524503647,1.2784801215103596,A,298,Correct
2,relearn,69,581,B,69.16402758269702,49.46513078269644,3.458201379134851,0.7769964573788873,B,561,Incorrect
2,relearn,69,582,B,64.05417651098634,45.63599321654314,3.202708825549317,0.7168485051418277,A,277,Incorrect
2,relearn,69,583,B,48.21117365098465,28.560631181365565,2.4105586825492322,0.44862934550632816,B,458,Correct
2,relearn,69,584,B,56.43930823778334,30.115703577007853,2.821965411889167,0.47305636557607866,B,621,Correct
2,relearn,69,585,A,34.63076381598896,61.449173813369526,1.731538190799448,0.9652413651062199,A,856,Incorrect
2,relearn,69,586,B,68.09522944458534,51.83413349669235,3.4047614722292674,0.8142086649920066,A,995,Incorrect
2,relearn,69,587,A,23.570599699826403,54.50082461116979,1.1785299849913202,0.8560969510651841,A,1164,Correct
2,relearn,69,588,B,47.564916335092775,38.874911400895364,2.3782458167546388,0.6106456803300349,B,630,Incorrect
2,relearn,69,589,B,42.24436095183884,28.543182092747593,2.1122180475919423,0.44835525586325786,A,497,Incorrect
2,relearn,69,590,B,32.49740118793651,10.02477556177005,1.6248700593968255,0.15746880629371637,B,1059,Incorrect
2,relearn,69,591,A,50.672720378870935,77.55142371521929,2.5336360189435467,1.2181749150958108,A,318,Incorrect
2,relearn,69,592,B,60.87240890845628,42.12206730077096,3.043620445422814,0.6616518859305844,B,308,Correct
2,relearn,69,593,A,47.523744431175665,60.226386590139484,2.376187221558783,0.9460338683192052,A,2006,Correct
2,relearn,69,594,B,78.13817830603644,63.995133553510826,3.9069089153018215,1.0052332071860364,B,1111,Correct
2,relearn,69,595,A,28.238022670245726,48.52812310959445,1.4119011335122864,0.762277975268015,B,2297,Correct
2,relearn,69,596,B,67.76537411849533,48.78569269045504,3.3882687059247667,0.7663238687831142,B,1517,Incorrect
2,relearn,69,597,B,49.49248670387036,27.56986204581967,2.474624335193518,0.43306638031815564,A,2918,Incorrect
2,relearn,69,598,A,58.88675026007843,78.13619814709185,2.9443375130039215,1.2273605303917008,B,510,Incorrect
2,relearn,69,599,B,45.371484806155024,17.131560910340436,2.268574240307751,0.2691019295022579,B,608,Correct
2,relearn,69,600,B,63.53660175897941,45.877477790266845,3.17683008794897,0.7206417359556562,A,1345,Incorrect
2,relearn,69,601,A,10.33668076464831,34.18902107566079,0.5168340382324155,0.5370398872236127,A,1269,Correct
2,relearn,69,602,B,45.0999472829493,30.375551474165984,2.254997364147465,0.4771380467998923,B,769,Correct
2,relearn,69,603,B,43.141842987093575,31.506908132746446,2.157092149354679,0.4949093556358237,B,696,Correct
2,relearn,69,604,A,39.483650757073605,59.15232402338756,1.9741825378536801,0.9291625329731871,A,664,Correct
2,relearn,69,605,B,43.76669894506222,29.40244928952078,2.188334947253111,0.4618525934275246,B,537,Correct
2,relearn,69,606,A,49.247834576130295,80.17374572828855,2.4623917288065145,1.2593662529538368,A,451,Correct
2,relearn,69,607,A,53.26643916521516,76.59955834609869,2.663321958260758,1.2032230488416318,A,856,Correct
2,relearn,69,608,B,48.22540486194147,23.766597765435026,2.411270243097073,0.37332484470357136,B,655,Correct
2,relearn,69,609,B,48.3843285440447,20.088502965921137,2.419216427202235,0.31554946669677303,B,1605,Correct
2,relearn,69,610,B,76.52364129743883,52.18440171598625,3.8261820648719413,0.8197106653146049,B,607,Correct
2,relearn,69,611,A,54.49168834197999,63.57295191213443,2.7245844170989995,0.9986015934708935,A,641,Correct
2,relearn,69,612,A,49.351922706587786,73.08243097633485,2.4675961353293894,1.1479761413086833,A,668,Correct
2,relearn,69,613,A,45.21228553808832,62.17394445347563,2.2606142769044157,0.9766260356986944,A,786,Correct
2,relearn,69,614,B,45.290026317144026,34.77563875630248,2.2645013158572014,0.5462544562034617,B,502,Correct
2,relearn,69,615,A,38.7289454647525,51.35922331224089,1.9364472732376248,0.806748793259068,A,617,Correct
2,relearn,69,616,B,59.164684011350296,40.22958449250182,2.958234200567515,0.631924835493068,A,752,Incorrect
2,relearn,69,617,B,79.0692456561955,53.12914618643043,3.953462282809775,0.8345506767539401,B,832,Correct
2,relearn,69,618,A,68.586177528966,82.60332303248073,3.4293088764483004,1.2975299640047302,A,687,Correct
2,relearn,69,619,A,35.303972989005615,43.22053673490619,1.7651986494502807,0.6789066034529454,A,4902,Correct
2,relearn,69,620,B,51.92614048015482,39.99845348812192,2.596307024007741,0.6282942381661842,A,600,Incorrect
2,relearn,69,621,A,30.541621584583496,54.477409473382565,1.5270810792291747,0.8557291469409083,A,601,Correct
2,relearn,69,622,A,21.78820653426667,53.69589669683156,1.0894103267133335,0.8434531729534123,A,615,Correct
2,relearn,69,623,B,71.93566921133265,54.986627970268316,3.5967834605666327,0.86372793238535,B,575,Correct
2,relearn,69,624,B,78.0020742811463,64.65903741425227,3.900103714057315,1.0156617846440126,A,731,Incorrect
2,relearn,69,625,A,42.8435215285517,50.27668488461877,2.142176076427585,0.7897443194018366,A,690,Correct
2,relearn,69,626,B,53.84890962044676,44.0288193447912,2.692445481022338,0.6916030769991411,B,887,Correct
2,relearn,69,627,B,73.84492834838228,55.76110330280311,3.692246417419114,0.8758933624607389,B,817,Correct
2,relearn,69,628,B,42.60981911408558,28.321081822154277,2.1304909557042793,0.4448665129709765,A,785,Incorrect
2,relearn,69,629,A,40.068667026461604,70.66454406285759,2.00343335132308,1.1099960624857281,A,397,Correct
2,relearn,69,630,A,15.704605847940321,30.958116211039233,0.785230292397016,0.48628895228789965,A,758,Correct
2,relearn,69,631,B,76.9907933875308,56.21306596768153,3.84953966937654,0.8829927753991336,B,647,Correct
2,relearn,69,632,A,37.02387404102829,58.002501453349126,1.8511937020514149,0.9111011622783646,A,595,Correct
2,relearn,69,633,A,38.61047597045085,53.855385243260784,1.9305237985225425,0.8459584131823811,A,889,Correct
2,relearn,69,634,A,51.77705202889356,70.80338408041314,2.5888526014446778,1.1121769563816122,A,803,Correct
2,relearn,69,635,A,29.18602426228874,54.11229695716847,1.4593012131144372,0.8499939729475489,B,2775,Incorrect
2,relearn,69,636,A,36.39065795437006,66.47720520805458,1.819532897718503,1.0442214975640272,A,593,Correct
2,relearn,69,637,A,20.508767656965848,36.373566481146355,1.0254383828482923,0.5713546462101466,B,676,Incorrect
2,relearn,69,638,B,65.52189676249226,39.45614095345999,3.276094838124613,0.6197756127919664,B,3403,Correct
2,relearn,69,639,B,75.64808703941904,52.17920731348373,3.7824043519709516,0.8196290718308963,B,631,Correct
2,relearn,69,640,B,41.71423443256438,23.436514587261303,2.0857117216282193,0.3681399102654507,B,1145,Correct
2,relearn,69,641,B,80.67224759285335,51.61032311817132,4.033612379642667,0.8106930597872125,B,1007,Correct
2,relearn,69,642,B,49.423685018143416,30.88120742037308,2.471184250907171,0.48508087182913334,B,781,Correct
2,relearn,69,643,B,53.073538230014634,37.685991833194606,2.6536769115007313,0.5919701754320456,B,806,Correct
2,relearn,69,644,B,45.91140695336708,32.068469670416796,2.2955703476683538,0.5037303436422426,B,750,Correct
2,relearn,69,645,A,50.4503122337716,76.77096796306667,2.52251561168858,1.205915544808738,A,733,Correct
2,relearn,69,646,B,66.85485827438481,38.61332695492264,3.3427429137192406,0.6065367214612285,B,737,Correct
2,relearn,69,647,A,18.93197221220089,32.23409311934685,0.9465986106100445,0.5063319506943468,A,2093,Correct
2,relearn,69,648,A,57.41759219967369,77.33334226975235,2.8708796099836844,1.214749299760995,A,2956,Correct
2,relearn,69,649,A,14.728237148046773,40.882101897330095,0.7364118574023386,0.6421745549198078,A,662,Correct
2,relearn,69,650,B,74.78937762924093,44.41700047818773,3.7394688814620465,0.6977006119838444,B,744,Correct
2,relearn,69,651,B,37.66215146276484,25.512681935190155,1.8831075731382418,0.40075227070483216,B,865,Correct
2,relearn,69,652,A,50.38904406898873,69.31214888511684,2.5194522034494367,1.088752688710025,A,724,Correct
2,relearn,69,653,B,51.2480599363156,32.722079094452695,2.5624029968157798,0.5139972164665837,B,867,Correct
2,relearn,69,654,A,53.15196829251761,77.24484244904943,2.6575984146258804,1.2133591478281736,A,893,Correct
2,relearn,69,655,B,68.22496035649729,47.9673391990999,3.4112480178248643,0.7534692022007098,B,804,Correct
2,relearn,69,656,A,50.73472432625902,58.7063918776897,2.536736216312951,0.9221578472085672,A,1375,Correct
2,relearn,69,657,B,84.30136170481367,63.992167192019764,4.215068085240683,1.0051866116886952,B,745,Correct
2,relearn,69,658,B,68.28029833117387,53.79392284444429,3.4140149165586933,0.8449929640794116,A,2465,Incorrect
2,relearn,69,659,A,36.34726792414313,53.64849791512271,1.8173633962071565,0.8427086346313842,A,768,Correct
2,relearn,69,660,A,33.95649977439204,57.686002221076166,1.6978249887196022,0.9061296039634869,A,725,Correct
2,relearn,69,661,B,52.25925337541682,34.46553159392842,2.6129626687708414,0.5413833042877622,B,522,Correct
2,relearn,69,662,B,75.77756846491326,57.59749815214306,3.788878423245663,0.9047393852996216,B,1348,Correct
2,relearn,69,663,A,30.871435256314268,45.95098519362432,1.5435717628157133,0.7217963875475176,A,1047,Correct
2,relearn,69,664,B,36.06022429924211,10.796670500655392,1.8030112149621056,0.16959370364044304,B,762,Correct
2,relearn,69,665,A,61.77521928098474,71.23207363840976,3.088760964049237,1.1189107962119764,A,939,Correct
2,relearn,69,666,B,65.15894845828674,49.08419331172151,3.2579474229143375,0.771012705577428,B,830,Correct
2,relearn,69,667,A,40.35117791833001,61.10411127957594,2.0175588959165003,0.9598211355002448,A,854,Correct
2,relearn,69,668,B,65.57615403533715,34.51269045730124,3.2788077017668575,0.5421240739813806,B,642,Correct
2,relearn,69,669,A,34.99129293081804,59.93679923884151,1.749564646540902,0.941485040842154,A,981,Correct
2,relearn,69,670,B,44.29403470130869,33.80776533899918,2.2147017350654346,0.5310511361164374,B,631,Correct
2,relearn,69,671,A,24.599511032331826,46.79348329203172,1.2299755516165913,0.735030316730618,A,724,Correct
2,relearn,69,672,A,25.733426222068168,56.95272500390777,1.2866713111034085,0.8946113123709818,A,787,Correct
2,relearn,69,673,A,12.676114704656175,36.402696950717996,0.6338057352328087,0.5718122265561563,A,616,Correct
2,relearn,69,674,B,51.89384106194298,40.24605082183558,2.5946920530971487,0.6321834879894005,A,903,Incorrect
2,relearn,69,675,A,60.09895443741088,79.19776838188136,3.0049477218705443,1.2440356366461223,A,995,Correct
2,relearn,69,676,A,38.73706050117583,56.53075376612084,1.9368530250587919,0.8879830036676939,A,1739,Correct
2,relearn,69,677,A,40.37181828488184,70.39039239034783,2.018590914244092,1.105689698084098,A,635,Correct
2,relearn,69,678,B,71.16125216275245,40.692214529281486,3.5580626081376225,0.6391918111174528,B,739,Correct
2,relearn,69,679,B,81.42708945303642,54.07674269493414,4.07135447265182,0.8494354879023531,B,1919,Correct
2,relearn,69,680,B,69.84396508639487,43.63162927564096,3.4921982543197436,0.6853640299825349,B,1061,Correct
2,relearn,69,681,A,62.548084641952286,86.17199680893779,3.1274042320976143,1.3535865606006103,A,681,Correct
2,relearn,69,682,B,66.58998707316722,45.65590602264622,3.329499353658361,0.7171612947686569,B,650,Correct
2,relearn,69,683,A,66.45696473915565,88.72571275336021,3.3228482369577823,1.3937002368523732,A,679,Correct
2,relearn,69,684,A,56.547159116933926,67.06855140698606,2.827357955846696,1.0535103419354839,A,645,Correct
2,relearn,69,685,B,59.124479615343084,35.93358637564485,2.956223980767154,0.5644434548743007,B,481,Correct
2,relearn,69,686,A,18.367020545960717,46.613459961477844,0.9183510272980357,0.7322025168669039,A,739,Correct
2,relearn,69,687,B,77.96361536496106,50.106978017943845,3.898180768248053,0.7870785701737882,B,2704,Correct
2,relearn,69,688,B,48.36935517778045,39.66368572778915,2.4184677588890224,0.6230357184835836,B,1513,Correct
2,relearn,69,689,A,53.5734922104015,63.73043923283472,2.6786746105200745,1.0010753985196215,A,1677,Correct
2,relearn,69,690,B,84.82210529503908,67.96793417597806,4.241105264751954,1.0676378134346365,B,1504,Correct
2,relearn,69,691,B,81.85029309108518,67.94161617384931,4.092514654554259,1.0672244112239124,B,1022,Correct
2,relearn,69,692,B,49.67312901925961,32.778369841621796,2.4836564509629806,0.5148814294554414,B,634,Correct
2,relearn,69,693,B,54.419722429952266,38.812939301304986,2.720986121497613,0.6096722248660315,B,594,Correct
2,relearn,69,694,B,32.961457055740794,15.390033132344804,1.6480728527870396,0.2417460751353898,B,3684,Correct
2,relearn,69,695,A,26.81583103156423,37.99796405615381,1.3407915515782116,0.5968706236509091,B,3622,Incorrect
2,relearn,69,696,A,45.224006854971215,57.220644614787425,2.2612003427485607,0.8988197837774428,A,667,Correct
2,relearn,69,697,A,36.40545697346174,57.72365027912332,1.820272848673087,0.906720978276401,A,1023,Correct
2,relearn,69,698,A,69.10035517568645,83.40710368609714,3.4550177587843223,1.3101557209872245,A,3020,Correct
2,relearn,69,699,A,50.7476054626255,59.03685715910893,2.537380273131275,0.9273487837104332,A,978,Correct
2,relearn,69,700,A,49.272989875459515,66.25857827229643,2.463649493772976,1.0407873136877537,A,770,Correct
2,relearn,69,701,B,33.01795788929624,13.981113136831699,1.650897894464812,0.21961481159839102,B,643,Correct
2,relearn,69,702,B,38.20518241299154,25.855518577099808,1.9102591206495771,0.40613753608285585,B,1653,Correct
2,relearn,69,703,A,41.0794153323202,73.780265941156,2.05397076661601,1.1589377073031848,A,1037,Correct
2,relearn,69,704,B,73.76567643818774,50.64394766352535,3.6882838219093865,0.7955132696425861,B,765,Correct
2,relearn,69,705,B,55.262834390184125,43.13525883204597,2.7631417195092065,0.6775670612872493,B,2541,Correct
2,relearn,69,706,B,74.32888790794797,48.80298482187321,3.716444395397399,0.7665954929482552,B,1517,Correct
2,relearn,69,707,A,31.336122633313863,58.58980524818184,1.5668061316656932,0.920326508714724,A,1504,Correct
2,relearn,69,708,A,25.857031292265063,49.339873518131945,1.292851564613253,0.7750289208680644,A,2800,Correct
2,relearn,69,709,B,37.75274853451534,17.63490230104557,1.8876374267257672,0.27700839757869256,B,1209,Correct
2,relearn,69,710,B,63.42613356055284,33.955990089150205,3.171306678027642,0.5333794450472105,B,1397,Correct
2,relearn,69,711,A,23.535854082750454,51.307849096705695,1.1767927041375228,0.8059418089685214,A,856,Correct
2,relearn,69,712,B,65.01598399050314,45.58519626894854,3.2507991995251575,0.7160505885548878,B,754,Correct
2,relearn,69,713,B,48.61985672587517,32.67004050213993,2.4309928362937585,0.5131797961700191,B,2395,Correct
2,relearn,69,714,A,31.8871616197468,59.44476631510656,1.5943580809873399,0.9337562057495039,A,707,Correct
2,relearn,69,715,B,48.60035939365894,35.70630575793867,2.430017969682947,0.5608733392798554,B,2512,Correct
2,relearn,69,716,A,34.16853416952706,54.07527895813671,1.7084267084763527,0.849412495578505,A,1700,Correct
2,relearn,69,717,B,63.84605662801574,45.79753592087917,3.192302831400787,0.7193860120077433,A,1859,Incorrect
2,relearn,69,718,B,47.638390507547356,22.044863725777795,2.3819195253773677,0.34627990965145816,B,976,Correct
2,relearn,69,719,B,67.03575763666088,41.651996437699424,3.3517878818330438,0.6542680300801236,A,725,Incorrect
2,relearn,69,720,B,76.28272054025815,58.608792737247974,3.8141360270129074,0.9206247634955254,B,725,Correct
2,relearn,69,721,A,30.02441302806222,50.36129493813177,1.501220651403111,0.791073371014518,A,1429,Correct
2,relearn,69,722,A,55.99070706947271,73.29180142935816,2.799535353473636,1.1512649246941675,A,1422,Correct
2,relearn,69,723,A,63.07584038992478,77.58060374636995,3.153792019496239,1.218633273953283,A,656,Correct
2,relearn,69,724,B,74.39520722179243,46.61387125670791,3.7197603610896213,0.7322089774772699,B,3058,Correct
2,relearn,69,725,B,67.94931378066805,56.0155662772824,3.3974656890334023,0.8798904575169129,B,1339,Correct
2,relearn,69,726,B,57.38767858463976,46.32416873407171,2.869383929231988,0.7276583408930685,B,2779,Correct
2,relearn,69,727,B,61.5761727379259,37.847713443152315,3.0788086368962952,0.5945104925408948,B,626,Correct
2,relearn,69,728,A,63.98621085848679,84.46429919849905,3.1993105429243394,1.3267621092630744,A,677,Correct
2,relearn,69,729,B,70.54676765421706,49.2734574588003,3.5273383827108535,0.7739856598476812,B,592,Correct
2,relearn,69,730,B,72.31772772751306,53.37516185168808,3.615886386375653,0.8384150817871472,B,1323,Correct
2,relearn,69,731,A,45.19266860446801,69.82391318877845,2.2596334302234005,1.0967914635937892,A,1101,Correct
2,relearn,69,732,A,32.21582237975807,59.24478645708909,1.6107911189879036,0.9306149294854358,A,601,Correct
2,relearn,69,733,A,55.03440617945192,67.98084581339772,2.751720308972596,1.0678406289609537,A,746,Correct
2,relearn,69,734,A,41.705664697690786,65.194477212032,2.0852832348845394,1.0240724533197345,A,554,Correct
2,relearn,69,735,A,40.35296580725562,68.09051810516993,2.0176482903627813,1.0695633572916232,A,605,Correct
2,relearn,69,736,B,48.02738795594303,23.994882764935717,2.4013693977971515,0.37691073709035194,B,716,Correct
2,relearn,69,737,A,49.93421382954138,68.68986731672919,2.4967106914770687,1.0789779126914703,A,2011,Correct
2,relearn,69,738,A,17.786851654595658,43.56140394794689,0.889342582729783,0.6842609331146369,A,2167,Correct
2,relearn,69,739,B,64.0988996962272,39.39475874543892,3.2049449848113603,0.6188114233230659,B,1659,Correct
2,relearn,69,740,A,46.108798887457596,60.08693632041479,2.3054399443728797,0.943843388604664,A,608,Correct
2,relearn,69,741,A,43.13794580688066,50.17043327349234,2.1568972903440327,0.7880753229971024,A,1497,Correct
2,relearn,69,742,B,47.67103133424057,18.17781860026099,2.3835515667120286,0.28553650686433907,B,3302,Correct
2,relearn,69,743,A,21.142005946667886,37.58058991495056,1.0571002973333945,0.5903145259718967,A,3934,Correct
2,relearn,69,744,B,50.41650244305493,30.671019746242827,2.5208251221527465,0.48177925156451973,B,1031,Correct
2,relearn,69,745,B,35.94623434298049,17.971513549758985,1.7973117171490245,0.28229587470906126,B,736,Correct
2,relearn,69,746,B,64.17477171508261,34.55261996570182,3.208738585754131,0.5427512852326443,B,815,Correct
2,relearn,69,747,B,73.08626947378966,55.37833403998473,3.654313473689483,0.8698808369402878,B,1614,Correct
2,relearn,69,748,B,61.714824733716426,34.246460234136414,3.0857412366858217,0.5379421394150897,B,1041,Correct
2,relearn,69,749,B,55.77592574725854,37.72687756987053,2.7887962873629273,0.5926124070819341,B,631,Correct
2,relearn,69,750,A,40.924599473273176,55.4062225543253,2.046229973663659,0.8703189086991475,A,1440,Correct
2,relearn,69,751,B,54.29198187071732,46.43412296827276,2.7145990935358664,0.7293854979650539,B,875,Correct
2,relearn,69,752,A,38.87117540908233,63.987926103542925,1.9435587704541166,1.005119992826685,A,803,Correct
2,relearn,69,753,B,74.93533600828974,62.21235455731054,3.7467668004144867,0.9772293801988514,B,650,Correct
2,relearn,69,754,B,56.79683716781994,30.389927694041614,2.839841858390997,0.47736386793363067,A,1122,Incorrect
2,relearn,69,755,A,24.498945133715885,49.29100713418966,1.2249472566857944,0.7742613295040616,A,692,Correct
2,relearn,69,756,A,59.439365738178054,73.03933255962562,2.9719682869089024,1.1472991529621082,B,694,Incorrect
2,relearn,69,757,A,64.80526118722155,87.52816335956719,3.2402630593610775,1.3748891749631178,A,989,Correct
2,relearn,69,758,B,53.560473906197075,34.67827234394156,2.678023695309854,0.5447250281745645,B,553,Correct
2,relearn,69,759,B,42.9866899999547,31.047758929823395,2.149334499997735,0.48769705682180037,B,653,Correct
2,relearn,69,760,B,63.37938197117242,50.983782683442044,3.168969098558621,0.8008513856526002,B,1532,Correct
2,relearn,69,761,B,47.69717419559764,20.834438060163187,2.3848587097798823,0.3272665877574012,B,678,Correct
2,relearn,69,762,B,78.79814383635457,54.642639963615615,3.9399071918177286,0.8583245814122342,B,815,Correct
2,relearn,69,763,A,60.2689169373798,84.38439009688696,3.01344584686899,1.325506900030177,A,1198,Correct
2,relearn,69,764,B,44.75685087034583,16.480872335538642,2.2378425435172913,0.25888093727039724,B,556,Correct
2,relearn,69,765,A,46.41059265528306,68.88156657881825,2.320529632764153,1.0819891176588583,A,972,Correct
2,relearn,69,766,A,67.70031496770673,88.08831663676094,3.3850157483853365,1.3836880420656987,A,1617,Correct
2,relearn,69,767,B,72.79346330885016,59.33721805280064,3.6396731654425083,0.9320668415956707,B,836,Correct
2,relearn,69,768,A,22.479362530084845,53.1703243124626,1.1239681265042423,0.8351975012450963,A,614,Correct
2,relearn,69,769,A,43.46063266229965,68.76392253772559,2.1730316331149826,1.0801411693826815,A,1672,Correct
2,relearn,69,770,B,57.13642001580676,47.42739722834698,2.8568210007903385,0.7449878135572989,B,985,Correct
2,relearn,69,771,A,56.08690493407032,69.58720880007618,2.804345246703516,1.0930733197506917,A,667,Correct
2,relearn,69,772,A,58.311068795883955,77.89072095051964,2.9155534397941976,1.2235045836048255,A,1562,Correct
2,relearn,69,773,B,48.13653486159747,17.427753393298698,2.4068267430798733,0.2737545101448089,B,675,Correct
2,relearn,69,774,B,46.2364082366175,38.58340868660149,2.311820411830875,0.6060667664013992,B,1339,Correct
2,relearn,69,775,A,40.45308055207786,69.60366552238293,2.022654027603893,1.0933318213401968,A,759,Correct
2,relearn,69,776,B,81.15057803862258,68.11265963582157,4.057528901931129,1.0699111556417955,B,1578,Correct
2,relearn,69,777,B,45.497900361854185,33.746304724251715,2.2748950180927094,0.5300857150375586,B,951,Correct
2,relearn,69,778,A,45.41579939410521,63.76776652316729,2.2707899697052603,1.0016617342250576,A,717,Correct
2,relearn,69,779,B,46.75287952659055,32.80395544026511,2.3376439763295274,0.5152833270991191,B,683,Correct
2,relearn,69,780,A,40.36789774957948,48.16152669333296,2.0183948874789737,0.7565194922272178,B,726,Incorrect
2,relearn,69,781,B,72.80086718180861,55.16927256633063,3.6400433590904306,0.8665969069913861,B,781,Correct
2,relearn,69,782,B,39.567143773366595,31.133918714710745,1.9783571886683295,0.4890504515579853,B,818,Correct
2,relearn,69,783,A,33.08450150377571,65.59078196208189,1.6542250751887855,1.0302975937764318,A,615,Correct
2,relearn,69,784,B,52.69737498644428,45.48469490361397,2.634868749322214,0.7144719167998337,B,709,Correct
2,relearn,69,785,A,14.904428535635471,38.61867778747755,0.7452214267817736,0.6066207721424539,A,879,Correct
2,relearn,69,786,B,57.808724859756474,30.999558385128587,2.890436242987824,0.4869399244362392,B,726,Correct
2,relearn,69,787,A,33.705019432787125,56.043372244001176,1.6852509716393564,0.8803272326207611,A,539,Correct
2,relearn,69,788,B,34.738275969382855,16.75956508806864,1.736913798469143,0.2632586327901821,B,634,Correct
2,relearn,69,789,A,46.08432094868362,64.05116856953987,2.304216047434181,1.0061134031595396,A,648,Correct
2,relearn,69,790,B,52.04003579727674,23.654099792402466,2.6020017898638366,0.3715577306754572,B,709,Correct
2,relearn,69,791,A,42.74854691682775,54.45257085087796,2.1374273458413877,0.8553389827709796,A,884,Correct
2,relearn,69,792,B,58.438496070195235,33.7433314204316,2.9219248035097616,0.5300390104903678,B,1026,Correct
2,relearn,69,793,A,33.53752331192109,66.4955060417097,1.6768761655960547,1.0445089663868545,A,634,Correct
2,relearn,69,794,A,30.861032997730696,47.88994603849561,1.5430516498865348,0.7522535132767472,B,931,Incorrect
2,relearn,69,795,B,79.3289712830445,55.67904438307656,3.9664485641522247,0.8746043839638667,B,847,Correct
2,relearn,69,796,B,33.98913722857028,13.810800921109397,1.699456861428514,0.21693955356974215,B,1058,Correct
2,relearn,69,797,A,58.72310369490668,79.60524170215922,2.936155184745334,1.250436212593716,A,1039,Correct
2,relearn,69,798,A,23.420961676238303,43.06115418118296,1.1710480838119153,0.676403028153509,B,512,Incorrect
2,relearn,69,799,B,51.426566649429134,43.760907471541984,2.5713283324714564,0.6873947271350949,B,1817,Correct
2,relearn,69,800,B,40.836279459157396,27.864448701170506,2.0418139729578697,0.4376937366796346,B,716,Correct
2,relearn,69,801,B,47.047122676413366,35.48682483156265,2.3523561338206687,0.5574257409503254,B,1187,Correct
2,relearn,69,802,B,57.13976035132962,37.64099441453791,2.856988017566481,0.5912633576326337,B,850,Correct
2,relearn,69,803,A,53.32627873127436,73.42234429883871,2.6663139365637174,1.1533154872928606,A,651,Correct
2,relearn,69,804,A,16.027003362655304,43.9745809583103,0.8013501681327653,0.6907511024165862,A,1029,Correct
2,relearn,69,805,B,47.670111967489476,24.303841679159852,2.383505598374474,0.3817638523662901,B,590,Correct
2,relearn,69,806,A,63.39788946237851,77.34678095697407,3.1698944731189256,1.2149603941662432,A,695,Correct
2,relearn,69,807,B,85.5737232849615,66.95958751194544,4.278686164248075,1.0517987410746532,B,925,Correct
2,relearn,69,808,B,78.51095401126676,66.61952037454697,3.9255477005633383,1.0464569789717615,B,740,Correct
2,relearn,69,809,B,77.91320874358414,57.97470112587188,3.895660437179207,0.910664475755515,B,685,Correct
2,relearn,69,810,A,43.78066920153915,56.794561949498245,2.1890334600769576,0.8921268929219706,A,1242,Correct
2,relearn,69,811,B,69.3070591108355,38.59251796699797,3.465352955541775,0.6062098546432646,B,626,Correct
2,relearn,69,812,A,17.713737292200417,32.25488394883355,0.8856868646100209,0.5066585322802342,A,716,Correct
2,relearn,69,813,B,44.699944686623994,30.621057254433172,2.2349972343311997,0.48099444257839846,B,1372,Correct
2,relearn,69,814,A,27.3885262133777,56.02025394588849,1.3694263106688849,0.8799640912431895,A,1207,Correct
2,relearn,69,815,A,41.29682316242815,70.29286571090296,2.0648411581214074,1.104157752585733,B,1042,Incorrect
2,relearn,69,816,A,37.67647174602346,50.12960980733552,1.8838235873011728,0.7874340694902405,B,817,Incorrect
2,relearn,69,817,A,28.66500439446665,57.90689639487531,1.4332502197233326,0.9095994015316279,A,769,Correct
2,relearn,69,818,A,38.06027240293852,66.73751482677213,1.903013620146926,1.0483104314931362,A,739,Correct
2,relearn,69,819,B,47.33217921220559,27.054741525540713,2.366608960610279,0.42497488610704703,B,691,Correct
2,relearn,69,820,A,34.32367166041872,59.39969750542315,1.7161835830209358,0.9330482665424665,A,614,Correct
2,relearn,69,821,A,28.289432614968412,58.05624163085538,1.4144716307484204,0.9119453110126459,A,799,Correct
2,relearn,69,822,A,25.95959977300724,51.00540614387265,1.2979799886503622,0.80119104617477,A,567,Correct
2,relearn,69,823,A,19.187566397923124,44.0567054884669,0.9593783198961562,0.6920411115196836,A,617,Correct
2,relearn,69,824,B,66.93316353861803,44.58360978052433,3.3466581769309016,0.7003177047850464,A,670,Incorrect
2,relearn,69,825,A,40.88412168436891,55.41569564637139,2.044206084218445,0.8704677116810411,A,705,Correct
2,relearn,69,826,B,63.14154265124975,38.17391164905945,3.157077132562488,0.5996344019773548,B,607,Correct
2,relearn,69,827,B,57.911263910074155,43.4031774833468,2.8955631955037076,0.6817755176206811,A,489,Incorrect
2,relearn,69,828,B,62.15787331642027,53.63155542042284,3.1078936658210137,0.8424425025469713,B,475,Correct
2,relearn,69,829,A,18.303240109874363,37.79629677865849,0.9151620054937182,0.5937028414636654,A,864,Correct
2,relearn,69,830,A,22.802567426238106,35.141351248313384,1.1401283713119055,0.5519990545945991,A,756,Correct
2,relearn,69,831,A,53.86380904827019,77.9989102194541,2.6931904524135097,1.2252040166672342,A,1077,Correct
2,relearn,69,832,B,52.131937732621736,36.80683529612499,2.606596886631087,0.5781604168409789,B,1309,Correct
2,relearn,69,833,B,70.54517530955948,59.60977876509513,3.5272587654779737,0.9363482152526785,B,1467,Correct
2,relearn,69,834,B,61.23502671825716,48.587872141376266,3.0617513359128576,0.7632165108645392,B,836,Correct
2,relearn,69,835,A,21.139218978329446,47.70533916689832,1.0569609489164722,0.7493537153186859,A,704,Correct
2,relearn,69,836,B,43.81211409121453,30.76601049500531,2.190605704560727,0.48327136275687577,B,658,Correct
2,relearn,69,837,A,39.68152690600597,54.78973638063204,1.9840763453002983,0.8606351665275753,A,814,Correct
2,relearn,69,838,A,12.611547598076154,35.620039296949614,0.6305773799038077,0.5595182688793833,A,662,Correct
2,relearn,69,839,B,50.32608316290638,35.70537166110924,2.516304158145319,0.5608586665211699,B,731,Correct
2,relearn,69,840,A,58.259703060343384,74.78988983481368,2.912985153017169,1.1747968423392028,A,628,Correct
2,relearn,69,841,B,49.747433042960466,25.21220493846225,2.487371652148023,0.39603238907736654,B,1030,Correct
2,relearn,69,842,A,21.691393235151857,37.501816526165044,1.0845696617575928,0.589077156474362,A,1002,Correct
2,relearn,69,843,A,67.25019464206369,86.08494944707041,3.362509732103184,1.352219223837826,A,744,Correct
2,relearn,69,844,B,61.18582804366961,42.84749756590567,3.0592914021834803,0.6730469178887789,B,1269,Correct
2,relearn,69,845,B,31.08627100986503,13.941143282819986,1.5543135504932513,0.21898696659974984,B,2059,Correct
2,relearn,69,846,A,29.284519617913922,57.97625497408944,1.464225980895696,0.9106888835462404,A,1022,Correct
2,relearn,69,847,B,57.23408346940431,35.50102768108255,2.8617041734702156,0.557648838788884,B,939,Correct
2,relearn,69,848,A,41.5216415555602,71.09444734715933,2.07608207777801,1.1167489674843105,A,608,Correct
2,relearn,69,849,A,41.20906209374046,48.11967837692653,2.0604531046870225,0.7558621404102799,A,2019,Correct
2,relearn,69,850,B,57.065708023893784,38.06974175253443,2.853285401194689,0.597998105069114,A,753,Incorrect
2,relearn,69,851,B,38.873172259588614,27.272260463057073,1.9436586129794307,0.42839166558763736,B,1108,Correct
2,relearn,69,852,A,15.62181603765858,39.82940547523488,0.7810908018829289,0.6256388381892348,A,662,Correct
2,relearn,69,853,A,38.666744984531405,49.48736207062454,1.9333372492265704,0.7773456656330611,B,680,Incorrect
2,relearn,69,854,A,33.983190653143325,66.18749834110565,1.699159532657166,1.0396707927395208,A,714,Correct
2,relearn,69,855,A,53.012374945862994,69.14502029471912,2.6506187472931497,1.0861274389510336,A,605,Correct
2,relearn,69,856,A,51.10390753643733,58.569347430769604,2.5551953768218665,0.9200051580702701,B,1162,Incorrect
2,relearn,69,857,A,21.77715908985562,33.99622657054738,1.088857954492781,0.5340114782190288,A,563,Correct
2,relearn,69,858,A,10.566333699573395,35.62643869996745,0.5283166849786697,0.5596187904669242,A,577,Correct
2,relearn,69,859,B,40.93637065165427,23.51150243680458,2.0468185325827135,0.3693178166516189,B,584,Correct
2,relearn,69,860,B,87.23408926307737,60.88269120846033,4.361704463153868,0.9563430771563741,B,697,Correct
2,relearn,69,861,B,80.92335598285192,63.14037054006768,4.046167799142596,0.9918066211680701,B,582,Correct
2,relearn,69,862,A,28.239051075064626,37.541254990540864,1.4119525537532314,0.5896966544241216,A,615,Correct
2,relearn,69,863,A,17.469524888883747,43.567974850287,0.8734762444441873,0.6843641486072326,B,684,Incorrect
2,relearn,69,864,A,58.97769116725268,76.5602474044901,2.948884558362634,1.2026055540148155,A,784,Correct
2,relearn,69,865,A,52.04804569495474,72.4530460707785,2.602402284747737,1.1380897863308026,A,910,Correct
2,relearn,69,866,A,62.92037299711363,81.11482657290391,3.146018649855682,1.274148716293225,A,1311,Correct
2,relearn,69,867,B,53.367791347704255,21.680251847268032,2.668389567385213,0.340552599656769,B,637,Correct
2,relearn,69,868,A,14.397259252662593,40.90891026232001,0.7198629626331297,0.6425956597323433,A,792,Correct
2,relearn,69,869,B,37.00316937961574,19.06782948684987,1.850158468980787,0.2995167651789519,B,845,Correct
2,relearn,69,870,A,17.780652596532192,44.60039231509505,0.8890326298266096,0.7005813242216263,A,658,Correct
2,relearn,69,871,B,48.12644051226819,39.963901231473876,2.4063220256134095,0.6277514925879321,B,989,Correct
2,relearn,69,872,A,34.63361267131526,49.76669026222887,1.731680633565763,0.7817333426064845,A,762,Correct
2,relearn,69,873,A,47.14695770843619,57.79672813974994,2.3573478854218095,0.9078688826268245,A,789,Correct
2,relearn,69,874,B,42.96482111548178,22.49681939226467,2.148241055774089,0.3533792126593754,B,634,Correct
2,relearn,69,875,B,58.76205250000238,40.17655164169035,2.938102625000119,0.6310917974205268,A,581,Incorrect
2,relearn,69,876,A,67.07843770961802,80.89797736533876,3.3539218854809008,1.270742456906108,A,605,Correct
2,relearn,69,877,A,36.61272728145194,67.7161150725623,1.830636364072597,1.0636822482080142,A,779,Correct
2,relearn,69,878,A,52.76556333226275,66.11666462737645,2.6382781666131376,1.0385581393661298,B,738,Incorrect
2,relearn,69,879,B,51.827909747850775,32.05165376687579,2.5913954873925387,0.503466200047103,B,1351,Correct
2,relearn,69,880,B,55.03951577473954,31.43060138097449,2.751975788736977,0.49371073198189336,B,708,Correct
2,relearn,69,881,B,39.16976725356378,20.61689809768587,1.958488362678189,0.32384947801749653,B,957,Correct
2,relearn,69,882,B,78.86237897880537,47.07325701421742,3.9431189489402687,0.7394249920820481,B,833,Correct
2,relearn,69,883,B,55.154020751667815,30.38041223830067,2.7577010375833906,0.47721439950437416,B,566,Correct
2,relearn,69,884,B,84.18095695222556,56.5809962516598,4.209047847611277,0.8887722107850303,B,1652,Correct
2,relearn,69,885,A,31.032501334566454,58.164303266927426,1.551625066728323,0.9136427392227399,A,539,Correct
2,relearn,69,886,B,68.55718227558243,48.32626269260825,3.4278591137791214,0.7591071592527429,B,664,Correct
2,relearn,69,887,B,73.17419626328349,59.73379309378521,3.658709813164174,0.9382962277724418,A,611,Incorrect
2,relearn,69,888,A,60.543986057996975,79.63683456907694,3.0271993028998487,1.250932472186789,A,801,Correct
2,relearn,69,889,A,31.728340765675142,49.71664700864494,1.586417038283757,0.7809472650173797,A,828,Correct
2,relearn,69,890,A,56.560551296169145,85.3041435960217,2.8280275648084574,1.3399543542101529,A,526,Correct
2,relearn,69,891,A,57.5063440721936,82.69831126358656,2.87531720360968,1.2990220356498279,A,553,Correct
2,relearn,69,892,A,63.527544237012634,74.95161836139373,3.1763772118506317,1.1773372680941019,A,427,Correct
2,relearn,69,893,A,37.86670927798043,68.28559705619634,1.8933354638990216,1.072627650288696,A,442,Correct
2,relearn,69,894,B,62.8439385778035,45.63747162186343,3.1421969288901748,0.716871727878294,B,576,Correct
2,relearn,69,895,A,22.512913458100332,38.189112297311254,1.1256456729050166,0.5998731732017433,A,539,Correct
2,relearn,69,896,B,78.62305652772699,54.622984662376226,3.9311528263863496,0.8580158366623455,B,729,Correct
2,relearn,69,897,A,13.297761455711829,39.045263866939244,0.6648880727855914,0.6133215706092566,A,577,Correct
2,relearn,69,898,B,40.22590934208592,26.1344089244918,2.0112954671042957,0.41051833541547483,B,554,Correct
