experiment,condition,subject,trial,cat,x,y,xt,yt,resp,rt,fb
2,relearn,55,0,A,35.209316047582945,50.64246463341685,1.7604658023791473,0.7954899742601163,B,3496,Incorrect
2,relearn,55,1,A,17.816710709777134,43.06957042054852,0.8908355354888567,0.6765352301323174,A,1282,Correct
2,relearn,55,2,B,43.55815855405238,17.149290107711455,2.1779079277026194,0.2693804190833321,A,1586,Incorrect
2,relearn,55,3,A,22.577131952369076,54.144411497311914,1.1288565976184537,0.8504984269644892,A,1091,Correct
2,relearn,55,4,B,86.43727682551689,68.92511085776583,4.321863841275845,1.0826731095930962,A,935,Incorrect
2,relearn,55,5,B,68.66478045016505,51.9650482308048,3.4332390225082525,0.8162650688266782,A,1429,Incorrect
2,relearn,55,6,A,28.725954429460373,53.15640864507385,1.4362977214730188,0.8349789144529048,A,1350,Correct
2,relearn,55,7,A,42.89127100052752,65.18603878511846,2.1445635500263758,1.0239399028197376,B,863,Incorrect
2,relearn,55,8,B,59.55344301245253,46.40773017252701,2.9776721506226265,0.7289709208989412,B,2144,Correct
2,relearn,55,9,A,24.412298004917012,45.899390346488104,1.2206149002458506,0.7209859375838865,A,844,Correct
2,relearn,55,10,B,52.96545841434731,25.159116943675627,2.648272920717366,0.39519848480528924,B,833,Correct
2,relearn,55,11,A,19.642326585645783,46.3905580167844,0.9821163292822891,0.7287011813073048,A,666,Correct
2,relearn,55,12,B,50.41847616065635,32.21668113322895,2.5209238080328173,0.506058443855985,B,1020,Correct
2,relearn,55,13,B,60.18142319903588,45.05223121522479,3.009071159951794,0.7076787930678949,B,831,Correct
2,relearn,55,14,B,63.52845537207872,40.30366568808297,3.1764227686039357,0.6330885001921024,B,848,Correct
2,relearn,55,15,B,75.57852300957552,55.55442161449232,3.778926150478776,0.8726468140925954,B,1186,Correct
2,relearn,55,16,A,48.204792741805704,57.22201631067416,2.410239637090285,0.8988413303260463,B,1676,Incorrect
2,relearn,55,17,A,39.68325683504956,53.45634898562193,1.9841628417524781,0.8396903663048102,A,742,Correct
2,relearn,55,18,B,82.85432576226674,54.5848110236594,4.142716288113337,0.8574162065475776,B,649,Correct
2,relearn,55,19,A,24.961660089708804,38.776331911301725,1.24808300448544,0.6090971973285247,A,1201,Correct
2,relearn,55,20,B,77.73552891204467,52.331329846899536,3.8867764456022336,0.8220186069980192,B,1350,Correct
2,relearn,55,21,B,49.63122153982809,38.829238984209454,2.4815610769914045,0.6099282596863742,B,947,Correct
2,relearn,55,22,B,45.311574657001216,16.453640646421796,2.2655787328500607,0.2584531828980256,B,3111,Correct
2,relearn,55,23,A,44.203602096479734,72.43082315022683,2.2101801048239866,1.1377407095110708,A,2000,Correct
2,relearn,55,24,A,22.113477013116228,51.477248224332364,1.1056738506558113,0.8086027242429038,A,783,Correct
2,relearn,55,25,B,47.74426169020856,21.496487042781297,2.387213084510428,0.33766602885794944,B,786,Correct
2,relearn,55,26,A,37.823161641918006,62.19430282306626,1.8911580820959002,0.9769458242204194,A,2298,Correct
2,relearn,55,27,B,70.21568410091724,42.07491903372277,3.510784205045862,0.6609112826836441,B,884,Correct
2,relearn,55,28,B,53.78819702820084,41.96417728765985,2.689409851410042,0.6591717554042592,B,691,Correct
2,relearn,55,29,B,58.396405503935576,29.296792717345177,2.919820275196779,0.46019294387277276,B,1144,Correct
2,relearn,55,30,A,61.4144571708136,79.70207906436919,3.0707228585406803,1.2519573303222753,B,2222,Incorrect
2,relearn,55,31,B,56.06203099988372,29.596638916752564,2.803101549994186,0.4649029169590982,B,872,Correct
2,relearn,55,32,B,56.41137021594411,42.094828078545,2.8205685107972056,0.6612240132284116,B,676,Correct
2,relearn,55,33,A,41.39796699555668,61.7061915900749,2.069898349777834,0.969278590901918,A,831,Correct
2,relearn,55,34,B,69.06246863098494,54.13522778080096,3.4531234315492467,0.850354169482872,B,759,Correct
2,relearn,55,35,B,82.69316102990662,53.93514310758763,4.134658051495331,0.8472112467855571,B,594,Correct
2,relearn,55,36,A,33.32439632998464,54.54016810210942,1.666219816499232,0.8567149571756965,A,922,Correct
2,relearn,55,37,B,53.158847511060145,29.155527107791904,2.657942375553007,0.45797394886688564,B,503,Correct
2,relearn,55,38,B,51.43573473659002,23.637183815465743,2.571786736829501,0.3712920151310936,B,900,Correct
2,relearn,55,39,B,73.17490197957862,40.339832529254586,3.6587450989789314,0.6336566076047438,B,1044,Correct
2,relearn,55,40,A,37.55366544111492,55.03527801504044,1.8776832720557461,0.8644921255016145,A,768,Correct
2,relearn,55,41,A,47.68017213159006,66.47660546810108,2.384008606579503,1.0442120768708671,A,734,Correct
2,relearn,55,42,A,37.28670316100311,70.46585383528141,1.8643351580501557,1.1068750436892612,A,808,Correct
2,relearn,55,43,B,52.96614919101684,30.01288600498462,2.648307459550842,0.471441310931438,B,576,Correct
2,relearn,55,44,B,75.32858309853074,52.734582589402265,3.7664291549265374,0.8283528862649517,B,643,Correct
2,relearn,55,45,B,74.59324165571815,55.15521829714193,3.7296620827859073,0.8663761430472121,A,2940,Incorrect
2,relearn,55,46,B,49.07488996417032,21.530425543285453,2.453744498208516,0.33819913357723813,B,1701,Correct
2,relearn,55,47,A,44.75306858914149,61.50392875408736,2.2376534294570747,0.9661014537037543,A,2578,Correct
2,relearn,55,48,B,75.73905032422275,64.83485926226197,3.786952516211137,1.0184235877742518,A,860,Incorrect
2,relearn,55,49,B,64.58315754095977,41.97259049031106,3.2291578770479883,0.6593039096824703,B,1084,Correct
2,relearn,55,50,A,26.484518575402095,48.17312963609892,1.3242259287701048,0.7567017508259855,A,961,Correct
2,relearn,55,51,A,45.95687315784309,58.153578910951175,2.2978436578921544,0.9134742814329927,B,1690,Incorrect
2,relearn,55,52,A,36.05210906498503,46.94653786299843,1.8026054532492515,0.7374344923093546,B,1149,Incorrect
2,relearn,55,53,B,55.64552303974586,24.413116261955167,2.7822761519872934,0.3834803334989593,B,811,Correct
2,relearn,55,54,A,63.646872321579515,82.66798240720809,3.1823436160789758,1.2985456310878758,A,1055,Correct
2,relearn,55,55,A,52.47447164947672,68.84541764069021,2.623723582473836,1.0814212914665675,A,953,Correct
2,relearn,55,56,A,47.127958703112554,68.01734651064541,2.3563979351556275,1.0684139805725748,A,697,Correct
2,relearn,55,57,A,46.206153471921105,74.84281720622987,2.3103076735960553,1.1756282235452775,A,1089,Correct
2,relearn,55,58,B,49.91091784518636,31.11575137656981,2.495545892259318,0.48876507967779104,B,747,Correct
2,relearn,55,59,B,64.85095475893462,57.167990145658074,3.242547737946731,0.8979926893104655,B,4048,Correct
2,relearn,55,60,A,50.57568581003567,79.18248081868371,2.528784290501784,1.2437955001649572,B,983,Incorrect
2,relearn,55,61,A,33.20428394233824,54.35715543160241,1.660214197116912,0.8538402008698032,A,1348,Correct
2,relearn,55,62,A,37.4404251754079,48.94450834848772,1.8720212587703953,0.7688185393058666,A,735,Correct
2,relearn,55,63,A,20.44746997283333,49.54872567872135,1.0223734986416664,0.7783095629350345,A,995,Correct
2,relearn,55,64,A,63.98546952416478,83.71533635708099,3.199273476208239,1.3149974284610206,A,2325,Correct
2,relearn,55,65,B,76.66029401463868,47.07975957882384,3.833014700731934,0.7395271341280333,B,992,Correct
2,relearn,55,66,B,74.445525114721,49.141268182906266,3.72227625573605,0.7719092355575208,B,1313,Correct
2,relearn,55,67,A,38.3476972713384,61.6287949168549,1.91738486356692,0.9680628468019167,A,1283,Correct
2,relearn,55,68,B,53.137578900886204,28.237611412984144,2.65687894504431,0.44355536284977143,B,1482,Correct
2,relearn,55,69,B,47.054584174065155,39.58960480673026,2.352729208703258,0.6218720580967347,B,1330,Correct
2,relearn,55,70,B,57.198414356899406,37.2390422374684,2.8599207178449704,0.5849495075997536,B,997,Correct
2,relearn,55,71,B,78.70206258216722,47.591317525753325,3.935103129108361,0.747562667567829,B,979,Correct
2,relearn,55,72,A,47.729192848878256,67.2662589648285,2.3864596424439126,1.056615924991869,A,901,Correct
2,relearn,55,73,A,25.271713181003435,41.25770761632708,1.2635856590501717,0.6480745557570441,A,1014,Correct
2,relearn,55,74,B,67.20052851535621,46.89322555096358,3.3600264257678107,0.7365970644701818,B,1155,Correct
2,relearn,55,75,A,69.78730368522521,85.85657936358794,3.4893651842612603,1.3486319949549848,A,1096,Correct
2,relearn,55,76,B,81.03141049612822,65.36654008819481,4.051570524806411,1.0267752106582777,A,910,Incorrect
2,relearn,55,77,A,34.48517348185562,56.082903669182485,1.7242586740927808,0.8809481907954386,A,1183,Correct
2,relearn,55,78,B,82.6231868075401,53.930623233453055,4.131159340377005,0.8471402487686757,B,959,Correct
2,relearn,55,79,B,82.70754301041707,68.13027344370983,4.135377150520854,1.0701878326891128,B,814,Correct
2,relearn,55,80,A,36.536912791045346,58.87599232391974,1.8268456395522674,0.9248219247881765,A,1623,Correct
2,relearn,55,81,A,34.81641792153626,49.457126061354664,1.7408208960768128,0.7768707195100806,A,825,Correct
2,relearn,55,82,B,58.740811249927354,29.11564478426407,2.937040562496368,0.45734747879386994,B,1375,Correct
2,relearn,55,83,B,84.0244389351503,64.20259443745213,4.201221946757515,1.0084919951305227,B,3342,Correct
2,relearn,55,84,B,70.09528393204589,38.97761923390845,3.5047641966022947,0.612259011198335,B,1535,Correct
2,relearn,55,85,A,32.818401929392124,49.05636126941359,1.640920096469606,0.7705755208791828,A,1213,Correct
2,relearn,55,86,A,54.66316627059538,71.69217598606518,2.7331583135297692,1.1261380669884449,B,3477,Incorrect
2,relearn,55,87,B,50.53105519748941,37.17470378523791,2.5265527598744706,0.5839388815554004,B,1092,Correct
2,relearn,55,88,A,14.654451695580377,43.42214775654816,0.7327225847790189,0.6820735019753111,A,756,Correct
2,relearn,55,89,B,36.84665378169711,11.17877728490518,1.8423326890848555,0.17559582297187284,A,1534,Incorrect
2,relearn,55,90,A,17.580998560806556,38.65052219459394,0.8790499280403279,0.6071209829197278,A,719,Correct
2,relearn,55,91,B,87.63153490859504,62.31089612664216,4.381576745429752,0.9787772675502786,B,1179,Correct
2,relearn,55,92,B,70.56896974753938,39.07287810377302,3.528448487376969,0.6137553340271141,B,3017,Correct
2,relearn,55,93,A,61.153535951388925,71.1616818845672,3.0576767975694463,1.117805085128251,B,932,Incorrect
2,relearn,55,94,A,42.95405447236902,69.23338121484787,2.147702723618451,1.0875154090387382,A,982,Correct
2,relearn,55,95,B,85.67806472539615,67.69260415041883,4.283903236269808,1.0633129395065888,B,2197,Correct
2,relearn,55,96,A,17.22881965979753,44.812131083594174,0.8614409829898765,0.7039073090196114,A,699,Correct
2,relearn,55,97,A,32.36225267594571,56.71938710464417,1.6181126337972855,0.8909460492203288,A,1518,Correct
2,relearn,55,98,B,39.47782063950049,19.371081141496294,1.9738910319750247,0.30428023103108265,A,3470,Incorrect
2,relearn,55,99,B,54.15903589405474,47.524743581866254,2.707951794702737,0.7465169265026484,B,1015,Correct
2,relearn,55,100,A,10.403822707027832,33.08088271595736,0.5201911353513915,0.519633290573586,A,720,Correct
2,relearn,55,101,A,20.979172516831362,45.86231351733031,1.0489586258415682,0.7204035361133838,A,3925,Correct
2,relearn,55,102,B,47.97068160476522,33.475407659846546,2.398534080238261,0.525830473900487,B,3020,Correct
2,relearn,55,103,A,35.037242785781615,64.06778980057005,1.7518621392890807,1.0063744888460298,A,1727,Correct
2,relearn,55,104,A,40.131063094457794,50.115143202491055,2.00655315472289,0.7872068285927317,A,1541,Correct
2,relearn,55,105,A,34.98871920562365,49.28442184385889,1.7494359602811826,0.7741578880054368,A,3368,Correct
2,relearn,55,106,A,41.81965293712377,65.96791303146915,2.0909826468561885,1.0362215547615692,A,9312,Correct
2,relearn,55,107,A,35.91336353575788,49.69851800874608,1.795668176787894,0.7806624953528835,A,708,Correct
2,relearn,55,108,A,40.29780042636608,55.803163563299904,2.014890021318304,0.876554043487663,A,623,Correct
2,relearn,55,109,B,64.82462892419265,32.44485599201636,3.2412314462096328,0.5096426061564868,B,934,Correct
2,relearn,55,110,A,41.09349022768315,64.09822697398697,2.0546745113841576,1.006852594848043,A,767,Correct
2,relearn,55,111,A,66.56043330009429,89.11176133265374,3.3280216650047145,1.39976427375556,B,2991,Incorrect
2,relearn,55,112,B,73.23889062213489,58.6016131616031,3.6619445311067444,0.9205119869850162,B,1536,Correct
2,relearn,55,113,B,40.387233684575094,22.05699622838444,2.019361684228755,0.3464704865567516,A,679,Incorrect
2,relearn,55,114,B,44.10977907386473,20.466532409753928,2.2054889536932363,0.32148753931470175,B,2426,Correct
2,relearn,55,115,B,40.01318000603991,22.22901407628082,2.0006590003019955,0.3491725365929396,A,943,Incorrect
2,relearn,55,116,B,50.94560944522294,25.92503384426358,2.5472804722611473,0.4072294793460261,B,838,Correct
2,relearn,55,117,B,65.32741695277257,32.39963616460939,3.2663708476386284,0.5089322947685951,B,729,Correct
2,relearn,55,118,A,58.02815406960363,83.62741863439493,2.901407703480181,1.3136164201024663,A,1073,Correct
2,relearn,55,119,B,65.76955229924668,37.67165405908716,3.2884776149623343,0.5917449582030218,B,1030,Correct
2,relearn,55,120,B,79.04165976410606,56.78456331615869,3.952082988205303,0.891969834756743,B,1632,Correct
2,relearn,55,121,A,49.518162535791404,65.63818911924379,2.4759081267895704,1.0310422636597687,B,2788,Incorrect
2,relearn,55,122,A,51.84281852670357,72.09441656372422,2.5921409263351785,1.1324564472071916,A,1034,Correct
2,relearn,55,123,A,30.31957838023655,46.03485461411454,1.5159789190118276,0.7231138053238823,A,1022,Correct
2,relearn,55,124,A,52.03556646949686,71.84596475696512,2.601778323474843,1.1285537753527641,A,2268,Correct
2,relearn,55,125,A,62.07655012327305,77.97691282024145,3.103827506163652,1.2248584823284114,B,1781,Incorrect
2,relearn,55,126,B,50.144416044917456,30.709244795952483,2.5072208022458726,0.4823796892412745,A,1242,Incorrect
2,relearn,55,127,B,75.89749533862735,64.40448625660173,3.7948747669313674,1.011663304409824,B,769,Correct
2,relearn,55,128,A,30.782048856220996,42.67674541330766,1.5391024428110498,0.6703647493478462,A,1665,Correct
2,relearn,55,129,A,40.335344318441486,48.76949292189438,2.016767215922074,0.766069403413614,A,2350,Correct
2,relearn,55,130,B,71.02431572193353,44.360455520800286,3.5512157860966767,0.6968124058702148,B,913,Correct
2,relearn,55,131,A,46.49888428986452,60.32155870998376,2.324944214493226,0.9475288284818519,A,1833,Correct
2,relearn,55,132,B,66.48741000199269,47.94979496667654,3.324370500099634,0.7531936180422393,B,1297,Correct
2,relearn,55,133,A,54.781812994893706,84.16011802601061,2.7390906497446856,1.3219840425788243,A,1444,Correct
2,relearn,55,134,A,43.560095774140486,62.79818826277245,2.178004788707024,0.9864316345253734,A,848,Correct
2,relearn,55,135,B,77.03291673877338,59.04074185104862,3.851645836938669,0.9274098043087291,B,1021,Correct
2,relearn,55,136,A,49.21087505522223,80.65485849807973,2.4605437527611116,1.266923554669458,A,1042,Correct
2,relearn,55,137,B,67.360785789818,54.03810226135577,3.3680392894909,0.8488285253910461,B,833,Correct
2,relearn,55,138,B,49.08571677825842,29.808909151936746,2.454285838912921,0.46823725001625016,B,1536,Correct
2,relearn,55,139,A,34.15720143517949,50.91358966471765,1.7078600717589745,0.7997487962928109,A,803,Correct
2,relearn,55,140,B,51.51273437821827,34.682640652441265,2.5756367189109137,0.544793645404021,B,1461,Correct
2,relearn,55,141,B,81.71180301304294,66.69635134349673,4.085590150652147,1.0476638370098652,A,1101,Incorrect
2,relearn,55,142,B,56.55271463162143,37.928861965213805,2.827635731581071,0.595785170544685,B,1284,Correct
2,relearn,55,143,B,68.64897233983088,51.654481049965746,3.432448616991544,0.8113866909578278,B,872,Correct
2,relearn,55,144,B,69.05677528924346,44.330759043822134,3.452838764462173,0.6963459347006545,B,779,Correct
2,relearn,55,145,A,25.643048332464822,46.76563640915335,1.282152416623241,0.7345928989172377,A,969,Correct
2,relearn,55,146,A,11.54329687499109,35.44304790457551,0.5771648437495545,0.5567380945892276,A,1077,Correct
2,relearn,55,147,A,46.401820016133634,62.480261087462765,2.3200910008066815,0.9814376461337263,B,2835,Incorrect
2,relearn,55,148,A,51.432536449005184,69.91416064414528,2.571626822450259,1.0982090673077174,A,901,Correct
2,relearn,55,149,B,67.01603192083286,43.323123598069046,3.350801596041643,0.6805180341312815,B,1862,Correct
2,relearn,55,150,A,61.618115613704006,82.80886970615481,3.0809057806852,1.3007586836046516,A,1058,Correct
2,relearn,55,151,B,61.54027585369951,28.474475844520114,3.077013792684976,0.44727602063982214,B,820,Correct
2,relearn,55,152,A,15.069952965737212,42.714863955614874,0.7534976482868606,0.6709635140102357,A,967,Correct
2,relearn,55,153,B,80.8483771972171,58.63297949475794,4.042418859860856,0.9210046881940626,B,2233,Correct
2,relearn,55,154,B,77.8432976088205,49.18899474692209,3.8921648804410256,0.7726589226719868,B,968,Correct
2,relearn,55,155,B,79.50772818829208,58.736479598255876,3.9753864094146034,0.922630464018037,B,15446,Correct
2,relearn,55,156,B,89.53314054938443,64.66917541300681,4.476657027469221,1.0158210319560594,B,737,Correct
2,relearn,55,157,B,54.15978972325918,44.354590362459476,2.7079894861629588,0.6967202761784367,B,1063,Correct
2,relearn,55,158,A,50.85928929098364,67.18961441103143,2.542964464549182,1.055411995156136,B,6019,Incorrect
2,relearn,55,159,A,13.728695686936753,32.33765270919104,0.6864347843468377,0.5079586609276633,A,723,Correct
2,relearn,55,160,A,36.12601413771937,44.999817663828054,1.8063007068859687,0.7068554829278122,A,1528,Correct
2,relearn,55,161,B,71.45817804245154,51.8994579500534,3.572908902122577,0.8152347791059007,B,2145,Correct
2,relearn,55,162,A,63.13112378509258,78.0040532957045,3.1565561892546294,1.2252848039200595,A,719,Correct
2,relearn,55,163,A,21.988136628443076,37.970535672176,1.0994068314221537,0.5964397796028864,A,656,Correct
2,relearn,55,164,B,83.41520300361627,59.55283100712781,4.170760150180814,0.9354536819623359,B,1313,Correct
2,relearn,55,165,A,28.980802298714366,57.966068584522496,1.4490401149357184,0.9105288761130897,A,749,Correct
2,relearn,55,166,A,56.708856986792114,73.68292018973862,2.8354428493396058,1.1574086038156295,B,2159,Incorrect
2,relearn,55,167,A,41.21483380411543,69.06533434404048,2.0607416902057714,1.084875734964802,A,2000,Correct
2,relearn,55,168,B,67.70699232946033,50.11842028647676,3.3853496164730164,0.7872583049076053,B,21144,Correct
2,relearn,55,169,B,43.92489987226145,15.091601791264424,2.1962449936130723,0.2370583265916944,B,1125,Correct
2,relearn,55,170,A,25.470162492587853,39.73942271899416,1.2735081246293927,0.624225392359457,A,836,Correct
2,relearn,55,171,A,21.97979218496095,38.84410575635867,1.0989896092480476,0.610161786397207,A,773,Correct
2,relearn,55,172,A,31.069031293363842,53.6774325127607,1.5534515646681921,0.8431631382282546,B,1284,Incorrect
2,relearn,55,173,A,61.95770780345928,75.93516804621892,3.097885390172964,1.192786830415539,B,1821,Incorrect
2,relearn,55,174,A,54.032394860149005,84.05042756412112,2.7016197430074502,1.3202610288326198,A,753,Correct
2,relearn,55,175,A,43.64270496275115,73.81687884024382,2.1821352481375573,1.159512821377189,A,967,Correct
2,relearn,55,176,B,80.25682102507187,49.10963166324602,4.012841051253593,0.771412290268772,B,1623,Correct
2,relearn,55,177,A,56.140275073889214,75.86542527256182,2.8070137536944606,1.1916913134887284,A,814,Correct
2,relearn,55,178,A,39.46425465021194,55.54689172278109,1.9732127325105973,0.8725285348301839,A,3651,Correct
2,relearn,55,179,A,22.932927219820545,37.78029664919623,1.1466463609910271,0.5934515120177898,A,852,Correct
2,relearn,55,180,A,17.06255422299362,45.591112359774435,0.8531277111496809,0.7161435182922709,A,598,Correct
2,relearn,55,181,B,62.70613142308934,45.67733912773085,3.1353065711544668,0.7174979651960444,B,1240,Correct
2,relearn,55,182,A,61.18705203669775,75.33501990367202,3.0593526018348878,1.1833597254370845,A,931,Correct
2,relearn,55,183,A,32.51006448205406,59.57092997910337,1.6255032241027032,0.9357379799493155,A,684,Correct
2,relearn,55,184,B,47.23260986433757,19.015052782189233,2.3616304932168783,0.29868775064073927,B,1001,Correct
2,relearn,55,185,A,19.728571672507066,44.48998378908647,0.9864285836253532,0.6988470311506152,A,728,Correct
2,relearn,55,186,B,66.02267766154708,43.290405409233784,3.3011338830773536,0.6800040980228634,B,918,Correct
2,relearn,55,187,B,35.826691460250025,19.713647890027573,1.7913345730125014,0.3096612569338328,A,763,Incorrect
2,relearn,55,188,A,41.764649365486406,57.20506303809164,2.0882324682743203,0.8985750289430486,B,1067,Incorrect
2,relearn,55,189,B,58.55069430613591,42.27839679700295,2.9275347153067957,0.6641075039150934,B,994,Correct
2,relearn,55,190,A,30.938793067598436,55.83931326132502,1.5469396533799218,0.877121881616389,A,801,Correct
2,relearn,55,191,B,63.23760689223021,55.37840795517282,3.1618803446115105,0.8698819979973474,B,1080,Correct
2,relearn,55,192,B,35.170100711714795,18.89133119792656,1.7585050355857397,0.29674433653968874,A,996,Incorrect
2,relearn,55,193,A,21.110986915673006,40.61338841622664,1.0555493457836505,0.6379536134290321,A,861,Correct
2,relearn,55,194,A,27.6627709757879,48.212231627340365,1.383138548789395,0.7573159634681098,A,820,Correct
2,relearn,55,195,B,68.06069276577773,54.38757762905403,3.4030346382888865,0.8543180716299036,B,775,Correct
2,relearn,55,196,A,54.698795315017186,64.41242473112355,2.7349397657508594,1.0117880016760163,B,1754,Incorrect
2,relearn,55,197,A,33.331122600818226,56.560535192545046,1.6665561300409113,0.8884508092200324,A,791,Correct
2,relearn,55,198,A,43.226176505952736,64.9580766500538,2.161308825297637,1.0203590819756587,B,16583,Incorrect
2,relearn,55,199,B,74.26439847532576,62.464013549129334,3.7132199237662884,0.98118243039839,B,764,Correct
2,relearn,55,200,A,46.158946563192494,56.31242887268559,2.307947328159625,0.884553564261134,A,1136,Correct
2,relearn,55,201,B,59.84082010785732,39.709530838007545,2.9920410053928657,0.6237558517909092,B,941,Correct
2,relearn,55,202,B,36.02669792181236,21.57858516063506,1.8013348960906177,0.33895562307756416,A,693,Incorrect
2,relearn,55,203,B,48.65895272135985,41.30423658876945,2.432947636067993,0.6488054311470642,B,1206,Correct
2,relearn,55,204,A,69.54808285129539,84.63486866425005,3.4774041425647693,1.3294414081657249,B,676,Incorrect
2,relearn,55,205,A,23.413216401640124,52.23998680963506,1.1706608200820063,0.820583793923886,A,708,Correct
2,relearn,55,206,B,53.341167581658496,32.0662350198053,2.667058379082925,0.5036952418325205,B,1147,Correct
2,relearn,55,207,A,23.68439088977068,53.163938991772206,1.184219544488534,0.8350972008622375,A,687,Correct
2,relearn,55,208,B,46.50997814945997,30.419462247690653,2.3254989074729986,0.477827795617485,B,2858,Correct
2,relearn,55,209,B,46.36599567987693,19.314174055888824,2.3182997839938464,0.30338633662067455,B,706,Correct
2,relearn,55,210,B,66.52584460800465,49.33503398700954,3.3262922304002327,0.7749529016909598,B,1315,Correct
2,relearn,55,211,A,46.32611505752832,60.64664498010048,2.3163057528764157,0.9526352716717598,B,2180,Incorrect
2,relearn,55,212,B,57.01729605599937,45.717217587212,2.850864802799969,0.7181243745727566,B,1257,Correct
2,relearn,55,213,B,60.2853025598629,27.3300215355626,3.014265127993145,0.4292989743928715,B,1063,Correct
2,relearn,55,214,A,44.08833408464714,70.18915187703472,2.2044167042323566,1.1025286194929527,A,1315,Correct
2,relearn,55,215,B,38.57317444610773,13.313393110967578,1.9286587223053864,0.20912628995884353,B,650,Correct
2,relearn,55,216,A,31.147742185527214,48.79948349196612,1.5573871092763607,0.7665404941866858,A,778,Correct
2,relearn,55,217,B,55.88430568446843,38.472988303822405,2.794215284223421,0.6043322870846726,B,865,Correct
2,relearn,55,218,B,48.3117817954615,34.633945599380475,2.415589089773075,0.5440287452992112,B,1153,Correct
2,relearn,55,219,A,38.59953361860715,53.22120643298745,1.9299766809303573,0.8359967557252961,A,1147,Correct
2,relearn,55,220,A,39.646973702226184,48.031857363152135,1.982348685111309,0.7544826511517578,A,670,Correct
2,relearn,55,221,A,26.301232156012595,56.46147130533369,1.3150616078006296,0.886894717318536,A,605,Correct
2,relearn,55,222,B,79.98625215588899,62.026893469190156,3.9993126077944496,0.9743161642390226,B,1028,Correct
2,relearn,55,223,B,56.90084523509623,43.623190646791876,2.845042261754811,0.6852314763105417,B,890,Correct
2,relearn,55,224,A,59.39045439180073,67.84143878372132,2.969522719590037,1.0656508284595028,B,1110,Incorrect
2,relearn,55,225,B,75.60432726820189,59.75240909051165,3.7802163634100943,0.9385886471652167,B,917,Correct
2,relearn,55,226,B,86.13457066889562,66.33545146821234,4.3067285334447805,1.0419948350254906,B,1416,Correct
2,relearn,55,227,B,61.99316781153408,44.91744949913366,3.099658390576704,0.7055616468223442,A,1375,Incorrect
2,relearn,55,228,A,29.67562457016834,50.55312583429815,1.4837812285084169,0.7940866436851574,A,700,Correct
2,relearn,55,229,B,87.70822986949727,64.56283537539306,4.385411493474863,1.0141506465513104,B,961,Correct
2,relearn,55,230,A,37.72296571192149,55.11542326245503,1.8861482855960745,0.8657510441041035,A,854,Correct
2,relearn,55,231,A,47.34766851721434,56.88278334733994,2.367383425860717,0.8935126713987148,B,2060,Incorrect
2,relearn,55,232,B,77.65761571016625,59.409996695872096,3.882880785508313,0.9332100458477284,B,677,Correct
2,relearn,55,233,B,78.76744307261137,53.13396645864355,3.938372153630569,0.8346263934128053,B,584,Correct
2,relearn,55,234,A,51.25601823430458,71.53765687553131,2.562800911715229,1.1237108864759826,A,1334,Correct
2,relearn,55,235,A,28.385267502851363,60.16674504543167,1.4192633751425683,0.9450970211256912,A,850,Correct
2,relearn,55,236,A,14.14103433566888,36.53403379199388,0.707051716783444,0.5738752608346461,A,676,Correct
2,relearn,55,237,A,60.641937563558066,78.93399605803012,3.0320968781779034,1.2398923106719655,B,3989,Incorrect
2,relearn,55,238,B,45.77877065203112,19.44524752842096,2.288938532601556,0.30544523391261186,B,983,Correct
2,relearn,55,239,B,79.34314020171328,56.768203871289764,3.9671570100856637,0.8917128611976578,B,951,Correct
2,relearn,55,240,B,59.26620120170721,39.121260015741264,2.9633100600853606,0.6145153153231444,B,806,Correct
2,relearn,55,241,A,30.41149619270891,42.0769329370617,1.5205748096354454,0.6609429170033171,A,1623,Correct
2,relearn,55,242,A,69.74776393218768,88.3810996632945,3.487388196609384,1.388287067091967,B,1903,Incorrect
2,relearn,55,243,B,70.51125494189144,37.7505302414483,3.525562747094572,0.5929839423782666,B,1224,Correct
2,relearn,55,244,B,87.07601559477881,62.6709220573149,4.353800779738941,0.9844325416447949,A,873,Incorrect
2,relearn,55,245,A,53.412366435905206,61.82922207807227,2.6706183217952604,0.9712111492882185,B,1285,Incorrect
2,relearn,55,246,A,54.53101127750567,68.78031624043524,2.726550563875284,1.0803986810626705,A,929,Correct
2,relearn,55,247,A,15.542886185744987,38.27806574984983,0.7771443092872494,0.6012704507667764,A,805,Correct
2,relearn,55,248,A,19.963489282543787,42.70415228688552,0.9981744641271894,0.6707952555112965,A,679,Correct
2,relearn,55,249,B,73.8497879787039,46.875098951138284,3.692489398935195,0.7363123325059532,B,1322,Correct
2,relearn,55,250,B,59.647974775947745,26.709862007287747,2.9823987387973876,0.41955753130246154,B,1178,Correct
2,relearn,55,251,A,33.74152171773295,42.52178514857706,1.6870760858866476,0.6679306392014663,A,1382,Correct
2,relearn,55,252,A,24.301346959237677,42.44918758172202,1.2150673479618839,0.6667902792879649,A,872,Correct
2,relearn,55,253,A,22.683576334905972,54.03772468540442,1.1341788167452986,0.8488225944418717,A,545,Correct
2,relearn,55,254,A,37.73646629655017,59.91528666177632,1.8868233148275084,0.9411471220718151,A,2878,Correct
2,relearn,55,255,A,48.75209754926105,76.94371219070182,2.4376048774630528,1.2086290047911812,A,1227,Correct
2,relearn,55,256,B,37.66137912122669,25.426659323813787,1.8830689560613343,0.39940103068511906,B,1192,Correct
2,relearn,55,257,B,45.0383428267954,20.23835375570514,2.25191714133977,0.31790331739837335,B,859,Correct
2,relearn,55,258,A,29.31966285925825,52.165497332162744,1.4659831429629124,0.819413715947902,A,755,Correct
2,relearn,55,259,B,64.22965949407073,33.34074923721657,3.2114829747035367,0.5237152643440953,B,1067,Correct
2,relearn,55,260,B,78.46614623329447,62.51647660341378,3.9233073116647232,0.9820065181280144,B,1390,Correct
2,relearn,55,261,A,66.13440108583293,78.00009928160952,3.3067200542916466,1.2252226944118947,A,2277,Correct
2,relearn,55,262,B,50.948794488098386,30.703173229770897,2.547439724404919,0.48228431730271526,B,807,Correct
2,relearn,55,263,A,25.232245311039392,41.816320948180504,1.2616122655519697,0.6568492334547843,A,884,Correct
2,relearn,55,264,A,54.380979865653984,70.58584444949062,2.7190489932826996,1.1087598518497581,B,1847,Incorrect
2,relearn,55,265,B,43.22777503954359,31.837776474960727,2.1613887519771793,0.5001066234018527,B,589,Correct
2,relearn,55,266,A,67.2305585792478,84.37604923904014,3.3615279289623903,1.3253758821414958,A,776,Correct
2,relearn,55,267,A,14.695858770462554,41.93434746245113,0.7347929385231277,0.6587031896055913,A,653,Correct
2,relearn,55,268,B,59.96352365828893,44.14261006299689,2.9981761829144467,0.6933904974209495,B,1523,Correct
2,relearn,55,269,A,31.56496056635589,59.70386072911241,1.5782480283177944,0.9378260512876385,A,1078,Correct
2,relearn,55,270,A,38.10735769882367,69.01423187612696,1.9053678849411835,1.084073019275915,A,2182,Correct
2,relearn,55,271,B,71.77526580499482,44.21089289861275,3.588763290249741,0.6944630816946348,B,785,Correct
2,relearn,55,272,B,73.9704030714489,45.24679294596646,3.6985201535724452,0.7107349615877335,B,559,Correct
2,relearn,55,273,B,54.372638184758046,34.87606892389613,2.718631909237902,0.5478320095870168,B,536,Correct
2,relearn,55,274,A,57.83224579490491,70.50006563905637,2.8916122897452454,1.1074124414462887,A,770,Correct
2,relearn,55,275,A,21.422785948064305,52.403774767190974,1.0711392974032152,0.8231565691449066,A,649,Correct
2,relearn,55,276,A,28.678820793436945,50.39081669390892,1.4339410396718473,0.7915370976698709,A,1286,Correct
2,relearn,55,277,B,56.72458633181141,39.9066980653968,2.83622931659057,0.6268529473563831,B,1935,Correct
2,relearn,55,278,A,43.962772991744835,63.98964481959394,2.1981386495872415,1.0051469903552825,B,1475,Incorrect
2,relearn,55,279,B,47.343037314727965,18.82647554139543,2.367151865736398,0.295725586269179,B,756,Correct
2,relearn,55,280,B,62.64200198982546,39.511354686782894,3.1321000994912733,0.6206429080868889,B,1239,Correct
2,relearn,55,281,A,62.059641463107,78.67193051255377,3.10298207315535,1.235775794709828,A,1152,Correct
2,relearn,55,282,A,63.597937588811604,82.47849258930435,3.17989687944058,1.2955691319885936,A,720,Correct
2,relearn,55,283,A,63.82154863684856,79.99676406435333,3.191077431842428,1.256586231477642,A,792,Correct
2,relearn,55,284,A,50.98187353809605,81.0861708017868,2.549093676904803,1.2736985924931032,A,948,Correct
2,relearn,55,285,A,62.78669847571405,84.16134165846042,3.1393349237857024,1.322003263352399,A,523,Correct
2,relearn,55,286,A,47.46425521254311,71.36192062095655,2.373212760627155,1.1209504278442755,A,2160,Correct
2,relearn,55,287,B,75.31916719793911,57.85025028494002,3.7659583598969557,0.908709606517492,A,915,Incorrect
2,relearn,55,288,A,38.33431831397822,69.96683785889009,1.9167159156989113,1.0990365190619866,A,997,Correct
2,relearn,55,289,B,75.99067519213357,57.284765631689964,3.7995337596066783,0.8998269943556512,B,1945,Correct
2,relearn,55,290,B,51.33441744145849,38.16497277929305,2.5667208720729247,0.5994939905394073,B,1872,Correct
2,relearn,55,291,B,67.29581333704816,34.007617073617055,3.364790666852408,0.5341903998228508,B,1200,Correct
2,relearn,55,292,B,53.56831104130518,26.19586969927584,2.6784155520652586,0.41148375900820217,B,800,Correct
2,relearn,55,293,A,32.00565747780549,63.52704891112523,1.6002828738902748,0.9978805508171523,A,952,Correct
2,relearn,55,294,B,57.38890906584994,27.590963959059536,2.869445453292497,0.433397848396211,B,657,Correct
2,relearn,55,295,A,61.71655069898875,87.9286800391342,3.0858275349494373,1.3811804762539577,A,772,Correct
2,relearn,55,296,B,57.761316190087356,27.3484388758965,2.888065809504368,0.4295882732983297,B,961,Correct
2,relearn,55,297,A,45.50990180589001,59.022937049595846,2.2754950902945006,0.9271301271415157,A,1229,Correct
2,relearn,55,298,A,44.77503933722963,72.15671696245872,2.2387519668614813,1.1334350595820915,A,2300,Correct
2,relearn,55,299,B,31.379299191709595,17.812684847592873,1.5689649595854798,0.27980099928953994,A,838,Incorrect
2,relearn,55,300,B,56.00253262200896,32.47321329368553,2.800126631100448,0.5100880416094844,B,1227,Incorrect
2,relearn,55,301,A,21.913790737317886,51.71538094825442,1.0956895368658943,0.8123433043231683,A,814,Incorrect
2,relearn,55,302,B,55.327430971555856,27.25338875087131,2.7663715485777924,0.42809522942582007,B,1066,Correct
2,relearn,55,303,A,53.2374305564676,67.2494575310931,2.6618715278233798,1.0563520086879044,A,945,Incorrect
2,relearn,55,304,A,36.56265866713205,61.260881439174625,1.8281329333566023,0.9622836754087315,A,750,Correct
2,relearn,55,305,A,18.235585192294465,35.56840954432226,0.9117792596147233,0.5587072706215794,A,2928,Correct
2,relearn,55,306,A,61.28220904218165,88.20252144518801,3.0641104521090825,1.3854819670014942,A,990,Correct
2,relearn,55,307,B,53.96854850094413,38.39558539194829,2.6984274250472065,0.6031164449881214,B,869,Correct
2,relearn,55,308,A,32.13945482099861,47.782990624002736,1.6069727410499304,0.7505734615545847,A,1433,Incorrect
2,relearn,55,309,A,33.87480130664708,46.63535136423789,1.6937400653323538,0.7325463862173426,A,3661,Correct
2,relearn,55,310,A,48.14838216948627,71.02560173970375,2.4074191084743135,1.1156675432112386,A,1136,Correct
2,relearn,55,311,A,22.836272674962895,51.501854069421526,1.1418136337481448,0.8089892319537413,A,2212,Incorrect
2,relearn,55,312,A,27.237766521015,45.64180654878429,1.36188832605075,0.7169398207511363,B,915,Incorrect
2,relearn,55,313,B,32.3093462186923,13.306179677469405,1.615467310934615,0.20901298161041842,B,1253,Correct
2,relearn,55,314,B,39.00490147241871,27.53243974175487,1.9502450736209354,0.4324785521405038,B,2273,Correct
2,relearn,55,315,B,47.801752565229926,35.69513652775522,2.390087628261496,0.5606978934224023,B,981,Correct
2,relearn,55,316,B,71.62797793734788,43.092703615400524,3.5813988968673938,0.6768986055073231,B,1514,Incorrect
2,relearn,55,317,B,52.261126572282976,34.18045102464004,2.613056328614149,0.5369052691769743,B,912,Incorrect
2,relearn,55,318,B,54.24797758699435,35.5177208928836,2.712398879349718,0.5579110551466792,A,1723,Correct
2,relearn,55,319,B,48.08484174162405,40.38158188707937,2.4042420870812022,0.6343124049839161,A,1910,Incorrect
2,relearn,55,320,B,81.80573038539401,51.37116499009162,4.0902865192697,0.8069363726961052,B,1346,Correct
2,relearn,55,321,B,76.17628080134764,53.22394197068242,3.808814040067382,0.8360397254509268,B,993,Incorrect
2,relearn,55,322,B,67.07749501080889,35.943558070261346,3.3538747505404443,0.5646000898870559,B,1051,Incorrect
2,relearn,55,323,B,47.01776281379364,22.85371829678239,2.350888140689682,0.358985367541911,B,1438,Incorrect
2,relearn,55,324,A,11.07155739749015,36.394062180006756,0.5535778698745075,0.5716765918949969,A,747,Incorrect
2,relearn,55,325,B,80.02612763590908,53.93565190243345,4.0013063817954535,0.8472192389163063,B,934,Incorrect
2,relearn,55,326,B,37.080303226268285,24.70797174253891,1.8540151613134142,0.3881119125573222,A,991,Incorrect
2,relearn,55,327,A,55.82332235657376,63.777238152478844,2.791166117828688,1.0018105142303708,B,657,Correct
2,relearn,55,328,B,47.77925578323341,29.1604674480341,2.3889627891616705,0.4580515515499411,B,708,Incorrect
2,relearn,55,329,A,37.15174703165776,52.20401544962847,1.857587351582888,0.8200187571222044,B,597,Incorrect
2,relearn,55,330,B,36.464219295681204,16.435826549356214,1.8232109647840602,0.2581733597156678,B,862,Incorrect
2,relearn,55,331,A,37.25382400441427,52.48272381185086,1.8626912002207134,0.8243966978384639,A,662,Incorrect
2,relearn,55,332,A,68.44064288649227,89.0436837328899,3.4220321443246133,1.3986949133190996,B,605,Incorrect
2,relearn,55,333,B,60.706544196335756,41.9109106926644,3.0353272098167876,0.6583350456866619,B,751,Correct
2,relearn,55,334,A,55.84942093649215,68.31638323891495,2.7924710468246077,1.0731112385160004,B,1468,Incorrect
2,relearn,55,335,A,38.10019908688404,67.48013040349458,1.9050099543442018,1.059975409694499,A,1599,Incorrect
2,relearn,55,336,A,57.61658542110968,84.08578701863932,2.880829271055484,1.3208164538453664,B,1165,Incorrect
2,relearn,55,337,A,18.97296798514499,39.83672547835996,0.9486483992572495,0.625753820529445,A,947,Correct
2,relearn,55,338,B,60.83197325138681,47.65390453005174,3.0415986625693403,0.7485457819323996,B,871,Incorrect
2,relearn,55,339,B,34.85427882595795,10.296569641899058,1.7427139412978974,0.16173813772082885,B,1067,Incorrect
2,relearn,55,340,B,68.95860597122268,42.955949559784386,3.4479302985611344,0.6747504778249618,B,1774,Incorrect
2,relearn,55,341,A,54.2969963151611,83.95956009789069,2.7148498157580554,1.3188336860108205,A,1657,Incorrect
2,relearn,55,342,A,50.195697865908166,66.77452220547411,2.509784893295408,1.04889174203843,B,825,Correct
2,relearn,55,343,A,14.406834967784349,36.98665761711159,0.7203417483892174,0.5809850592537937,A,738,Correct
2,relearn,55,344,A,10.9218183274286,35.85779098148451,0.5460909163714299,0.5632528636069504,A,948,Correct
2,relearn,55,345,B,62.971580022323614,33.974188306723015,3.1485790011161807,0.5336653019803864,B,741,Correct
2,relearn,55,346,B,85.3206874679918,65.15302209659708,4.26603437339959,1.0234212778892142,B,2125,Correct
2,relearn,55,347,B,47.0956854625826,27.645793666798497,2.35478427312913,0.4342591114313669,B,884,Correct
2,relearn,55,348,B,53.379537206955945,28.940107995794726,2.6689768603477972,0.45459015336841974,B,674,Incorrect
2,relearn,55,349,A,31.272384054001666,55.990592680168334,1.5636192027000835,0.8794981731707765,B,1501,Incorrect
2,relearn,55,350,A,17.262373782250865,37.25983692623282,0.8631186891125432,0.5852761498070337,A,769,Incorrect
2,relearn,55,351,B,64.31419875090283,53.648616860550646,3.215709937545142,0.8427105030217972,B,1022,Correct
2,relearn,55,352,B,53.54685258159806,35.35790584545172,2.6773426290799027,0.5554006862519537,B,837,Correct
2,relearn,55,353,A,31.615873589726426,53.84495468362575,1.5807936794863213,0.8457945703347698,A,1988,Incorrect
2,relearn,55,354,B,62.63271226867405,53.75778876671738,3.1316356134337027,0.8444253713137562,B,1023,Correct
2,relearn,55,355,A,29.41668112357955,51.91496699738145,1.4708340561789777,0.8154783946516507,A,700,Incorrect
2,relearn,55,356,A,26.684604539528298,47.516232618312095,1.334230226976415,0.7463832365997649,A,1354,Incorrect
2,relearn,55,357,A,38.458771063371366,63.426645644214574,1.922938553168568,0.9963034199885379,B,710,Incorrect
2,relearn,55,358,A,65.29152296771719,89.25674843689492,3.264576148385859,1.4020417258633069,A,3654,Correct
2,relearn,55,359,B,41.64175759626565,15.794280524470452,2.0820878798132822,0.24809597832206357,B,820,Correct
2,relearn,55,360,A,13.315365396268511,34.85650840443926,0.6657682698134255,0.5475247536658863,A,745,Correct
2,relearn,55,361,B,82.59052251067821,66.64783749963445,4.129526125533911,1.0469017833324896,B,962,Correct
2,relearn,55,362,B,66.62711242662037,50.5553246335401,3.331355621331019,0.7941211823428833,B,910,Correct
2,relearn,55,363,B,55.28926020797091,28.34497911784119,2.7644630103985457,0.44524189081382987,B,799,Correct
2,relearn,55,364,B,30.47085061365664,14.688842844221266,1.523542530682832,0.2307318038457027,A,2181,Correct
2,relearn,55,365,B,73.78631046892329,41.61617226281513,3.6893155234461643,0.6537053052569366,B,1036,Incorrect
2,relearn,55,366,A,58.83787541950822,68.60825950638265,2.9418937709754114,1.077696020204169,A,717,Incorrect
2,relearn,55,367,A,49.03403170950443,58.45546352760454,2.4517015854752215,0.9182162739025426,B,1506,Incorrect
2,relearn,55,368,A,58.42981640485016,84.68418484081643,2.921490820242508,1.330216064855745,B,1098,Correct
2,relearn,55,369,B,67.20411874774474,48.51827993546972,3.3602059373872373,0.7621233590504237,A,1528,Correct
2,relearn,55,370,A,57.7509730233792,77.56425674327625,2.88754865116896,1.218376495829146,B,570,Incorrect
2,relearn,55,371,A,48.7578476046518,64.0334557735633,2.43789238023259,1.005835171210967,A,2211,Correct
2,relearn,55,372,A,65.30552105294898,76.02134832568446,3.2652760526474487,1.1941405470798052,B,1064,Correct
2,relearn,55,373,B,86.91060651489224,65.6192324442853,4.345530325744612,1.0307444929058387,B,791,Incorrect
2,relearn,55,374,B,75.56317820384342,45.67045126133295,3.7781589101921713,0.7173897708436715,A,1746,Correct
2,relearn,55,375,B,39.15528771150274,29.130073121275597,1.957764385575137,0.4575741185816646,A,690,Correct
2,relearn,55,376,A,29.98919122200951,57.00904000841401,1.4994595611004755,0.8954959063932004,A,656,Incorrect
2,relearn,55,377,A,49.818618739902924,80.90486225328607,2.490930936995146,1.2708506044730883,B,784,Incorrect
2,relearn,55,378,B,50.95488426538343,29.233010582849623,2.5477442132691714,0.45919105644696523,B,750,Incorrect
2,relearn,55,379,A,46.725647147700805,75.78486084752154,2.3362823573850404,1.190425810459492,A,894,Correct
2,relearn,55,380,A,43.78885510668049,72.30495458474108,2.1894427553340243,1.135763570707831,A,735,Correct
2,relearn,55,381,A,60.66178713426771,76.40491101483303,3.0330893567133854,1.2001655357119065,A,714,Incorrect
2,relearn,55,382,B,30.119319115227558,13.525161593598998,1.5059659557613778,0.21245274150532714,B,8764,Correct
2,relearn,55,383,A,27.37917967175111,43.14059027759559,1.3689589835875555,0.6776508074381079,B,684,Incorrect
2,relearn,55,384,B,37.91868887265481,12.558066353023012,1.8959344436327406,0.19726164498975127,B,695,Incorrect
2,relearn,55,385,B,56.35946917659898,41.116198191613144,2.8179734588299485,0.645851730911569,B,874,Correct
2,relearn,55,386,B,34.83231168558092,16.361615174782454,1.741615584279046,0.25700765016979915,A,462,Correct
2,relearn,55,387,A,43.02873926192297,52.65288584677525,2.1514369630961485,0.8270695968326556,A,1370,Incorrect
2,relearn,55,388,B,81.15106487807864,68.20546669193762,4.057553243903932,1.0713689654702727,B,691,Correct
2,relearn,55,389,A,50.23172743496663,72.53741986242066,2.511586371748331,1.1394151267506956,B,681,Correct
2,relearn,55,390,A,41.071998191367165,68.66311747166417,2.053599909568358,1.0785577271077655,A,966,Correct
2,relearn,55,391,A,20.16930611514048,44.93442206397779,1.0084653057570239,0.7058282512474787,A,864,Incorrect
2,relearn,55,392,B,81.61182931429771,60.21468596950311,4.080591465714885,0.9458500754000368,B,710,Incorrect
2,relearn,55,393,B,47.24701829281919,31.13375209098487,2.3623509146409596,0.4890478342386196,B,4408,Incorrect
2,relearn,55,394,B,63.6380110404653,54.9357709007365,3.181900552023265,0.8629290714052286,B,784,Correct
2,relearn,55,395,B,71.05775557593387,40.078982246266364,3.5528877787966935,0.6295591809411307,A,2363,Correct
2,relearn,55,396,A,15.157792769782887,41.88770820071158,0.7578896384891444,0.6579705817953422,A,3227,Correct
2,relearn,55,397,B,71.61817853684548,52.64252205161594,3.5809089268422736,0.8269068027189767,B,2104,Incorrect
2,relearn,55,398,B,36.85155238521635,20.59787848856874,1.8425776192608174,0.3235507186961139,A,1622,Incorrect
2,relearn,55,399,B,45.761295487419574,31.74822056997875,2.2880647743709788,0.498699882535968,B,1856,Correct
2,relearn,55,400,B,61.66217092176676,35.34269937653865,3.083108546088338,0.5551618235968319,B,708,Incorrect
2,relearn,55,401,B,48.26463369098999,35.812997007301426,2.4132316845494994,0.5625492415058571,B,570,Correct
2,relearn,55,402,A,24.099588878002393,42.49774875596453,1.2049794439001196,0.6675530764292147,A,671,Incorrect
2,relearn,55,403,B,81.12198798031501,63.27305377716403,4.056099399015751,0.9938908045826522,B,1737,Correct
2,relearn,55,404,B,44.253380106675145,31.441022739004573,2.212669005333757,0.49387443029103206,A,1006,Correct
2,relearn,55,405,A,52.1904736219383,60.18826142438103,2.609523681096915,0.945434999615887,B,616,Incorrect
2,relearn,55,406,A,51.298694015150794,73.82620661992335,2.5649347007575396,1.1596593417977668,B,1630,Incorrect
2,relearn,55,407,B,44.304125349132974,21.599877132285176,2.2152062674566486,0.3392900765861464,B,1863,Correct
2,relearn,55,408,B,46.908515331715535,39.3911679283907,2.3454257665857767,0.6187550189007704,B,980,Correct
2,relearn,55,409,B,37.82198747983591,17.48518263445117,1.8910993739917956,0.2746566065553381,A,1623,Incorrect
2,relearn,55,410,B,52.68986978106451,34.27659382455309,2.6344934890532254,0.5384154767464863,B,1494,Incorrect
2,relearn,55,411,A,22.010976849655233,53.948456323958105,1.1005488424827616,0.8474203702992831,A,658,Correct
2,relearn,55,412,A,23.181230385886728,37.46086092964168,1.1590615192943363,0.5884338274685561,A,658,Correct
2,relearn,55,413,B,63.019760913896114,54.83464279738796,3.150988045694806,0.8613405548724723,B,684,Correct
2,relearn,55,414,B,86.2341032246339,64.5296655725033,4.311705161231695,1.0136296165059129,B,697,Correct
2,relearn,55,415,B,46.30183053326566,21.577031032952398,2.315091526663283,0.33893121089701117,B,1000,Correct
2,relearn,55,416,B,33.31761982546179,12.902197977828688,1.6658809912730896,0.20266725191153842,A,1476,Incorrect
2,relearn,55,417,A,25.226907491177393,56.5833677658748,1.2613453745588696,0.8888094624432088,A,1398,Incorrect
2,relearn,55,418,B,75.68294948276878,58.45261705925347,3.7841474741384387,0.9181715616822407,B,1062,Correct
2,relearn,55,419,B,56.83390705222573,47.27455339183271,2.8416953526112865,0.7425869481876005,B,627,Correct
2,relearn,55,420,A,22.995744551819485,40.82816950271271,1.1497872275909742,0.6413273868462055,A,1144,Incorrect
2,relearn,55,421,A,67.83200760306468,85.68749940964403,3.3916003801532337,1.3459760932490872,B,871,Incorrect
2,relearn,55,422,A,57.4965373521819,78.27539957565858,2.8748268676090953,1.229547101318473,B,2315,Correct
2,relearn,55,423,B,53.989180209035496,46.12454355543163,2.699459010451775,0.7245226359196323,B,793,Correct
2,relearn,55,424,A,36.26657275412577,58.72170745926097,1.8133286377062885,0.9223984238013161,A,1162,Incorrect
2,relearn,55,425,B,56.521107208593904,49.28690738456319,2.826055360429695,0.7741969307875212,B,4044,Incorrect
2,relearn,55,426,B,58.277201490896616,34.38446994582333,2.913860074544831,0.540109990896888,B,931,Correct
2,relearn,55,427,B,84.01719412267488,66.66637896037807,4.200859706133744,1.0471930319167844,A,926,Incorrect
2,relearn,55,428,A,64.34966641537102,84.51559149007412,3.217483320768551,1.3275678066950645,B,688,Incorrect
2,relearn,55,429,B,51.22018985805473,21.35158732863848,2.5610094929027367,0.33538994947065787,A,684,Incorrect
2,relearn,55,430,A,28.260075597202594,41.70621397518451,1.4130037798601296,0.6551196771674181,B,659,Incorrect
2,relearn,55,431,B,74.25835111542273,47.03183672914543,3.7129175557711362,0.7387743637655894,B,892,Incorrect
2,relearn,55,432,B,32.079217598964746,17.155928009067832,1.6039608799482374,0.2694846869940143,A,739,Correct
2,relearn,55,433,B,53.11951565508161,26.712269692063565,2.65597578275408,0.41959535112648094,A,1460,Incorrect
2,relearn,55,434,A,16.957869368782188,35.48431010703641,0.8478934684391093,0.5573862397498381,A,908,Incorrect
2,relearn,55,435,B,73.70664613072266,43.93628856971777,3.685332306536133,0.6901496069831327,B,897,Correct
2,relearn,55,436,B,83.30230405771533,55.764427984556654,4.165115202885767,0.8759455864396012,B,742,Correct
2,relearn,55,437,B,49.70036739691538,38.62076961089945,2.4850183698457693,0.6066536304279282,B,1564,Correct
2,relearn,55,438,B,78.13372890495508,52.941501444171905,3.906686445247754,0.8316031600351195,B,1584,Incorrect
2,relearn,55,439,B,73.10472204233224,62.94597679965351,3.655236102116612,0.988753091434125,A,882,Incorrect
2,relearn,55,440,B,61.921819208206216,43.20474212429786,3.0960909604103106,0.6786585022896781,B,1347,Correct
2,relearn,55,441,B,55.312957012205196,31.10243178753545,2.76564785061026,0.4885558560624952,B,860,Correct
2,relearn,55,442,B,63.62062359050841,40.4405790772277,3.1810311795254207,0.6352391306796782,B,627,Incorrect
2,relearn,55,443,A,30.199552260372364,49.61982529951255,1.5099776130186182,0.7794263931667879,A,2873,Incorrect
2,relearn,55,444,A,41.50558420450987,57.56724392817571,2.075279210225494,0.9042641530608421,B,926,Correct
2,relearn,55,445,B,70.5037906035306,56.743742624261074,3.5251895301765304,0.8913286248278429,B,984,Correct
2,relearn,55,446,B,50.19522445618553,42.781342954368135,2.5097612228092765,0.672007763680742,B,722,Correct
2,relearn,55,447,A,57.5002627152221,85.72720458891429,2.8750131357611046,1.3465997807466117,A,1373,Correct
2,relearn,55,448,B,68.26096693565732,38.12339940102346,3.4130483467828663,0.5988409574406242,B,1073,Correct
2,relearn,55,449,A,43.947790145049524,58.580254109221464,2.197389507252476,0.9201764797747671,B,4030,Correct
2,relearn,55,450,B,67.84525146024548,52.91951447207536,3.392262573012274,0.8312577894850535,B,875,Correct
2,relearn,55,451,A,32.007676816072454,48.23488223606802,1.6003838408036228,0.7576717583980005,A,1428,Correct
2,relearn,55,452,A,21.257616622408506,36.74674102573443,1.0628808311204252,0.5772164582490698,A,769,Correct
2,relearn,55,453,A,57.72650630791602,74.35623420877037,2.886325315395801,1.1679849956943753,A,1737,Correct
2,relearn,55,454,A,35.7506886047372,66.85107478848118,1.78753443023686,1.0500942272003717,A,1139,Incorrect
2,relearn,55,455,B,31.751676580589592,15.193584334614382,1.5875838290294797,0.23866026463660753,A,2999,Incorrect
2,relearn,55,456,B,62.031105780928975,46.16270496282749,3.101555289046449,0.7251220739052597,B,727,Correct
2,relearn,55,457,B,53.83449312639838,29.605030923037305,2.6917246563199186,0.4650347382855632,B,2544,Correct
2,relearn,55,458,A,18.05671914584492,36.26288647295915,0.902835957292246,0.5696160887070457,A,733,Correct
2,relearn,55,459,B,43.345633001087855,33.61827857509172,2.167281650054393,0.5280746849892165,B,510,Correct
2,relearn,55,460,B,55.54229510988747,42.11064903105933,2.7771147554943734,0.6614725281693706,B,1882,Incorrect
2,relearn,55,461,B,60.39202695419724,34.22286323688232,3.019601347709862,0.5375714786489885,B,512,Incorrect
2,relearn,55,462,A,39.02303500797523,66.13382006178759,1.9511517503987617,1.0388276162997059,A,1112,Incorrect
2,relearn,55,463,A,41.923511399825486,64.52037226134058,2.0961755699912743,1.0134836375155314,B,812,Correct
2,relearn,55,464,A,11.134205639643703,35.0425991978308,0.5567102819821852,0.5504478610129842,A,828,Correct
2,relearn,55,465,B,77.5066844572417,65.55420278015018,3.8753342228620853,1.0297230093302772,A,2291,Correct
2,relearn,55,466,A,26.495960630812824,57.043162349019184,1.3247980315406411,0.8960318988660428,A,848,Correct
2,relearn,55,467,B,63.51257298486442,48.13790751118012,3.1756286492432206,0.7561484829815419,B,1962,Incorrect
2,relearn,55,468,B,76.56986114830306,62.14279120025415,3.828493057415153,0.9761366815414144,B,725,Correct
2,relearn,55,469,A,34.357821611493875,53.03526855280295,1.7178910805746939,0.8330760503332376,A,1284,Incorrect
2,relearn,55,470,A,34.40354909472712,59.31684525880236,1.7201774547363557,0.9317468264958801,A,6354,Incorrect
2,relearn,55,471,A,36.186349284651925,56.388606739852875,1.8093174642325962,0.8857501634004284,A,1321,Correct
2,relearn,55,472,A,41.962035228383954,67.54160253625818,2.0981017614191977,1.060941011697952,A,657,Incorrect
2,relearn,55,473,B,71.92963289921002,58.879992317277726,3.596481644960501,0.9248847565369159,B,2214,Correct
2,relearn,55,474,B,33.28001951278779,12.35674178495572,1.6640009756393894,0.19409924606961454,A,994,Incorrect
2,relearn,55,475,A,27.842705727227234,52.39698506356444,1.3921352863613619,0.8230499167297408,A,2043,Correct
2,relearn,55,476,A,60.48242391365274,78.08443318371008,3.024121195682637,1.2265474082483332,B,697,Incorrect
2,relearn,55,477,A,52.74379439755339,79.3262600824144,2.6371897198776697,1.2460539795583316,A,961,Incorrect
2,relearn,55,478,A,53.49895999210274,82.57568963901899,2.6749479996051373,1.2970958996752642,B,1008,Correct
2,relearn,55,479,A,35.87279304850611,65.58714287227177,1.7936396524253055,1.0302404310873658,A,845,Correct
2,relearn,55,480,A,31.946291542811228,62.43929217954163,1.5973145771405615,0.9807941080329731,A,1161,Correct
2,relearn,55,481,B,49.817633431482605,31.32616190435114,2.49088167157413,0.4920702005193699,B,948,Correct
2,relearn,55,482,B,39.85785557044167,12.5043734836993,1.9928927785220836,0.19641823937066366,B,841,Correct
2,relearn,55,483,A,49.58668489152345,65.71322676589067,2.4793342445761724,1.0322209522570114,A,598,Correct
2,relearn,55,484,B,69.00786081243844,51.42878135955369,3.450393040621922,0.8078414085112479,A,1674,Correct
2,relearn,55,485,A,58.34675676182077,81.98696809420957,2.917337838091038,1.2878482832743479,A,718,Incorrect
2,relearn,55,486,B,62.76975725485906,45.74704002210167,3.138487862742953,0.7185928242845644,A,1007,Incorrect
2,relearn,55,487,B,55.688114546783886,40.15437145218555,2.7844057273391947,0.6307433918185091,B,2596,Incorrect
2,relearn,55,488,B,62.14075697581424,32.62499475188611,3.1070378487907124,0.5124722191796548,B,799,Incorrect
2,relearn,55,489,B,73.63464857379859,46.24941258856207,3.681732428689929,0.7264840741053497,A,448,Incorrect
2,relearn,55,490,B,71.60705744941897,44.97051689739049,3.5803528724709484,0.706395227564888,B,1325,Correct
2,relearn,55,491,A,60.502551575291676,83.58492612192627,3.025127578764584,1.3129489492774458,A,816,Correct
2,relearn,55,492,A,56.24758059927008,80.65068478999353,2.8123790299635036,1.2668579942161489,A,698,Correct
2,relearn,55,493,A,31.999083509235305,57.61521385355166,1.5999541754617652,0.905017662886614,A,2718,Correct
2,relearn,55,494,B,51.553642861669026,37.75608764815489,2.5776821430834516,0.5930712379186787,B,683,Incorrect
2,relearn,55,495,B,48.428391581865974,18.711286516144668,2.421419579093299,0.29391620129166923,A,844,Incorrect
2,relearn,55,496,A,40.354115731007504,54.51053337831226,2.0177057865503754,0.856249456022835,A,834,Correct
2,relearn,55,497,B,71.49666960364324,54.00006350108476,3.574833480182162,0.8482310139419511,A,912,Correct
2,relearn,55,498,B,59.00328651477396,43.48947200378002,2.950164325738698,0.6831310287778716,A,850,Incorrect
2,relearn,55,499,B,74.7268150392537,44.59849967312128,3.7363407519626843,0.700551594671023,A,813,Incorrect
2,relearn,55,500,B,35.09353197070459,13.270946746313584,1.7546765985352295,0.2084595440220006,A,1598,Correct
2,relearn,55,501,A,24.62418450356445,52.547420489813035,1.2312092251782225,0.825412950879452,B,1110,Incorrect
2,relearn,55,502,B,57.77439274804148,25.475949221158384,2.888719637402074,0.4001752745820889,B,871,Correct
2,relearn,55,503,A,22.675595803577725,52.35917297467157,1.1337797901788862,0.8224559658263271,A,3881,Correct
2,relearn,55,504,A,54.53492298915753,82.30411584429595,2.7267461494578766,1.2928300284832175,A,2062,Correct
2,relearn,55,505,A,59.3034055611372,76.15098518083204,2.96517027805686,1.1961768780386357,A,631,Correct
2,relearn,55,506,A,12.84211335880699,37.4755330988353,0.6421056679403495,0.5886642973633106,A,1085,Correct
2,relearn,55,507,A,62.913492375980354,75.8780428207378,3.145674618799018,1.1918895094720081,A,871,Correct
2,relearn,55,508,B,60.80865677118739,40.38430881728485,3.040432838559369,0.634355239503418,B,2236,Incorrect
2,relearn,55,509,A,49.49310689233204,69.89092253888833,2.4746553446166017,1.0978440440039243,A,1053,Incorrect
2,relearn,55,510,A,57.944313781629724,82.70939423778432,2.897215689081486,1.299196126601426,B,552,Incorrect
2,relearn,55,511,B,73.99760542970613,57.92145365942697,3.6998802714853065,0.909828066508487,A,603,Incorrect
2,relearn,55,512,B,65.77731280781535,48.39406350128933,3.2888656403907675,0.7601721718650426,B,929,Correct
2,relearn,55,513,A,45.506844715244746,64.70059054747989,2.275342235762237,1.0163144997344202,B,2153,Incorrect
2,relearn,55,514,B,36.76126073018354,21.63450122173227,1.838063036509177,0.3398339505113675,A,885,Incorrect
2,relearn,55,515,A,45.24229387679689,70.95055319370248,2.2621146938398446,1.1144886834073378,A,816,Incorrect
2,relearn,55,516,A,40.61855168090496,57.52145112722809,2.030927584045248,0.9035448414256205,B,763,Correct
2,relearn,55,517,A,41.49537428900046,62.155161195754495,2.074768714450023,0.9763309889763586,B,1384,Incorrect
2,relearn,55,518,B,65.31092802554684,34.23286177840725,3.265546401277342,0.5377285353719952,B,4247,Incorrect
2,relearn,55,519,A,38.81025152657731,66.83718633643534,1.9405125763288655,1.0498760679057866,A,888,Correct
2,relearn,55,520,A,48.479835933054986,73.24278453673148,2.423991796652749,1.1504949691452786,A,941,Correct
2,relearn,55,521,B,62.7051511664272,30.025363676167167,3.13525755832136,0.471637309732043,B,2516,Correct
2,relearn,55,522,B,50.20109989427053,22.832272524681738,2.5100549947135264,0.3586484981415011,B,623,Incorrect
2,relearn,55,523,A,51.96027768647765,65.05980166999106,2.5980138843238825,1.0219569748522643,B,767,Incorrect
2,relearn,55,524,B,56.599197395819836,31.167572217228958,2.829959869790992,0.4895790795393792,B,1481,Correct
2,relearn,55,525,B,45.18471309359734,20.231151132056848,2.259235654679867,0.31779017885067307,B,972,Correct
2,relearn,55,526,B,32.8252291217242,12.429421380169224,1.6412614560862098,0.1952408944815577,A,990,Incorrect
2,relearn,55,527,B,70.79041461381723,56.20109472658585,3.5395207306908616,0.8828047315837309,B,805,Correct
2,relearn,55,528,B,56.519911051630196,31.33930866795129,2.8259955525815097,0.49227670939909346,B,1057,Incorrect
2,relearn,55,529,A,11.345152709830927,33.26507761267794,0.5672576354915464,0.5225266172454166,A,1185,Incorrect
2,relearn,55,530,B,56.976331877746276,39.9606689116032,2.8488165938873133,0.6277007194261333,B,1405,Correct
2,relearn,55,531,A,49.72114106121764,58.2815161155128,2.4860570530608816,0.9154839143428508,A,1743,Correct
2,relearn,55,532,B,67.56254646192518,45.026936540920026,3.378127323096259,0.7072814652530409,B,1850,Correct
2,relearn,55,533,B,69.68458885651339,50.93503324683796,3.4842294428256695,0.8000856312930901,B,853,Incorrect
2,relearn,55,534,A,16.41294478304124,41.585220192157614,0.8206472391520621,0.6532191112679815,A,636,Correct
2,relearn,55,535,B,62.90413693275912,41.04784010592331,3.145206846637956,0.6447779646124856,B,902,Incorrect
2,relearn,55,536,B,52.380048601693936,39.916678923232894,2.619002430084697,0.6270097263046549,A,1445,Incorrect
2,relearn,55,537,A,30.592821750675256,42.03822612367264,1.5296410875337627,0.6603349118003825,A,597,Incorrect
2,relearn,55,538,A,30.91611214271737,61.23413045697181,1.5458056071358686,0.9618634719629082,B,1427,Correct
2,relearn,55,539,B,47.22734418974248,22.626277446797065,2.361367209487124,0.35541273502471044,A,1241,Incorrect
2,relearn,55,540,A,60.15751290689919,78.14652778400219,3.0078756453449595,1.2275227879488597,B,758,Incorrect
2,relearn,55,541,A,53.65127747368827,82.94140572173099,2.6825638736844133,1.3028405544690023,A,955,Correct
2,relearn,55,542,A,38.55116270808381,55.71181673189554,1.9275581354041904,0.8751191708153198,B,1253,Correct
2,relearn,55,543,B,77.44489648779117,46.16976876423648,3.8722448243895586,0.7252330318383241,B,967,Incorrect
2,relearn,55,544,B,75.38431530207569,49.09688386056528,3.7692157651037848,0.7712120482525159,A,1747,Incorrect
2,relearn,55,545,B,64.453206884199,50.82908126041856,3.22266034420995,0.7984213413822479,B,757,Correct
2,relearn,55,546,A,57.912042076429785,85.86713834832034,2.895602103821489,1.3487978550993078,A,835,Correct
2,relearn,55,547,A,28.115026738206467,52.64693461647332,1.4057513369103234,0.8269761151256738,A,1117,Correct
2,relearn,55,548,B,89.54071209753891,67.36892254245019,4.477035604876946,1.0582285606981066,B,1053,Incorrect
2,relearn,55,549,B,35.06529218432152,22.833802680499794,1.753264609216076,0.3586725337728854,A,1428,Incorrect
2,relearn,55,550,A,32.4386936134773,50.452056358068184,1.621934680673865,0.7924990480650261,A,880,Correct
2,relearn,55,551,B,33.878609425819285,11.33637418168518,1.6939304712909644,0.17807134923763582,B,826,Correct
2,relearn,55,552,A,31.18254249070452,48.256641920339135,1.559127124535226,0.7580135587192535,A,1166,Correct
2,relearn,55,553,B,69.88542847978366,48.511931192399246,3.4942714239891823,0.7620236332274749,B,764,Correct
2,relearn,55,554,B,68.02239841411605,37.77286000852228,3.401119920705803,0.5933346975392464,B,2140,Incorrect
2,relearn,55,555,A,41.7210919999344,62.82925692354296,2.08605459999672,0.986919659907541,A,3347,Incorrect
2,relearn,55,556,B,81.30080646600052,54.66271622522013,4.065040323300026,0.8586399385920759,B,634,Correct
2,relearn,55,557,A,19.916230744168537,41.07534420766792,0.9958115372084267,0.645209998032408,A,675,Correct
2,relearn,55,558,B,51.34877674178816,36.49109125868457,2.5674388370894077,0.5732007210987908,B,728,Incorrect
2,relearn,55,559,B,43.764765025817276,29.617874269473106,2.188238251290864,0.4652364810996143,A,958,Correct
2,relearn,55,560,B,77.08593059375674,58.67706350649621,3.8542965296878373,0.9216971582311513,B,932,Correct
2,relearn,55,561,B,50.02527787797392,18.954342678884657,2.5012638938986957,0.2977341185680376,A,1893,Incorrect
2,relearn,55,562,B,49.293834425232355,28.706636654241393,2.4646917212616177,0.45092279411118125,B,987,Incorrect
2,relearn,55,563,B,74.61439982448174,43.97423870778521,3.7307199912240865,0.6907457263579098,A,2236,Incorrect
2,relearn,55,564,A,35.390635099908486,43.59424448247769,1.7695317549954241,0.6847767910247465,A,626,Correct
2,relearn,55,565,A,24.915175984577537,41.133537259898574,1.2457587992288768,0.6461240923592969,A,933,Incorrect
2,relearn,55,566,A,18.243541377762917,42.802698683299454,0.9121770688881458,0.6723432186863554,A,1366,Correct
2,relearn,55,567,A,23.220507542324935,53.51495319477969,1.1610253771162469,0.8406109190696074,A,573,Correct
2,relearn,55,568,A,34.56953431691113,56.82737898840857,1.7284767158455565,0.8926423817637367,A,1139,Correct
2,relearn,55,569,A,57.384151761483736,73.46767144632864,2.869207588074187,1.1540274844606733,B,843,Incorrect
2,relearn,55,570,A,58.382026726070734,72.38938935542043,2.919101336303537,1.1370898689842,A,751,Incorrect
2,relearn,55,571,B,61.57443134020385,35.6063723034508,3.078721567010193,0.5593035882475206,A,631,Correct
2,relearn,55,572,B,60.72183064913565,37.678509244327884,3.036091532456782,0.591852639200978,A,692,Incorrect
2,relearn,55,573,A,26.162651470902055,40.78368347605443,1.3081325735451028,0.64062860197352,A,703,Correct
2,relearn,55,574,A,42.23741409982724,54.93177708389852,2.1118707049913623,0.8628663366770387,B,2374,Incorrect
2,relearn,55,575,B,85.8524570709447,66.9468597747217,4.292622853547234,1.0515988142458588,B,719,Correct
2,relearn,55,576,A,34.0951093101042,44.71658773392145,1.70475546550521,0.7024065175924554,A,673,Incorrect
2,relearn,55,577,A,48.95325453306287,72.95772668526594,2.4476627266531437,1.1460172908852173,B,3349,Incorrect
2,relearn,55,578,B,60.177572284680046,28.68854949270341,3.0088786142340025,0.45063868164212106,B,873,Incorrect
2,relearn,55,579,A,43.04392777400003,60.04750982210843,2.1521963887000015,0.943224078617484,A,830,Incorrect
2,relearn,55,580,B,35.86737929493174,10.987909395924827,1.793368964746587,0.1725976771827385,B,1390,Incorrect
2,relearn,55,581,B,83.35905412731972,67.73052326860085,4.167952706365986,1.063908571622145,A,827,Incorrect
2,relearn,55,582,A,28.198309287155183,41.45425063366078,1.4099154643577592,0.6511618462538936,A,636,Incorrect
2,relearn,55,583,A,33.19325998306505,58.42197841452539,1.6596629991532523,0.917690290976272,B,795,Incorrect
2,relearn,55,584,B,64.9272316450546,45.51457455240577,3.24636158225273,0.7149412652255146,B,798,Incorrect
2,relearn,55,585,B,65.54445101331562,46.16850069240257,3.277222550665781,0.725213113012536,A,952,Incorrect
2,relearn,55,586,A,45.42961150653657,62.21381958836637,2.2714805753268283,0.9772523928528628,B,955,Correct
2,relearn,55,587,B,51.96314461459247,33.533225972645006,2.598157230729624,0.52673868183414,B,946,Incorrect
2,relearn,55,588,B,50.1706358447022,33.29905317136492,2.5085317922351096,0.5230603040732796,A,2316,Incorrect
2,relearn,55,589,A,39.80296590412956,60.35255755567042,1.990148295206478,0.9480157572112469,B,1540,Incorrect
2,relearn,55,590,A,35.05466333211503,49.54133126565273,1.7527331666057513,0.7781934117661647,A,1010,Correct
2,relearn,55,591,A,56.658611589138886,66.44868750941156,2.8329305794569444,1.043773542601256,A,590,Correct
2,relearn,55,592,A,22.286303714201818,54.259796704103564,1.114315185710091,0.8523108935544373,A,476,Correct
2,relearn,55,593,B,72.5863416761124,40.43104640182206,3.6293170838056197,0.635089391764561,A,592,Incorrect
2,relearn,55,594,A,45.661897517760615,76.7606441754759,2.2830948758880307,1.2057533791324762,A,483,Correct
2,relearn,55,595,A,30.864485389700107,48.56088974079012,1.5432242694850056,0.7627926723072509,B,701,Correct
2,relearn,55,596,A,25.984280559591095,53.82384193221084,1.2992140279795548,0.8454629320110592,B,714,Incorrect
2,relearn,55,597,B,37.80853800441533,25.27608864114498,1.8904269002207668,0.39703587193252743,A,2458,Correct
2,relearn,55,598,B,50.36646109801053,26.797447148556156,2.5183230549005264,0.4209333154843239,A,1480,Incorrect
2,relearn,55,599,A,49.58053637583889,74.66920324339394,2.4790268187919446,1.1729011017942477,A,2710,Correct
2,relearn,55,600,A,18.78213705526985,38.29063592087912,0.9391068527634926,0.6014679025515764,A,708,Correct
2,relearn,55,601,B,36.53794837318796,17.315928884948757,1.826897418659398,0.27199797487519156,B,2190,Correct
2,relearn,55,602,A,29.739951321175145,50.50803666392004,1.4869975660587573,0.7933783846530756,A,3905,Correct
2,relearn,55,603,A,36.48476236026811,68.13515080294594,1.8242381180134055,1.0702644460688384,A,1112,Correct
2,relearn,55,604,A,30.705282269745858,61.92983887287284,1.5352641134872929,0.9727916342050845,A,442,Correct
2,relearn,55,605,A,35.977497527179665,65.74487014791511,1.798874876358983,1.032718005339525,A,751,Correct
2,relearn,55,606,B,31.09203691620999,11.114798017169115,1.5546018458104995,0.17459083898436445,B,794,Correct
2,relearn,55,607,B,55.41258584147823,30.89172165070216,2.7706292920739117,0.48524602897293334,B,2493,Correct
2,relearn,55,608,B,80.08610915812865,52.81732586996894,4.004305457906432,0.8296526146767628,A,5544,Incorrect
2,relearn,55,609,A,61.57335868349924,86.12407381999252,3.0786679341749617,1.3528337880505674,A,570,Correct
2,relearn,55,610,B,38.08447355994552,21.42624420771995,1.9042236779972763,0.3365626569849693,B,500,Correct
2,relearn,55,611,A,42.23952981089293,71.80514810267312,2.1119764905446465,1.1279126288464247,A,868,Correct
2,relearn,55,612,A,48.555623385130936,76.74384720310469,2.4277811692565465,1.2054895329074564,A,658,Correct
2,relearn,55,613,B,57.488256488685586,41.35522811896067,2.8744128244342795,0.6496064042302844,B,1468,Correct
2,relearn,55,614,B,64.73254754855581,37.95707749998354,3.2366273774277907,0.5962283791284336,B,5032,Correct
2,relearn,55,615,A,32.00466753930379,56.80204179617338,1.6002333769651895,0.8922443860787933,A,895,Correct
2,relearn,55,616,B,67.22335961307901,53.19117421241891,3.361167980653951,0.8355250107077504,B,2144,Correct
2,relearn,55,617,A,30.811365195635766,57.25510086117767,1.5405682597817885,0.8993610212300919,A,347,Correct
2,relearn,55,618,B,38.05092309046785,25.428692668763276,1.9025461545233924,0.39943297039289666,B,1107,Correct
2,relearn,55,619,B,82.41641252365355,62.90350971752607,4.120820626182677,0.9880860200679703,A,726,Incorrect
2,relearn,55,620,A,52.74988096471051,76.09017308398269,2.637494048235526,1.1952216438550791,A,812,Correct
2,relearn,55,621,B,59.02133265147626,39.83938007623665,2.951066632573813,0.6257955188553832,B,1157,Correct
2,relearn,55,622,A,18.427943691790475,48.346650129538595,0.9213971845895237,0.7594274043631725,A,621,Correct
2,relearn,55,623,B,35.912145895377385,22.23368117702109,1.7956072947688693,0.3492458472399356,B,698,Correct
2,relearn,55,624,A,48.137909896319876,78.59395628051337,2.406895494815994,1.234550978337091,A,668,Correct
2,relearn,55,625,A,36.75254876896204,49.961251718117815,1.8376274384481022,0.7847895068089468,A,2014,Correct
2,relearn,55,626,A,29.087964315748966,48.84047042836298,1.4543982157874484,0.7671843154780733,A,467,Correct
2,relearn,55,627,B,58.76353298706596,27.167657512349244,2.9381766493532977,0.4267485662801997,B,1478,Correct
2,relearn,55,628,B,40.47885611590654,16.688461515497515,2.023942805795327,0.2621417404840149,B,4186,Correct
2,relearn,55,629,A,47.28289550155731,75.68360478602634,2.3641447750778655,1.188835283964868,A,542,Correct
2,relearn,55,630,A,16.5746326528575,47.027815325051144,0.828731632642875,0.7387111956977909,A,4724,Correct
2,relearn,55,631,B,81.11684875019498,51.80241903905568,4.0558424375097495,0.8137104954563867,B,741,Correct
2,relearn,55,632,A,42.6737629718736,52.374828451656754,2.13368814859368,0.8227018814837528,B,1661,Incorrect
2,relearn,55,633,B,59.7665552319975,28.182018135418797,2.9883277615998747,0.44268210568783,B,853,Correct
2,relearn,55,634,A,35.026742496745946,56.41338290806452,1.7513371248372973,0.8861393465406174,A,890,Correct
2,relearn,55,635,B,59.16588103594947,48.75411991390696,2.958294051797474,0.7658279247688299,A,1875,Incorrect
2,relearn,55,636,A,34.138134971126526,48.481303771474806,1.7069067485563263,0.7615425388246019,A,548,Correct
2,relearn,55,637,B,78.42395915639739,53.124799335491964,3.921197957819869,0.8344823965790673,B,617,Correct
2,relearn,55,638,A,45.5433200450475,69.67275483990784,2.277166002252375,1.0944170738020857,A,635,Correct
2,relearn,55,639,B,45.60778181363399,18.98022846565743,2.2803890906817,0.29814073155582627,B,1073,Correct
2,relearn,55,640,A,18.624390381495854,44.30711176833237,0.9312195190747927,0.6959744841658743,A,639,Correct
2,relearn,55,641,A,44.35296658288168,55.1167570622489,2.2176483291440836,0.8657719953822723,B,834,Incorrect
2,relearn,55,642,B,60.69083042192339,30.6895050536474,3.0345415210961693,0.48206961809422755,B,663,Correct
2,relearn,55,643,B,51.27806138343034,41.85284591869468,2.563903069171517,0.6574229663499839,B,1463,Correct
2,relearn,55,644,A,49.85649049510086,72.20078050406451,2.4928245247550427,1.134127208075091,A,663,Correct
2,relearn,55,645,A,41.37277379315327,66.62428298432478,2.0686386896576634,1.046531789871211,A,1570,Correct
2,relearn,55,646,B,61.655765840858585,40.458544842012735,3.0827882920429293,0.6355213362530021,B,1210,Correct
2,relearn,55,647,B,48.82229600794308,22.144356582295426,2.4411148003971537,0.34784273978706043,A,575,Incorrect
2,relearn,55,648,A,65.67154902022321,78.87103408825584,3.2835774510111606,1.2389033063634736,B,681,Incorrect
2,relearn,55,649,B,58.43271583275334,49.70847393608879,2.921635791637667,0.7808188826938812,B,806,Correct
2,relearn,55,650,B,76.73573622975958,45.1257929429403,3.836786811487979,0.7088342979847769,B,1389,Correct
2,relearn,55,651,B,72.83303493071625,47.67353152665628,3.6416517465358127,0.7488540820741237,B,905,Correct
2,relearn,55,652,A,65.57496071842486,87.22364541944727,3.278748035921243,1.3701058183452826,A,2354,Correct
2,relearn,55,653,B,30.31762427970631,13.201876387458782,1.5158812139853155,0.20737458936220535,A,889,Incorrect
2,relearn,55,654,A,12.449966884507493,38.65692475878471,0.6224983442253746,0.6072215541628571,A,661,Correct
2,relearn,55,655,B,81.13200649253417,60.86246456636189,4.056600324626709,0.9560253578052581,B,981,Correct
2,relearn,55,656,A,66.77423205867012,89.78702223508826,3.338711602933506,1.4103712472072836,A,1064,Correct
2,relearn,55,657,B,56.27302338695709,29.756547194368654,2.813651169347855,0.4674147503101327,B,1150,Correct
2,relearn,55,658,A,44.495358273341814,57.8474402701378,2.224767913667091,0.9086654669081963,B,6062,Incorrect
2,relearn,55,659,A,48.291802864105236,73.86870859106429,2.414590143205262,1.160326961199264,B,771,Incorrect
2,relearn,55,660,A,41.5386714044202,69.41934261902334,2.07693357022101,1.0904364839447827,A,615,Correct
2,relearn,55,661,A,19.76868519686866,37.052807864934096,0.988434259843433,0.5820241449167552,A,750,Correct
2,relearn,55,662,B,73.16963647390503,57.159411038737815,3.6584818236952517,0.8978579290140902,B,3303,Correct
2,relearn,55,663,A,50.890037061262944,79.34079380741028,2.544501853063147,1.2462822747767135,A,1381,Correct
2,relearn,55,664,A,43.775022657188146,59.29124707260921,2.1887511328594074,0.931344731127432,A,1227,Correct
2,relearn,55,665,B,49.90336555222877,25.385234542536672,2.4951682776114383,0.3987503317424353,B,1653,Correct
2,relearn,55,666,B,68.27937113056767,55.079427999614744,3.413968556528383,0.8651856318375882,B,792,Correct
2,relearn,55,667,A,50.26844630023321,80.04588655730349,2.5134223150116606,1.2573578457925332,B,673,Incorrect
2,relearn,55,668,A,49.5621908003471,71.88007003800622,2.478109540017355,1.1290894998546008,A,1373,Correct
2,relearn,55,669,B,70.56686930395863,50.73602762847702,3.5283434651979313,0.796959658349761,B,1022,Correct
2,relearn,55,670,B,37.033016053909236,26.695003588848238,1.851650802695462,0.41932413581139394,B,610,Correct
2,relearn,55,671,A,31.63840912112736,49.4384824726096,1.581920456056368,0.7765778667028902,A,854,Correct
2,relearn,55,672,B,35.06965194034862,11.409689815566317,1.753482597017431,0.1792229885216071,B,976,Correct
2,relearn,55,673,A,38.82614476219637,71.30211887732307,1.9413072381098186,1.1200110642519214,A,627,Correct
2,relearn,55,674,A,24.42652232185754,41.27699897776432,1.221326116092877,0.648377583753889,B,632,Incorrect
2,relearn,55,675,A,32.33901653348225,44.25447120486553,1.6169508266741126,0.6951476081285329,B,1429,Incorrect
2,relearn,55,676,A,15.241894693349746,31.04683824102995,0.7620947346674873,0.4876825946760517,A,548,Correct
2,relearn,55,677,B,41.09279029634118,29.637269343531184,2.054639514817059,0.4655411382104978,B,623,Correct
2,relearn,55,678,A,24.958674181516855,37.95974586552738,1.2479337090758427,0.5962702937163817,A,1029,Correct
2,relearn,55,679,A,25.624750997118966,56.97233114953502,1.281237549855948,0.8949192849863209,A,1331,Correct
2,relearn,55,680,B,63.49317720078034,48.61315277352539,3.174658860039017,0.7636136181057284,B,3892,Correct
2,relearn,55,681,A,55.369976273565676,69.96528437115667,2.768498813678284,1.0990121169337326,B,1387,Incorrect
2,relearn,55,682,A,40.32061311551395,49.22422041194292,2.0160306557756975,0.773212246124223,A,1322,Correct
2,relearn,55,683,B,62.38759279585269,29.704545833946938,3.1193796397926343,0.466597914850745,B,689,Correct
2,relearn,55,684,A,20.134927768508593,43.156221748538925,1.0067463884254295,0.6778963460095098,A,552,Correct
2,relearn,55,685,A,32.305341975455185,60.14061664633641,1.615267098772759,0.9446865971924525,A,796,Correct
2,relearn,55,686,B,55.30500943562879,37.1542793296018,2.7652504717814397,0.5836180549565007,A,1036,Incorrect
2,relearn,55,687,A,17.524884073015816,32.36383809536261,0.8762442036507907,0.5083699800118032,A,681,Correct
2,relearn,55,688,B,45.11299061036128,19.255574803755174,2.255649530518064,0.3024658617206299,B,760,Correct
2,relearn,55,689,A,43.296449791173494,72.88304033485998,2.164822489558675,1.1448441204364235,A,720,Correct
2,relearn,55,690,B,58.86847113342105,50.88863331187441,2.9434235566710525,0.7993567828190474,B,928,Correct
2,relearn,55,691,A,56.12127884586714,73.85613668938304,2.806063942293357,1.1601294822294466,A,978,Correct
2,relearn,55,692,B,47.25481753091027,36.21096108367479,2.3627408765455136,0.568800446599493,B,968,Correct
2,relearn,55,693,A,43.26142851875411,61.85528657055484,2.1630714259377055,0.9716205693787324,B,637,Incorrect
2,relearn,55,694,A,45.00560464028434,76.38512754751969,2.250280232014217,1.199854777734036,A,3341,Correct
2,relearn,55,695,A,17.4172405381428,38.431752253349416,0.87086202690714,0.6036845527185276,A,548,Correct
2,relearn,55,696,B,51.40369734833192,39.06168064818547,2.5701848674165957,0.6135794448060504,B,564,Correct
2,relearn,55,697,B,45.20818844024383,35.88312769178235,2.2604094220121915,0.5636508517216394,B,687,Correct
2,relearn,55,698,B,85.52315498683896,64.95840449146273,4.276157749341948,1.0203642316964676,A,2199,Incorrect
2,relearn,55,699,A,34.565996993714315,50.47998074386041,1.7282998496857158,0.7929376832913304,A,666,Correct
2,relearn,55,700,B,36.70795385042783,22.21831445444435,1.8353976925213913,0.34900446732615137,A,609,Incorrect
2,relearn,55,701,A,30.20841156296725,41.273942798397584,1.5104205781483626,0.6483295774006559,A,667,Correct
2,relearn,55,702,A,43.081195249493014,60.81807709682344,2.1540597624746507,0.9553281210641908,A,704,Correct
2,relearn,55,703,B,43.14978608879811,22.9093372175714,2.1574893044399057,0.35985902750666765,B,1498,Correct
2,relearn,55,704,B,42.32516755378343,21.949699398481815,2.1162583776891717,0.34478507189387386,B,755,Correct
2,relearn,55,705,B,73.47222482069344,59.870041960825944,3.673611241034672,0.9404364199712172,B,886,Correct
2,relearn,55,706,A,30.042182002082427,46.14526775692932,1.5021091001041214,0.7248481709155155,B,595,Incorrect
2,relearn,55,707,A,28.22283705014128,56.60001792601469,1.4111418525070638,0.8890710025470917,A,787,Correct
2,relearn,55,708,B,55.89027038721778,43.091799147442245,2.794513519360889,0.6768843981578573,B,1578,Correct
2,relearn,55,709,B,57.43592630941171,48.128794626081344,2.8717963154705854,0.7560053381171452,B,556,Correct
2,relearn,55,710,A,39.20944390136099,69.31344278048549,1.9604721950680497,1.0887730131709483,A,750,Correct
2,relearn,55,711,A,49.47820639416902,75.60401515899873,2.4739103197084513,1.187585093027009,B,1845,Incorrect
2,relearn,55,712,A,12.365820855313412,34.805167256979885,0.6182910427656707,0.5467182888074601,A,742,Correct
2,relearn,55,713,B,31.40676031068891,11.52519421198786,1.5703380155344455,0.1810373273378833,A,614,Incorrect
2,relearn,55,714,A,12.962721465727604,33.331217276626305,0.6481360732863802,0.5235655366572719,A,662,Correct
2,relearn,55,715,A,30.382379291245194,54.31639188900258,1.5191189645622598,0.8531998886399736,B,2105,Incorrect
2,relearn,55,716,B,55.23321877788436,25.345445887892076,2.761660938894218,0.39812533301679687,B,648,Correct
2,relearn,55,717,B,69.71889188972995,55.4228786427437,3.4859445944864973,0.8705805419242113,B,799,Correct
2,relearn,55,718,A,23.910672670943345,42.251812139697236,1.1955336335471671,0.6636899130946444,A,636,Correct
2,relearn,55,719,A,56.720122600896545,68.3242317632317,2.8360061300448276,1.0732345228476754,A,1090,Correct
2,relearn,55,720,A,53.009992327695485,67.59538005478049,2.6504996163847743,1.0617857469835421,A,1590,Correct
2,relearn,55,721,A,33.78389031756406,44.72319521470525,1.6891945158782027,0.702510307657901,A,1186,Correct
2,relearn,55,722,B,61.12761409605188,42.687019911822055,3.056380704802594,0.6705261407931069,B,2762,Correct
2,relearn,55,723,B,66.67206646638829,38.3558280976883,3.3336033233194144,0.6024919388702527,B,948,Correct
2,relearn,55,724,B,33.034063640101394,10.783731061651732,1.6517031820050698,0.1693904514078657,A,726,Incorrect
2,relearn,55,725,B,59.2673562445439,38.98712580826892,2.9633678122271947,0.6124083401191934,B,749,Correct
2,relearn,55,726,A,54.85752260937676,68.5747676004591,2.742876130468838,1.0771699305761484,A,1229,Correct
2,relearn,55,727,B,46.79791624962342,37.165931109633256,2.339895812481171,0.583801080689241,B,1953,Correct
2,relearn,55,728,A,58.093116846507975,67.48656723577878,2.9046558423253988,1.0600765192195811,A,1203,Correct
2,relearn,55,729,B,44.57440388794831,35.501140329818824,2.2287201943974155,0.5576506082710957,B,715,Correct
2,relearn,55,730,B,57.666805988868056,39.36146143706484,2.8833402994434025,0.6182883904262042,B,1564,Correct
2,relearn,55,731,B,73.39180878093293,62.30588043654231,3.6695904390466465,0.9786984812744267,B,660,Correct
2,relearn,55,732,B,37.662432324039145,17.13947465655662,1.8831216162019573,0.2692262383371336,A,980,Incorrect
2,relearn,55,733,B,35.78890764882344,23.095251030566832,1.789445382441172,0.36277935485220425,A,1510,Incorrect
2,relearn,55,734,A,54.26622239532131,67.18875865511001,2.713311119766065,1.0553985529735561,A,4055,Correct
2,relearn,55,735,A,31.293008218854567,56.66866538615206,1.5646504109427284,0.8901493143293675,A,569,Correct
2,relearn,55,736,B,65.51163985099176,34.39428371033274,3.2755819925495877,0.5402641451493222,B,738,Correct
2,relearn,55,737,A,20.306191414419015,46.3024611802309,1.0153095707209507,0.7273173594346999,A,727,Correct
2,relearn,55,738,A,62.16323621343766,76.39238098844439,3.1081618106718834,1.1999687145176472,B,1118,Incorrect
2,relearn,55,739,A,37.859964722333125,51.308259770608146,1.8929982361166564,0.8059482598190965,A,1220,Correct
2,relearn,55,740,B,76.3979683622519,51.420471712817296,3.819898418112595,0.807710880885543,B,959,Correct
2,relearn,55,741,A,46.58004342319548,73.06235375261792,2.329002171159774,1.1476607690160157,A,946,Correct
2,relearn,55,742,A,42.340968995276484,65.86210879374387,2.117048449763824,1.0345595856817873,A,2602,Correct
2,relearn,55,743,A,21.574582997184553,35.46397221567665,1.0787291498592275,0.5570667728994114,A,819,Correct
2,relearn,55,744,A,48.343399486395526,73.29708313332127,2.4171699743197763,1.1513478895060119,B,1575,Incorrect
2,relearn,55,745,A,67.15637803940172,83.70108513130407,3.3578189019700857,1.3147735707299937,A,496,Correct
2,relearn,55,746,B,52.89569928486498,40.99967436311046,2.6447849642432493,0.644021378893608,B,657,Correct
2,relearn,55,747,B,63.98888865150518,52.36242178125673,3.199444432575259,0.8225069979608315,B,1507,Correct
2,relearn,55,748,A,59.47986937418621,72.8620672538365,2.97399346870931,1.1445146760500908,A,1041,Correct
2,relearn,55,749,B,57.79697875152271,29.060222019572812,2.889848937576135,0.45647690004189145,B,1455,Correct
2,relearn,55,750,B,71.46462412224513,40.25166405363303,3.5732312061122564,0.6322716604282893,B,1143,Correct
2,relearn,55,751,A,42.28248998301922,50.861407234933566,2.114124499150961,0.7989291166025303,A,844,Correct
2,relearn,55,752,B,61.34273048974022,43.39482267728246,3.0671365244870112,0.6816442806339116,B,696,Correct
2,relearn,55,753,A,58.78450786319575,79.06456421140692,2.9392253931597874,1.2419432704291722,A,1092,Correct
2,relearn,55,754,B,57.01242678503986,33.48998786155545,2.850621339251993,0.5260594991733696,B,639,Correct
2,relearn,55,755,B,58.922506036561494,42.48917692995006,2.9461253018280744,0.6674184305010402,B,622,Correct
2,relearn,55,756,A,16.589789723327456,45.320153344047895,0.8294894861663729,0.7118873040261188,A,604,Correct
2,relearn,55,757,B,65.40987921204695,51.405365553527425,3.270493960602347,0.8074735938902977,B,845,Correct
2,relearn,55,758,A,32.01450559693644,61.819980407208995,1.600725279846822,0.9710659814617636,A,603,Correct
2,relearn,55,759,B,51.727744680610954,27.743236237582114,2.5863872340305476,0.4357897357539705,B,734,Correct
2,relearn,55,760,A,58.60543057731847,71.25624131489127,2.930271528865924,1.1192904211864196,A,950,Correct
2,relearn,55,761,A,21.535684748823243,36.74355437421379,1.0767842374411623,0.5771664024440357,A,725,Correct
2,relearn,55,762,B,40.28197054625183,15.799081124926325,2.0140985273125915,0.24817138597768848,B,1430,Correct
2,relearn,55,763,B,52.803127994319944,40.98365954688425,2.6401563997159974,0.6437698187485836,A,1003,Incorrect
2,relearn,55,764,A,47.424947256112716,60.88290141888082,2.3712473628056356,0.9563463791339379,A,414,Correct
2,relearn,55,765,A,53.666882688352146,78.93890970321218,2.683344134417607,1.239969494029997,A,1182,Correct
2,relearn,55,766,A,13.00383776088503,37.73611083514456,0.6501918880442515,0.5927574428737017,A,699,Correct
2,relearn,55,767,B,52.52553618056561,21.747759048929936,2.6262768090282806,0.34161300030079617,B,949,Correct
2,relearn,55,768,B,79.57898115126937,49.97827552877516,3.9789490575634687,0.7850569162014328,B,1603,Correct
2,relearn,55,769,B,54.31967810582645,47.50864020523038,2.7159839052913224,0.7462639752539622,B,972,Correct
2,relearn,55,770,B,70.06134323748061,56.7717150139111,3.5030671618740308,0.8917680140969823,B,591,Correct
2,relearn,55,771,B,47.35267382487711,33.187381102009844,2.3676336912438556,0.5213061633097944,B,472,Correct
2,relearn,55,772,B,78.02605412980574,52.76585234783515,3.901302706490287,0.8288440704818133,B,545,Correct
2,relearn,55,773,B,56.425340354695095,34.212201006100344,2.8212670177347547,0.5374039967195109,B,531,Correct
2,relearn,55,774,B,65.40530178687649,51.83840630680015,3.270265089343825,0.8142757821362308,B,797,Correct
2,relearn,55,775,B,70.32676737857653,49.964037457806114,3.5163383689288263,0.7848332651056447,B,572,Correct
2,relearn,55,776,A,56.62388591449364,75.45849132557493,2.831194295724682,1.1852992099969766,B,656,Incorrect
2,relearn,55,777,B,70.12298009912027,54.65739688121364,3.506149004956013,0.8585563825318121,B,843,Correct
2,relearn,55,778,A,68.0030312228656,86.63677896817933,3.4001515611432804,1.3608873416855745,A,590,Correct
2,relearn,55,779,A,27.564956462063435,57.766536257981926,1.3782478231031718,0.9073946296570222,A,582,Correct
2,relearn,55,780,B,69.01910315031729,39.335123898595974,3.4509551575158643,0.6178746813393671,B,542,Correct
2,relearn,55,781,A,22.619092136996183,54.9913548168513,1.1309546068498093,0.8638021815178487,A,673,Correct
2,relearn,55,782,A,40.509907952786726,68.93691302023694,2.0254953976393364,1.0828584975276747,A,884,Correct
2,relearn,55,783,A,37.31126518180718,67.87328494621136,1.865563259090359,1.0661510668101215,A,575,Correct
2,relearn,55,784,A,50.542094694571446,68.03900814021195,2.5271047347285727,1.06875424065413,A,1246,Correct
2,relearn,55,785,B,76.68938844704053,60.704499259385706,3.8344694223520266,0.953544044565666,B,786,Correct
2,relearn,55,786,A,64.94545051927955,83.49635109122937,3.2472725259639774,1.3115576159488014,A,1073,Correct
2,relearn,55,787,B,65.51639089266327,57.253632983511395,3.2758195446331633,0.8993379638616285,B,1255,Correct
2,relearn,55,788,A,59.86752732309604,72.38615533396538,2.993376366154802,1.1370390690939762,A,1036,Correct
2,relearn,55,789,A,45.734814130091316,55.176884891143956,2.2867407065045655,0.8667164811099375,A,1851,Correct
2,relearn,55,790,B,57.61117352227418,42.04969593223943,2.880558676113709,0.66051507913204,B,643,Correct
2,relearn,55,791,B,55.3932473175221,36.735725403543725,2.7696623658761053,0.5770434252603246,A,586,Incorrect
2,relearn,55,792,B,48.59895089981309,28.689735004722642,2.4299475449906542,0.45065730362137285,B,1277,Correct
2,relearn,55,793,A,22.27010064147656,44.649638665942234,1.113505032073828,0.7013548840918146,A,2300,Correct
2,relearn,55,794,A,65.69978394708424,78.96029040210101,3.2849891973542125,1.240305341262786,B,557,Incorrect
2,relearn,55,795,A,65.18789583635238,81.07151413279361,3.259394791817619,1.2734683660749273,A,1209,Correct
2,relearn,55,796,B,58.02321499950563,27.816690635818507,2.901160749975282,0.43694355474333707,B,967,Correct
2,relearn,55,797,B,57.067676794134236,48.0629269324135,2.853383839706712,0.7549706908044661,B,1438,Correct
2,relearn,55,798,A,33.97191239880789,53.73951229547072,1.6985956199403944,0.844138285174746,A,1068,Correct
2,relearn,55,799,A,42.248907783953676,62.01566162799049,2.112445389197684,0.9741397348900267,A,986,Correct
2,relearn,55,800,A,45.31833603653162,67.7787318314487,2.265916801826581,1.0646658299565595,A,486,Correct
2,relearn,55,801,A,33.64702471586365,53.30737791937285,1.6823512357931827,0.8373503342681824,A,444,Correct
2,relearn,55,802,A,33.34094962361867,53.41459130210844,1.6670474811809333,0.8390344381460257,A,427,Correct
2,relearn,55,803,A,60.46510131502306,81.74991971945498,3.0232550657511528,1.2841247361109756,A,1601,Correct
2,relearn,55,804,B,77.66692908711632,65.10609294450575,3.883346454355816,1.0226841164919676,B,906,Correct
2,relearn,55,805,B,46.06225365735208,19.90205949598422,2.303112682867604,0.312620819519455,A,1197,Incorrect
2,relearn,55,806,B,52.4203133581217,22.397288716322343,2.621015667906085,0.3518157884576392,A,868,Incorrect
2,relearn,55,807,B,73.66957459328755,59.156126064693204,3.683478729664378,0.9292222552983593,A,452,Incorrect
2,relearn,55,808,B,43.23732080175342,30.73248565618406,2.161866040087671,0.48274475582010773,A,1089,Incorrect
2,relearn,55,809,B,87.1193735031591,58.911869060810645,4.355968675157954,0.9253854752534328,A,719,Incorrect
2,relearn,55,810,B,46.48675396841081,38.93918302846387,2.324337698420541,0.6116552566950523,A,1103,Incorrect
2,relearn,55,811,B,39.577868188755254,12.839083116377218,1.9788934094377626,0.20167584598619706,A,892,Incorrect
2,relearn,55,812,B,58.9058248415579,40.24873143372773,2.9452912420778947,0.632225594942538,B,434,Correct
2,relearn,55,813,B,46.8426100886508,19.87402684116885,2.3421305044325402,0.3121804836073121,B,492,Correct
2,relearn,55,814,A,28.901303620359492,56.72520815656875,1.4450651810179747,0.891037486090141,B,308,Incorrect
2,relearn,55,815,A,32.91139852599408,53.826488509107406,1.645569926299704,0.8455045043437363,A,458,Correct
2,relearn,55,816,B,77.96373423460523,65.15316569910024,3.8981867117302613,1.023423533592059,B,829,Correct
2,relearn,55,817,B,86.82222326849498,58.43581600687637,4.341111163424749,0.9179076513686383,B,1170,Correct
2,relearn,55,818,A,58.3280265924126,82.32785184216574,2.91640132962063,1.293202872665884,A,1440,Correct
2,relearn,55,819,A,42.054753759345914,64.45894145021724,2.102737687967296,1.0125186845908853,A,906,Correct
2,relearn,55,820,A,60.411468502922176,75.11928996051854,3.0205734251461087,1.1799710474142329,A,923,Correct
2,relearn,55,821,B,88.93973180928252,63.247965895261444,4.446986590464126,0.9934967250552558,B,1004,Correct
2,relearn,55,822,A,34.14689300812903,54.89000728660098,1.7073446504064516,0.8622102182353794,A,891,Correct
2,relearn,55,823,B,81.48436802732945,50.898508808572316,4.074218401366473,0.7995119067584308,B,875,Correct
2,relearn,55,824,A,55.20921310592476,62.69318806860264,2.760460655296238,0.9847822953322266,A,1319,Correct
2,relearn,55,825,A,34.88950115643192,45.90873429688769,1.744475057821596,0.7211327120135407,A,784,Correct
2,relearn,55,826,B,68.43023075301562,58.385859169266936,3.421511537650781,0.9171229311984864,B,576,Correct
2,relearn,55,827,B,60.858847593058144,39.67696416535661,3.0429423796529074,0.623244295693149,B,655,Correct
2,relearn,55,828,B,38.047324978173606,24.78084889714257,1.9023662489086803,0.3892566642249091,A,3147,Incorrect
2,relearn,55,829,B,87.78976149836726,66.76089567405651,4.389488074918363,1.0486776969834526,B,1616,Correct
2,relearn,55,830,A,45.63809355817734,61.16483004537062,2.2819046779088668,0.960774903643023,A,562,Correct
2,relearn,55,831,A,44.04227538727861,67.88204322656064,2.2021137693639306,1.0662886415561386,A,1031,Correct
2,relearn,55,832,A,51.574125352350435,73.30790863277109,2.578706267617522,1.1515179360537273,A,2192,Correct
2,relearn,55,833,A,21.38852631767099,47.662664176059465,1.0694263158835495,0.7486833781301292,A,871,Correct
2,relearn,55,834,B,61.398550802341646,46.36389249116226,3.0699275401170825,0.7282823202103117,B,479,Correct
2,relearn,55,835,B,62.854549193254314,39.652992927056815,3.142727459662716,0.6228677563624486,B,1467,Correct
2,relearn,55,836,A,65.32831032089845,77.67375773237879,3.266415516044923,1.2200965333437728,A,1504,Correct
2,relearn,55,837,A,15.64173522347139,38.054989520470755,0.7820867611735695,0.5977663775497375,A,1161,Correct
2,relearn,55,838,A,27.05724848906626,44.991314592130955,1.3528624244533132,0.7067219169899293,A,1059,Correct
2,relearn,55,839,A,61.72801581151158,79.07413799512955,3.086400790575579,1.2420936550722226,B,584,Incorrect
2,relearn,55,840,B,37.2372364846476,14.707036173888604,1.8618618242323803,0.23101758399983885,B,1601,Correct
2,relearn,55,841,B,86.79380302001209,69.42868697833734,4.339690151000605,1.0905832647976497,A,1615,Incorrect
2,relearn,55,842,B,82.83032251052043,67.94893917819121,4.141516125526022,1.067339440707126,A,451,Incorrect
2,relearn,55,843,B,46.05926782397107,25.6341585248297,2.3029633911985536,0.40266042051280576,A,473,Incorrect
2,relearn,55,844,A,27.911616664016343,39.607286370695384,1.3955808332008173,0.6221497994540188,A,605,Correct
2,relearn,55,845,B,87.85686096617816,61.654240292490535,4.392843048308908,0.9684625418277405,B,619,Correct
2,relearn,55,846,A,35.007057340725666,55.26871329039603,1.7503528670362833,0.8681589182323435,A,814,Correct
2,relearn,55,847,A,24.027168440561653,37.834478537372945,1.2013584220280826,0.5943025991270577,A,764,Correct
2,relearn,55,848,A,31.14429966597482,47.02854852567281,1.557214983298741,0.738722712786224,A,3324,Correct
2,relearn,55,849,B,67.34549740885036,42.849322396888326,3.367274870442518,0.6730755822668247,B,766,Correct
2,relearn,55,850,A,16.670908781755465,41.725649250632515,0.8335454390877731,0.6554249657602577,A,542,Correct
2,relearn,55,851,A,41.878873652851645,70.97862813003185,2.0939436826425823,1.1149296834759495,A,2638,Correct
2,relearn,55,852,A,26.161465260746738,53.237416566533234,1.308073263037337,0.8362513839076017,A,833,Correct
2,relearn,55,853,B,53.59822200371087,44.21283178361906,2.6799111001855436,0.6944935376290948,B,580,Correct
2,relearn,55,854,B,83.25577388037114,61.06746638110547,4.162788694018556,0.9592455187811131,B,692,Correct
2,relearn,55,855,B,50.1501657984613,37.50296150738379,2.507508289923065,0.5890951417972885,A,722,Incorrect
2,relearn,55,856,A,28.535321097861193,43.00968077173133,1.4267660548930596,0.6755944857285667,A,627,Correct
2,relearn,55,857,B,44.5432079373178,27.175250730899442,2.22716039686589,0.42686784027827174,B,1080,Correct
2,relearn,55,858,A,45.34268482804046,69.56797909307069,2.2671342414020232,1.092771260219396,A,806,Correct
2,relearn,55,859,B,46.145146967286166,20.232357685437094,2.3072573483643084,0.3178091313468508,B,1170,Correct
2,relearn,55,860,A,40.999550780826084,52.63732701494857,2.049977539041304,0.82682519927383,B,988,Incorrect
2,relearn,55,861,B,57.396103369033824,26.146835909105818,2.869805168451691,0.4107135380333231,B,1568,Correct
2,relearn,55,862,B,71.21917237864012,46.2668837878431,3.560958618932006,0.726758511061903,B,923,Correct
2,relearn,55,863,B,72.33242945319877,59.59895592026719,3.616621472659938,0.9361782104036666,B,751,Correct
2,relearn,55,864,A,32.00231001780632,63.70292380675209,1.6001155008903163,1.0006431872174135,A,588,Correct
2,relearn,55,865,B,34.43878085347413,23.427706978486246,1.7219390426737065,0.36800156067033357,A,3726,Incorrect
2,relearn,55,866,B,82.43280130694065,55.860306637643674,4.121640065347032,0.8774516448004726,B,603,Correct
2,relearn,55,867,B,66.44712185573576,49.16598500748749,3.322356092786788,0.7722974865301431,B,464,Correct
2,relearn,55,868,A,36.75516289587282,51.509245511567784,1.837758144793641,0.8091053364554719,A,574,Correct
2,relearn,55,869,B,65.63341029604064,54.332684735820514,3.281670514802032,0.8534558160793202,B,665,Correct
2,relearn,55,870,A,52.80153751345007,75.12611228634957,2.6400768756725035,1.1800782122577886,A,781,Correct
2,relearn,55,871,B,81.78529370570513,67.82986738962545,4.089264685285257,1.0654690654260859,A,1637,Incorrect
2,relearn,55,872,A,16.778207001818377,39.26424759269078,0.8389103500909187,0.6167613589296405,A,640,Correct
2,relearn,55,873,A,37.851959507144116,68.61027026756658,1.8925979753572058,1.0777276051669868,B,708,Incorrect
2,relearn,55,874,A,45.01779107604834,59.86463906391943,2.250889553802417,0.9403515514650691,A,478,Correct
2,relearn,55,875,A,32.20820287426072,48.97688425955317,1.6104101437130363,0.769327098927649,A,1002,Correct
2,relearn,55,876,A,53.61196118126268,82.0711198992791,2.6805980590631338,1.2891701367373114,A,959,Correct
2,relearn,55,877,B,64.78785211984858,34.497584056369675,3.239392605992429,0.5418867831904368,B,827,Correct
2,relearn,55,878,A,48.13112730934242,61.91311287030685,2.4065563654671207,0.9725289027711584,B,2443,Incorrect
2,relearn,55,879,B,78.31846638254135,60.431519864899364,3.9159233191270677,0.9492560942641675,A,415,Incorrect
2,relearn,55,880,A,25.149368072527157,39.62348027105104,1.2574684036263577,0.6224041726459701,A,672,Correct
2,relearn,55,881,A,49.833922524202436,76.37470828141848,2.4916961262101216,1.199691112284839,A,650,Correct
2,relearn,55,882,A,67.85336452691107,89.71086116177366,3.392668226345553,1.4091749118652104,A,826,Correct
2,relearn,55,883,B,61.45136019365126,41.43729307251624,3.072568009682563,0.6508954775063213,B,925,Correct
2,relearn,55,884,B,38.77536554005526,15.751205701230738,1.938768277002763,0.24741936058084077,A,741,Incorrect
2,relearn,55,885,A,15.141516054964423,33.41529462840988,0.7570758027482212,0.5248862206107547,A,589,Correct
2,relearn,55,886,A,41.28268146166111,55.84133690868891,2.0641340730830557,0.8771536689948481,A,859,Correct
2,relearn,55,887,B,56.12750376843885,34.40637171422391,2.8063751884219426,0.5404540230704274,B,2057,Correct
2,relearn,55,888,A,62.620236813680464,76.88135364394762,3.131011840684023,1.2076494790293235,A,677,Correct
2,relearn,55,889,B,67.75766428162045,43.042219294022104,3.3878832140810227,0.6761055996415034,A,631,Incorrect
2,relearn,55,890,B,62.79249698662072,49.913609323598806,3.139624849331036,0.7840411418258451,A,636,Incorrect
2,relearn,55,891,A,34.32103105591199,58.82095388101711,1.7160515527955993,0.9239573829487367,A,742,Correct
2,relearn,55,892,B,53.306111122931426,21.915592430649227,2.6653055561465715,0.34424932089597843,B,5288,Correct
2,relearn,55,893,B,57.83353045785668,29.26203066745814,2.8916765228928343,0.45964690287002863,B,737,Correct
2,relearn,55,894,B,71.41478723710206,39.11737881286921,3.5707393618551033,0.6144543495309948,A,670,Incorrect
2,relearn,55,895,B,51.909136530784494,26.626496300401044,2.595456826539225,0.4182480258408786,B,567,Correct
2,relearn,55,896,B,36.90913989574196,16.738504120123352,1.845456994787098,0.26292780787931,B,479,Correct
2,relearn,55,897,B,59.897044799593566,31.123466658552356,2.994852239979678,0.48888627104377474,B,505,Correct
2,relearn,55,898,B,78.99773325104408,56.865076275963304,3.9498866625522044,0.8932345293719477,A,611,Incorrect
