experiment,condition,subject,trial,cat,x,y,xt,yt,resp,rt,fb
2,relearn,61,0,A,46.56811696534997,74.51498128901247,2.328405848267499,1.1704785889997122,B,1843,Incorrect
2,relearn,61,1,B,54.744777539321184,24.29305978123668,2.737238876966059,0.3815944907097541,B,1815,Correct
2,relearn,61,2,B,62.58718027267499,30.797449975125993,3.1293590136337497,0.48376521295577485,B,1322,Correct
2,relearn,61,3,A,65.86965683086648,76.77396353371171,3.2934828415433235,1.2059625991223968,A,1799,Correct
2,relearn,61,4,B,70.6476689921123,37.46215461606299,3.5323834496056152,0.5884541486473422,B,962,Correct
2,relearn,61,5,A,22.06581421087364,44.587256741560715,1.103290710543682,0.7003749911150455,A,1554,Correct
2,relearn,61,6,B,41.552041335803324,29.622225496662693,2.077602066790166,0.46530483001647893,B,866,Correct
2,relearn,61,7,B,64.85323784906564,39.50882185469452,3.242661892453282,0.6206031224534807,B,2372,Correct
2,relearn,61,8,B,59.049655379583264,37.48673230539013,2.952482768979163,0.588840214088504,B,987,Correct
2,relearn,61,9,A,53.250885888310684,66.75386964564241,2.662544294415534,1.0485673323872042,A,839,Correct
2,relearn,61,10,B,34.27903714599046,13.166071304385678,1.713951857299523,0.20681216443248715,A,1567,Incorrect
2,relearn,61,11,B,80.95940027228865,64.15743635917684,4.0479700136144325,1.0077826536957233,B,971,Correct
2,relearn,61,12,B,59.499083685942786,30.895202350047434,2.974954184297139,0.4853007036703957,B,1697,Correct
2,relearn,61,13,B,83.38049198352019,60.5601528803855,4.1690245991760095,0.9512766569464691,B,1431,Correct
2,relearn,61,14,A,67.03657570050197,81.38302517792474,3.351828785025099,1.2783615701294078,A,3036,Correct
2,relearn,61,15,A,64.52410455206191,75.48704439713788,3.2262052276030952,1.1857477205962745,B,1273,Incorrect
2,relearn,61,16,B,32.18810338438778,15.633887712573802,1.609405169219389,0.24557653392434797,A,2179,Incorrect
2,relearn,61,17,A,15.760965448608612,42.30850353164438,0.7880482724304306,0.664580419396959,A,2221,Correct
2,relearn,61,18,A,37.507127301047,65.45507860152951,1.8753563650523501,1.0281659703735377,B,1642,Incorrect
2,relearn,61,19,A,40.45096772051325,53.555856749262,2.022548386025662,0.8412534306009442,B,2219,Incorrect
2,relearn,61,20,A,59.78271446787113,79.56203077457653,2.9891357233935567,1.2497574569304732,B,2179,Incorrect
2,relearn,61,21,B,48.77526876508628,25.765237292315277,2.438763438254314,0.40471940097767717,B,926,Correct
2,relearn,61,22,B,56.29147267540958,45.280562726200195,2.814573633770479,0.7112654160552118,B,1072,Correct
2,relearn,61,23,B,67.14700448324534,43.53606718011366,3.357350224162267,0.6838629440961839,B,971,Correct
2,relearn,61,24,A,67.62229620507154,80.31414287580343,3.3811148102535764,1.2615716061899251,A,646,Correct
2,relearn,61,25,A,51.09797866218591,58.020985872627584,2.5548989331092953,0.91139151485742,B,865,Incorrect
2,relearn,61,26,A,42.956819194382675,56.25874472261479,2.1478409597191335,0.8837102956037509,B,1846,Incorrect
2,relearn,61,27,B,64.68995556694493,54.947116667787434,3.234497778347247,0.8631072902973115,B,777,Correct
2,relearn,61,28,A,30.382678130024644,50.22421430850339,1.5191339065012324,0.788920113519568,A,711,Correct
2,relearn,61,29,A,56.49127333769981,83.39322469480075,2.8245636668849903,1.3099377103017447,B,1832,Incorrect
2,relearn,61,30,B,36.32297506739786,19.573460361908847,1.8161487533698932,0.30745919639151925,A,1769,Incorrect
2,relearn,61,31,A,59.912923418137225,70.01966127450092,2.995646170906861,1.099866267334089,B,1799,Incorrect
2,relearn,61,32,A,38.83046819215937,55.636566072171796,1.9415234096079685,0.8739371362164903,A,3026,Correct
2,relearn,61,33,A,45.90903758122466,62.167565725348254,2.295451879061233,0.9765258388715735,A,1054,Correct
2,relearn,61,34,B,39.35669863724577,16.637968708277228,1.9678349318622883,0.261348601322903,B,1028,Correct
2,relearn,61,35,B,43.58489907888362,23.501521066324745,2.179244953944181,0.369161029650758,A,1041,Incorrect
2,relearn,61,36,A,49.68493774050031,58.17912815386452,2.4842468870250154,0.9138756080021995,B,918,Incorrect
2,relearn,61,37,B,54.58792149371063,40.92596674939664,2.7293960746855315,0.6428635824048232,B,1154,Correct
2,relearn,61,38,A,49.499842645662675,77.97044878961177,2.4749921322831336,1.2247569455727176,A,749,Correct
2,relearn,61,39,B,33.91223521337556,22.608199855046507,1.6956117606687782,0.3551287728775196,B,907,Correct
2,relearn,61,40,A,63.253701443096524,75.37438191469623,3.162685072154826,1.1839780224604053,A,1174,Correct
2,relearn,61,41,A,25.35707004276606,44.511071837277335,1.267853502138303,0.69917828143699,B,834,Incorrect
2,relearn,61,42,A,41.35249870830401,63.9989718417995,2.0676249354152008,1.0052934988774866,A,2145,Correct
2,relearn,61,43,A,31.164797971383855,43.616438830097934,1.5582398985691928,0.6851254190219213,A,1186,Correct
2,relearn,61,44,B,69.93573070819346,47.446286992234995,3.4967865354096728,0.7452845332745922,B,1008,Correct
2,relearn,61,45,A,48.8685646230921,76.4958198410942,2.4434282311546047,1.2015935282155494,B,2484,Incorrect
2,relearn,61,46,A,66.42903188278581,87.42742202595312,3.3214515941392904,1.373306733795144,B,1522,Incorrect
2,relearn,61,47,B,36.16049124393615,11.573467088204804,1.8080245621968074,0.18179559590433733,A,1648,Incorrect
2,relearn,61,48,B,63.69968389711144,33.97244293142956,3.1849841948555717,0.5336378856893881,B,3095,Correct
2,relearn,61,49,A,61.818171202709415,79.02982895326213,3.0909085601354707,1.2413976502701312,B,1251,Incorrect
2,relearn,61,50,B,51.4889707094982,42.6530480322791,2.57444853547491,0.6699925117571031,B,1522,Correct
2,relearn,61,51,B,63.790661405232754,48.188514715204136,3.189533070261638,0.7569434190834448,B,1186,Correct
2,relearn,61,52,A,30.3368559140751,45.9532252322326,1.5168427957037551,0.7218315739916952,A,738,Correct
2,relearn,61,53,A,53.43841104312856,69.03144850247784,2.671920552156428,1.0843434574102326,B,912,Incorrect
2,relearn,61,54,A,38.14268859139346,59.170308734512425,1.907134429569673,0.9294450361549209,A,1773,Correct
2,relearn,61,55,A,17.05242703750221,38.499345319206554,0.8526213518751105,0.6047463021141795,A,852,Correct
2,relearn,61,56,B,73.29883932231841,49.933988865519495,3.664941966115921,0.7843612629217529,B,1466,Correct
2,relearn,61,57,B,42.6212897682699,28.757296550095006,2.131064488413495,0.4517185578944079,B,1677,Correct
2,relearn,61,58,A,57.30735935090181,80.7676890221901,2.8653679675450907,1.2686958923976868,A,2032,Correct
2,relearn,61,59,A,32.755881080032836,50.13413235476227,1.637794054001642,0.7875051094990975,A,832,Correct
2,relearn,61,60,B,32.20040945660418,13.206362332689505,1.6100204728302088,0.20744505442511152,B,1207,Correct
2,relearn,61,61,B,58.77423165511989,41.95228713600914,2.938711582755994,0.6589849853388795,B,1269,Correct
2,relearn,61,62,A,35.8401684099577,52.272684940383336,1.792008420497885,0.8210974149606105,A,892,Correct
2,relearn,61,63,B,66.71362443486235,43.071311212752235,3.3356812217431178,0.6765625744323105,A,1312,Incorrect
2,relearn,61,64,B,56.31030011834076,48.20995069708201,2.815515005917038,0.7572801346993947,B,654,Correct
2,relearn,61,65,B,64.36137811183518,31.585344861544126,3.2180689055917586,0.4961414368906357,B,654,Correct
2,relearn,61,66,B,48.16189111510687,39.629620566359414,2.4080945557553433,0.6225006241791285,B,585,Correct
2,relearn,61,67,B,59.00742252236356,44.74850502087981,2.950371126118178,0.7029078731636099,B,1375,Correct
2,relearn,61,68,A,33.2660441136632,53.39121712005409,1.6633022056831601,0.8386672773528976,A,742,Correct
2,relearn,61,69,A,52.56446936212599,81.10071709905284,2.6282234681062993,1.2739270851962425,A,1529,Correct
2,relearn,61,70,A,53.92872503507679,65.04037201939536,2.6964362517538394,1.021651774614398,A,1396,Correct
2,relearn,61,71,A,36.95930544763033,61.753944390834604,1.8479652723815163,0.9700286901421932,A,774,Correct
2,relearn,61,72,B,30.852174184104957,12.196719950910701,1.5426087092052478,0.1915856289783656,A,633,Incorrect
2,relearn,61,73,B,35.1411266704613,15.378632161033387,1.7570563335230647,0.24156698909681107,B,497,Correct
2,relearn,61,74,A,51.57142140846158,76.84642742893989,2.578571070423079,1.2071008593268937,B,736,Incorrect
2,relearn,61,75,B,88.41319639150169,64.08240045468442,4.420659819575084,1.0066039924641788,B,2350,Correct
2,relearn,61,76,B,73.52087700754826,60.22338035425278,3.6760438503774133,0.945986646476322,B,985,Correct
2,relearn,61,77,B,46.42626521976757,16.585329500468625,2.3213132609883784,0.2605217465801915,A,1209,Incorrect
2,relearn,61,78,A,47.16254806031392,63.308085568120575,2.358127403015696,0.994441082668208,B,440,Incorrect
2,relearn,61,79,B,40.95941227777932,32.6287193389518,2.047970613888966,0.5125307248564709,A,1259,Incorrect
2,relearn,61,80,B,76.33455196471564,47.877040462901846,3.816727598235782,0.7520507929693685,B,879,Correct
2,relearn,61,81,A,52.93252170623914,64.50577239489562,2.646626085311957,1.0132543033496968,B,1463,Incorrect
2,relearn,61,82,B,67.92224637283543,49.33697714138363,3.3961123186417717,0.7749834246884918,B,918,Correct
2,relearn,61,83,B,57.9400402643355,44.04038322883652,2.8970020132167753,0.6917847220649598,B,1695,Correct
2,relearn,61,84,A,48.44390468319525,74.45976479830871,2.4221952341597626,1.1696112503919525,A,631,Correct
2,relearn,61,85,A,37.23084734737727,54.15689217584359,1.8615423673688636,0.8506944730044238,A,1717,Correct
2,relearn,61,86,B,58.897307413397144,32.12477092463553,2.944865370669857,0.5046147216754497,A,2083,Incorrect
2,relearn,61,87,B,34.13712748701935,11.655573542232567,1.7068563743509673,0.18308532106826697,A,771,Incorrect
2,relearn,61,88,B,49.38302044143331,33.29499683308573,2.4691510220716655,0.5229965872605878,B,737,Correct
2,relearn,61,89,B,73.91694459849784,46.37089477596421,3.6958472299248917,0.7283923118427724,B,801,Correct
2,relearn,61,90,A,52.975726422064824,78.31785865293661,2.648786321103241,1.2302140469447471,A,2621,Correct
2,relearn,61,91,B,66.65912707293475,33.974414527214435,3.332956353646738,0.533668855443556,B,1606,Correct
2,relearn,61,92,B,60.18587229609148,46.703961573493096,3.0092936148045744,0.7336241128641294,B,1101,Correct
2,relearn,61,93,A,38.50567889734703,47.95908160699924,1.9252839448673515,0.7533394922473109,A,1167,Correct
2,relearn,61,94,A,36.08262331590384,69.12194307357201,1.804131165795192,1.0857649428089287,A,1479,Correct
2,relearn,61,95,A,45.74861029105121,57.60765565666755,2.28743051455256,0.9048989390075863,A,764,Correct
2,relearn,61,96,A,62.690759900695255,88.69703807085774,3.1345379950347625,1.3932498159929045,A,1150,Correct
2,relearn,61,97,A,65.37934206132952,84.96573633774061,3.268967103066476,1.334638665427466,A,1901,Correct
2,relearn,61,98,B,87.48307358571165,65.92406305756431,4.374153679285582,1.0355327609821716,B,520,Correct
2,relearn,61,99,A,44.900019499538004,69.73712601254991,2.2450009749769,1.0954282138174622,B,918,Incorrect
2,relearn,61,100,A,36.22491840853926,51.68955859816415,1.8112459204269629,0.811937687796458,A,1023,Correct
2,relearn,61,101,B,68.29406999184955,46.253379119074374,3.4147034995924774,0.7265463802209379,A,1091,Incorrect
2,relearn,61,102,A,54.79776469846526,84.62492696902541,2.7398882349232627,1.3292852443823149,B,311,Incorrect
2,relearn,61,103,A,55.36369366947051,75.89967598705121,2.7681846834735255,1.1922293224538287,A,1851,Correct
2,relearn,61,104,B,78.30688778195358,64.86860513561064,3.915344389097679,1.0189536667132575,B,1320,Correct
2,relearn,61,105,A,41.31784948594518,52.52534591930764,2.065892474297259,0.8250662043367976,A,1941,Correct
2,relearn,61,106,B,60.08437742507967,34.135496883367594,3.004218871253984,0.5361991311771246,B,1271,Correct
2,relearn,61,107,B,53.97254148263832,28.18489608616779,2.6986270741319163,0.4427273124324822,B,754,Correct
2,relearn,61,108,A,32.39650872653391,60.77614369383892,1.6198254363266955,0.9546694327104099,A,773,Correct
2,relearn,61,109,A,15.642845431598818,30.67693777453039,0.7821422715799409,0.48187221173547945,A,837,Correct
2,relearn,61,110,B,69.65655474355648,52.83873073479275,3.4828277371778245,0.8299888415071704,B,4247,Correct
2,relearn,61,111,B,82.27713811097856,64.28043067583565,4.113856905548928,1.0097146439039664,B,1018,Correct
2,relearn,61,112,A,32.971788746454806,65.95295562459052,1.6485894373227403,1.035986604363736,A,952,Correct
2,relearn,61,113,A,68.88970254333927,88.86335966721855,3.444485127166963,1.3958623895192066,A,1175,Correct
2,relearn,61,114,A,46.882287019699916,74.6460294856746,2.3441143509849955,1.1725370892592122,A,1749,Correct
2,relearn,61,115,A,25.004066318428492,53.07885007774213,1.2502033159214248,0.8337606273261435,A,725,Correct
2,relearn,61,116,A,52.31641848522535,60.20362623942833,2.6158209242612673,0.9456763495662688,B,3461,Incorrect
2,relearn,61,117,A,56.45533914495502,67.50066961240312,2.822766957247751,1.0602980388335872,B,1140,Incorrect
2,relearn,61,118,A,64.17151457049438,80.62856031133452,3.208575728524719,1.2665104637180504,A,1141,Correct
2,relearn,61,119,B,43.30936026743012,28.185972634883647,2.1654680133715063,0.44274422282016707,A,1312,Incorrect
2,relearn,61,120,B,46.59040154008697,19.792346144754948,2.3295200770043487,0.31089744622834203,B,817,Correct
2,relearn,61,121,B,83.33756656819398,55.67214427016697,4.166878328409699,0.874495997243738,B,856,Correct
2,relearn,61,122,B,53.541666816665455,28.10476491437305,2.6770833408332724,0.44146861492931266,B,1445,Correct
2,relearn,61,123,A,14.825212992114992,36.297644595383204,0.7412606496057496,0.5701620680173456,A,755,Correct
2,relearn,61,124,B,75.36659923202393,51.75934470744349,3.7683299616011965,0.813033885437631,B,1283,Correct
2,relearn,61,125,B,72.97790032183372,42.95793386099915,3.6488950160916858,0.6747816471555557,B,1267,Correct
2,relearn,61,126,B,65.1709050884173,31.977910443350915,3.2585452544208646,0.5023078426299178,B,1744,Correct
2,relearn,61,127,A,47.97489476210992,64.5772020458707,2.398744738105496,1.0143763176834557,A,1455,Correct
2,relearn,61,128,B,70.28614643398154,57.81241317595436,3.5143073216990772,0.9081152625993798,B,1047,Correct
2,relearn,61,129,A,49.64981787534633,76.38716938769943,2.4824908937673165,1.1998868508845781,A,787,Correct
2,relearn,61,130,A,17.157317209165647,41.97753308800598,0.8578658604582824,0.6593815478255102,A,858,Correct
2,relearn,61,131,A,21.2354604117886,52.98164638342786,1.0617730205894302,0.832233755266346,A,558,Correct
2,relearn,61,132,A,45.67196647142811,72.59762886667406,2.2835983235714052,1.1403608875779077,B,1340,Incorrect
2,relearn,61,133,B,72.02549745411143,55.437986040586026,3.6012748727055715,0.8708178483745929,B,794,Correct
2,relearn,61,134,B,50.44389956563118,36.58770373947141,2.5221949782815587,0.5747183063982159,B,986,Correct
2,relearn,61,135,A,51.2994382592515,69.05653131422022,2.5649719129625748,1.0847374572957387,A,1953,Correct
2,relearn,61,136,A,33.103342990051786,64.24447542953317,1.6551671495025893,1.0091498602157567,A,774,Correct
2,relearn,61,137,A,46.10138692049636,58.83168524440527,2.305069346024818,0.9241259508106532,A,831,Correct
2,relearn,61,138,B,52.55202400193404,44.64435528093546,2.627601200096702,0.7012718928741977,A,1557,Incorrect
2,relearn,61,139,A,37.04738221976582,55.452474039271905,1.8523691109882912,0.8710454253257767,B,449,Incorrect
2,relearn,61,140,A,45.01084327566853,64.58836971897678,2.250542163783426,1.0145517390823946,B,763,Incorrect
2,relearn,61,141,B,35.441477177767055,24.312374516834804,1.772073858888353,0.3818978858670596,B,1695,Correct
2,relearn,61,142,B,42.000815302534505,30.62101303666834,2.1000407651267254,0.48099374800737266,B,529,Correct
2,relearn,61,143,B,72.6918798334035,53.58069003530693,3.634593991670175,0.8416435109459603,B,861,Correct
2,relearn,61,144,B,72.99615696605392,48.701399230146166,3.649807848302696,0.764999790204854,B,993,Correct
2,relearn,61,145,B,41.83125734357624,16.52530711704817,2.091562867178812,0.25957891718616827,B,1607,Correct
2,relearn,61,146,B,62.98739527352977,31.837652779955455,3.149369763676489,0.5001046804052536,B,1048,Correct
2,relearn,61,147,B,32.98803790102128,18.495936473356664,1.6494018950510638,0.290533490729804,B,1685,Correct
2,relearn,61,148,A,57.25999214508937,74.32375834694565,2.8629996072544683,1.1674748660497376,B,1251,Incorrect
2,relearn,61,149,A,51.91392451652182,61.461659738638765,2.595696225826091,0.9654374935617156,A,490,Correct
2,relearn,61,150,B,50.616021541340096,23.421961236192963,2.530801077067005,0.3679113067614436,B,1462,Correct
2,relearn,61,151,B,65.20915713459604,52.18109478788701,3.260457856729802,0.8196587202094924,B,1735,Correct
2,relearn,61,152,B,44.390426848457096,27.135009552826958,2.219521342422855,0.4262357333312501,B,1638,Correct
2,relearn,61,153,A,46.075895026152324,56.46328923446174,2.303794751307616,0.8869232732825032,B,1364,Incorrect
2,relearn,61,154,B,86.17119929728098,61.53148942521273,4.308559964864049,0.9665343757134317,B,861,Correct
2,relearn,61,155,B,56.561399201816236,28.353938413034108,2.8280699600908115,0.4453826230936269,B,1834,Correct
2,relearn,61,156,A,48.59039655466015,64.27020747686274,2.4295198277330075,1.0095540582700187,A,854,Correct
2,relearn,61,157,A,58.18350531430623,80.25686901648864,2.9091752657153114,1.260671950511595,A,678,Correct
2,relearn,61,158,A,43.68389435135665,64.06037327042402,2.1841947175678325,1.0062579902629203,A,1213,Correct
2,relearn,61,159,A,37.43072100389321,62.88260797548202,1.8715360501946605,0.9877576962717061,A,650,Correct
2,relearn,61,160,A,62.760538871749105,76.62661447145042,3.138026943587455,1.20364804546483,B,1606,Incorrect
2,relearn,61,161,A,39.86782554652697,53.84340818156042,1.9933912773263487,0.8457702779371338,A,1087,Correct
2,relearn,61,162,B,49.91367789618866,39.9061180546207,2.495683894809433,0.626843836568417,A,851,Incorrect
2,relearn,61,163,A,66.159104316002,86.79091444558335,3.3079552158001,1.3633084961029245,A,982,Correct
2,relearn,61,164,A,34.4905078239622,60.78463910509111,1.7245253911981098,0.9548028783183055,A,1370,Correct
2,relearn,61,165,B,30.302396488741216,13.630587145584151,1.5151198244370607,0.21410876220341318,B,1189,Correct
2,relearn,61,166,B,36.22552756240711,22.80821403044229,1.8112763781203554,0.35827058819770574,B,731,Correct
2,relearn,61,167,B,81.4804518986129,66.05191339160189,4.074022594930645,1.037541029333029,A,861,Incorrect
2,relearn,61,168,A,19.195547160331312,37.09838942735688,0.9597773580165656,0.5827401384249881,A,671,Correct
2,relearn,61,169,A,37.42446333234384,51.42284888624145,1.871223166617192,0.807748221438371,A,1130,Correct
2,relearn,61,170,B,67.55101436383923,57.071964944934216,3.3775507181919613,0.8964843289846978,B,1114,Correct
2,relearn,61,171,B,41.56003666637302,30.58438036129487,2.0780018333186514,0.48041832328819956,B,1142,Correct
2,relearn,61,172,B,51.59450713947586,42.83886232148765,2.5797253569737926,0.672911275786651,B,1421,Correct
2,relearn,61,173,A,65.19990206407043,80.92935311024297,3.2599951032035217,1.2712353059545678,A,1435,Correct
2,relearn,61,174,B,63.795168992829424,31.968015336065534,3.1897584496414715,0.5021524106481465,B,763,Correct
2,relearn,61,175,B,79.92685676272899,62.43822153892302,3.99634283813645,0.9807772904494628,B,1008,Correct
2,relearn,61,176,A,42.66906038234096,68.06907297187556,2.1334530191170478,1.069226497925559,B,878,Incorrect
2,relearn,61,177,A,27.52063396413196,60.252044656196645,1.3760316982065979,0.9464369042783577,A,570,Correct
2,relearn,61,178,B,77.1588875137522,64.2814742370404,3.8579443756876106,1.0097310361250385,A,582,Incorrect
2,relearn,61,179,A,40.961893552575525,71.39409587992027,2.0480946776287765,1.1214558356302142,B,1533,Incorrect
2,relearn,61,180,A,34.54430451111566,66.38344512411084,1.727215225555783,1.042748717609439,A,952,Correct
2,relearn,61,181,B,67.16583412168178,40.283977411870964,3.358291706084089,0.632779237472555,B,1062,Correct
2,relearn,61,182,B,59.741724406580396,34.8068092802544,2.98708622032902,0.5467440816487412,B,823,Correct
2,relearn,61,183,A,27.869219900552416,48.5926049593735,1.3934609950276209,0.7632908537957938,A,946,Correct
2,relearn,61,184,A,45.95256695628791,53.85948907605693,2.2976283478143955,0.8460228760372007,A,1844,Correct
2,relearn,61,185,A,35.767534400724124,62.458710311070405,1.7883767200362062,0.9810991273297591,A,886,Correct
2,relearn,61,186,B,64.57051131645572,49.507605259879135,3.2285255658227863,0.7776636449062984,B,772,Correct
2,relearn,61,187,A,23.50315349426957,49.817977388467504,1.1751576747134784,0.7825389589015597,A,670,Correct
2,relearn,61,188,B,51.107402731666156,27.198332051258188,2.5553701365833077,0.42723040081064273,B,1039,Correct
2,relearn,61,189,A,27.92255283673466,40.189600595767985,1.396127641836733,0.6312967699118635,A,1029,Correct
2,relearn,61,190,B,43.22499424624108,33.06516746129663,2.161249712312054,0.5193864359306288,B,1905,Correct
2,relearn,61,191,A,29.829743300271844,51.03343337393925,1.4914871650135921,0.8016312968751585,A,619,Correct
2,relearn,61,192,B,56.52759858585035,32.662459657175965,2.826379929292518,0.513060716535785,B,574,Correct
2,relearn,61,193,B,33.676160113294756,10.281314394369332,1.683808005664738,0.16149850885298841,A,987,Incorrect
2,relearn,61,194,A,55.46176540478628,76.31496530354619,2.7730882702393136,1.1987526717829036,B,719,Incorrect
2,relearn,61,195,A,48.46681493343924,66.80613675835312,2.423340746671962,1.049388342273786,B,681,Incorrect
2,relearn,61,196,A,44.578062049377074,59.42088515450084,2.2289031024688537,0.933381081355913,B,1031,Incorrect
2,relearn,61,197,B,36.83215445939727,12.127525841592561,1.8416077229698635,0.19049873045083782,A,1971,Incorrect
2,relearn,61,198,B,70.77318293630832,45.65852895533478,3.538659146815416,0.717202495698983,B,677,Correct
2,relearn,61,199,B,54.8235198181442,44.7401893809261,2.74117599090721,0.7027772513966675,B,675,Correct
2,relearn,61,200,A,68.65221230192276,88.80976076852048,3.432610615096138,1.3950204599872547,B,2048,Incorrect
2,relearn,61,201,A,49.859613928073976,69.22277296788529,2.492980696403699,1.0873487750851127,A,1247,Correct
2,relearn,61,202,A,40.93914946575217,57.53697910246695,2.0469574732876086,0.9037887542902983,A,731,Correct
2,relearn,61,203,A,36.504178190874235,64.92265670003088,1.8252089095437116,1.0198027067017459,A,820,Correct
2,relearn,61,204,B,39.64654275406177,19.347366051915994,1.9823271377030887,0.3039077152750593,A,1274,Incorrect
2,relearn,61,205,A,47.93610018228133,61.812519289989254,2.3968050091140665,0.9709487825065383,B,750,Incorrect
2,relearn,61,206,B,55.87151614245296,36.46427677233187,2.793575807122648,0.5727795201321138,B,838,Correct
2,relearn,61,207,A,30.79788283789227,41.750305845624354,1.5398941418946135,0.6558122706487023,A,1141,Correct
2,relearn,61,208,B,71.0791956290769,55.31260716401154,3.5539597814538455,0.8688484015867841,B,916,Correct
2,relearn,61,209,B,40.276598322284826,22.355463216154938,2.0138299161142412,0.351158795037346,A,680,Incorrect
2,relearn,61,210,B,56.905833838259625,41.88126543587735,2.8452916919129816,0.6578693790819821,B,642,Correct
2,relearn,61,211,A,57.92004025547729,79.25965550557689,2.8960020127738644,1.2450077573118907,A,1128,Correct
2,relearn,61,212,B,50.90918549831514,40.17810507715281,2.545459274915757,0.6311161987277102,B,695,Correct
2,relearn,61,213,A,44.516743112233826,63.91320104498884,2.2258371556116914,1.0039462143517222,B,1232,Incorrect
2,relearn,61,214,A,45.834977967446186,64.37709078454313,2.291748898372309,1.0112329773410194,A,888,Correct
2,relearn,61,215,B,44.263603096736915,17.33140764154314,2.213180154836846,0.27224111461520967,A,1445,Incorrect
2,relearn,61,216,A,39.719979438825035,65.34126678400128,1.9859989719412516,1.026378218524346,A,1782,Correct
2,relearn,61,217,A,31.37411153811542,49.91725514471037,1.568705576905771,0.784098410249947,A,759,Correct
2,relearn,61,218,B,46.93366716787293,30.900149128200592,2.3466833583936464,0.48537840747992006,B,1154,Correct
2,relearn,61,219,A,18.49413963569161,44.34321137854075,0.9247069817845806,0.6965415355170147,A,700,Correct
2,relearn,61,220,A,40.8985222927317,68.59207300735103,2.044926114636585,1.077441763271944,A,1519,Correct
2,relearn,61,221,A,44.311907645631315,57.86252104289084,2.215595382281566,0.9089023551326533,A,1506,Correct
2,relearn,61,222,A,65.12339006755336,76.26702775336298,3.2561695033776683,1.19799967050547,B,814,Incorrect
2,relearn,61,223,A,21.826215937387452,50.57385329611267,1.0913107968693725,0.7944122298939774,A,625,Correct
2,relearn,61,224,A,61.11588662319812,78.13597791516791,3.055794331159906,1.2273570709967292,A,1167,Correct
2,relearn,61,225,A,19.478318225853062,38.358488126257456,0.9739159112926531,0.6025337225013087,A,503,Correct
2,relearn,61,226,A,38.3922857877316,55.77354426311149,1.91961428938658,0.8760887846082811,A,1054,Correct
2,relearn,61,227,A,11.007022208472598,34.39610236316289,0.5503511104236299,0.5402927124811753,A,1190,Correct
2,relearn,61,228,A,51.28175085176536,66.62552108851624,2.564087542588268,1.0465512379663722,B,2037,Incorrect
2,relearn,61,229,A,51.63348954471307,58.55823903391225,2.5816744772356537,0.9198306677804688,A,764,Correct
2,relearn,61,230,A,52.60575784323657,59.5924242545158,2.630287892161828,0.936075611237965,A,629,Correct
2,relearn,61,231,B,82.23784348674067,67.30180329906669,4.111892174337033,1.057174254088466,B,1492,Correct
2,relearn,61,232,B,71.05472887051631,51.661645702500095,3.552736443525816,0.8114992330566652,B,664,Correct
2,relearn,61,233,B,37.035603729464995,19.595312062121383,1.8517801864732497,0.3078024420958,B,2037,Correct
2,relearn,61,234,A,62.9338129966314,84.30782877226362,3.14669064983157,1.3243042775552478,A,895,Correct
2,relearn,61,235,B,62.123369928218885,46.91539050439752,3.106168496410944,0.736945230744558,B,867,Correct
2,relearn,61,236,B,39.91687513740547,31.13576976400185,1.9958437568702734,0.48907952777225716,B,1360,Correct
2,relearn,61,237,B,87.6981555514631,64.33658127197333,4.384907777573155,1.0105966554055703,B,778,Correct
2,relearn,61,238,B,52.76966423871909,31.563316994335047,2.6384832119359545,0.4957954239616443,B,873,Correct
2,relearn,61,239,A,24.596761454314453,55.673465524362825,1.2298380727157225,0.8745167514561143,A,812,Correct
2,relearn,61,240,B,67.46520338345952,52.96930325213635,3.373260169172976,0.8320398698134075,B,773,Correct
2,relearn,61,241,A,34.12033835710598,58.95729837075624,1.706016917855299,0.9260990771853466,A,685,Correct
2,relearn,61,242,A,19.712218885632414,32.67238190776652,0.9856109442816207,0.5132165748835968,A,487,Correct
2,relearn,61,243,A,45.87401017769602,54.21686437522044,2.2937005088848013,0.8516365141093334,A,1686,Correct
2,relearn,61,244,A,45.977763229327174,73.06872528173635,2.2988881614663588,1.1477608527613685,A,736,Correct
2,relearn,61,245,A,23.22359544897963,53.49237493221695,1.1611797724489816,0.8402562605506178,A,697,Correct
2,relearn,61,246,A,50.31322471868673,63.16846251139656,2.5156612359343367,0.9922478888218283,A,2834,Correct
2,relearn,61,247,B,68.31237349161748,50.90379076118424,3.4156186745808736,0.7995948754760418,B,875,Correct
2,relearn,61,248,A,42.38570056368707,57.703131162069475,2.119285028184353,0.9063986647394288,B,1658,Incorrect
2,relearn,61,249,A,39.62356299983772,67.65981721210439,1.9811781499918864,1.0627979234838767,A,619,Correct
2,relearn,61,250,A,33.92714516044758,66.02278659302235,1.6963572580223791,1.0370835066508284,A,604,Correct
2,relearn,61,251,B,69.211383191951,48.85949591535581,3.46056915959755,0.7674831671289115,B,553,Correct
2,relearn,61,252,B,61.401464411978104,32.9319753900796,3.070073220598905,0.5172942597683696,B,819,Correct
2,relearn,61,253,A,65.04254947472072,79.62576553971294,3.252127473736036,1.2507586002801276,B,667,Incorrect
2,relearn,61,254,A,27.866134192973263,58.164110621959715,1.3933067096486633,0.9136397131626635,A,540,Correct
2,relearn,61,255,A,18.86311631208259,46.865624466347164,0.9431558156041294,0.7361635076468716,A,650,Correct
2,relearn,61,256,B,41.51408251362817,21.044908332628424,2.0757041256814084,0.33057264706628037,A,1761,Incorrect
2,relearn,61,257,B,51.20483484497903,23.26735812485736,2.5602417422489516,0.3654828067674733,B,598,Correct
2,relearn,61,258,A,44.177163759119516,70.78958224240577,2.208858187955976,1.111960157617162,B,707,Incorrect
2,relearn,61,259,B,69.96781593879635,38.53329030148267,3.4983907969398174,0.605279508648904,B,664,Correct
2,relearn,61,260,A,18.09876264895834,31.42428890181687,0.904938132447917,0.49361157579115567,A,796,Correct
2,relearn,61,261,A,57.972553276542044,68.68338097069966,2.898627663827102,1.0788760254062952,A,1845,Correct
2,relearn,61,262,A,52.22836389678665,77.29619138957221,2.6114181948393322,1.2141657350997535,A,907,Correct
2,relearn,61,263,B,37.67275520125162,23.18331268741559,1.8836377600625809,0.36416262412329936,A,1249,Incorrect
2,relearn,61,264,B,37.75986265073368,18.56728849883807,1.887993132536684,0.29165428572515967,B,597,Correct
2,relearn,61,265,A,52.59521538682894,61.24321954897879,2.629760769341447,0.962006243086293,B,740,Incorrect
2,relearn,61,266,A,15.323183378371954,39.95277206236912,0.7661591689185977,0.6275766760084318,A,510,Correct
2,relearn,61,267,A,24.92999225772336,43.23176252088369,1.2464996128861678,0.6790829376867338,A,701,Correct
2,relearn,61,268,A,27.917876223401382,59.81254631409699,1.3958938111700692,0.9395332804643317,A,458,Correct
2,relearn,61,269,A,43.539266154450196,66.45129337054685,2.17696330772251,1.0438144753722505,A,1671,Correct
2,relearn,61,270,A,59.64631965853858,83.91322485364893,2.982315982926929,1.3181058536962595,A,1980,Correct
2,relearn,61,271,B,77.2066145974089,58.50410892011385,3.8603307298704452,0.9189803939412337,B,710,Correct
2,relearn,61,272,B,43.28129671934122,23.304165222793273,2.164064835967061,0.3660609713098505,B,1410,Correct
2,relearn,61,273,B,31.566759675550326,14.882334711105504,1.5783379837775164,0.2337711669833671,A,1305,Incorrect
2,relearn,61,274,B,84.41337763548688,62.00692129287283,4.220668881774344,0.974002442027049,B,711,Correct
2,relearn,61,275,A,40.72560899833882,68.00423967848383,2.036280449916941,1.0682080989344216,A,1102,Correct
2,relearn,61,276,B,61.98502519771921,37.743216157205985,3.0992512598859605,0.5928690530116496,B,1276,Correct
2,relearn,61,277,A,53.22889784937247,69.47135151469078,2.6614448924686234,1.0912534377675336,A,1068,Correct
2,relearn,61,278,A,36.25942926647605,54.944627637937124,1.8129714633238023,0.8630681927078498,A,1109,Correct
2,relearn,61,279,A,45.814420755740954,74.62911888828594,2.2907210377870477,1.172271458216592,A,883,Correct
2,relearn,61,280,A,38.41381972600556,46.44123754603478,1.9206909863002781,0.7294972534912065,A,518,Correct
2,relearn,61,281,A,14.196570004125796,32.46792295752012,0.7098285002062897,0.5100049412033231,A,599,Correct
2,relearn,61,282,A,62.74619012776324,76.12159683123096,3.137309506388162,1.1957152469225962,A,2723,Correct
2,relearn,61,283,B,58.50680988985797,48.99722739446378,2.9253404944928985,0.7696466481435797,B,767,Correct
2,relearn,61,284,A,54.504109105067975,68.00188175553089,2.7252054552533984,1.068171060767288,A,2406,Correct
2,relearn,61,285,B,64.51585367935746,52.607591133787814,3.225792683967873,0.8263581091448166,B,714,Correct
2,relearn,61,286,B,72.47082519245721,56.69328149005643,3.6235412596228604,0.8905359831852974,B,625,Correct
2,relearn,61,287,A,40.352216468305876,61.12083671021283,2.0176108234152936,0.9600838579503297,B,643,Incorrect
2,relearn,61,288,A,62.02023507767946,78.62277349957193,3.1010117538839728,1.2350036381555471,A,883,Correct
2,relearn,61,289,B,41.042225245962136,18.24913048813442,2.052111262298107,0.28665667137962303,B,827,Correct
2,relearn,61,290,A,39.3273747016388,72.3929103521576,1.96636873508194,1.137145176671614,A,644,Correct
2,relearn,61,291,B,63.59399296993081,46.48802650336862,3.1796996484965403,0.7302322127143523,B,557,Correct
2,relearn,61,292,A,52.46595843269111,77.69515912777918,2.6232979216345553,1.2204327056766051,A,503,Correct
2,relearn,61,293,A,60.914689372234804,82.69045483112319,3.0457344686117405,1.2988986270972762,A,1302,Correct
2,relearn,61,294,A,39.880476886683255,65.5239881422416,1.9940238443341627,1.0292483989078547,B,550,Incorrect
2,relearn,61,295,B,85.93280218831846,58.77929819691181,4.2966401094159234,0.9233030569929097,B,481,Correct
2,relearn,61,296,A,42.497837676483265,68.39239084321939,2.1248918838241635,1.0743051631724994,A,953,Correct
2,relearn,61,297,A,49.84399398035103,58.57148264278552,2.4921996990175517,0.9200386979021853,B,1316,Incorrect
2,relearn,61,298,A,58.719253736246195,77.1643899815266,2.9359626868123097,1.212095403423509,A,427,Correct
2,relearn,61,299,A,14.082325063704314,37.858632810900005,0.7041162531852158,0.5946820135683848,B,518,Incorrect
2,relearn,61,300,A,37.687332416781324,52.410038030008494,1.8843666208390661,0.8232549522471817,A,600,Correct
2,relearn,61,301,B,64.02946052238912,54.31385807323168,3.201473026119456,0.8531600875549166,A,878,Incorrect
2,relearn,61,302,A,55.75747120321681,68.82872771312812,2.7878735601608406,1.0811591266974774,B,1055,Incorrect
2,relearn,61,303,A,24.73106597142396,41.30510367360537,1.236553298571198,0.6488190512838171,A,725,Incorrect
2,relearn,61,304,B,76.89588090022292,61.96008228102139,3.8447940450111457,0.9732666965493795,B,768,Incorrect
2,relearn,61,305,A,52.06978145645411,65.41445859939311,2.6034890728227054,1.0275279128720354,A,1729,Correct
2,relearn,61,306,A,48.277475953277424,67.56097159862018,2.413873797663871,1.0612452602180693,A,502,Incorrect
2,relearn,61,307,B,58.233435731278654,32.614981493111756,2.9116717865639328,0.5123149312786347,B,765,Incorrect
2,relearn,61,308,B,66.3551336066457,40.81201839588777,3.317756680332285,0.6410736858534625,B,503,Incorrect
2,relearn,61,309,B,43.31426362189809,19.502003987237114,2.1657131810949046,0.3063367622829149,A,1254,Incorrect
2,relearn,61,310,A,49.641722571398326,59.70319178996298,2.4820861285699163,0.9378155436160507,B,695,Incorrect
2,relearn,61,311,B,49.44387306441339,23.55730403131375,2.4721936532206694,0.37003726641578244,B,1276,Correct
2,relearn,61,312,A,63.45320341386186,75.73244582522426,3.1726601706930926,1.189602477214558,A,1182,Correct
2,relearn,61,313,B,42.20847484155556,29.274708243415503,2.110423742077778,0.4598460417674935,B,1739,Correct
2,relearn,61,314,B,43.63055154975078,26.231945445601244,2.1815275774875387,0.4120504355063455,B,610,Correct
2,relearn,61,315,A,12.455322960504951,30.264527781375406,0.6227661480252475,0.47539409071166583,A,626,Incorrect
2,relearn,61,316,B,76.07820404482837,55.17106298028209,3.803910202241418,0.86662503074797,B,659,Incorrect
2,relearn,61,317,A,40.125093827836125,68.2113786187895,2.0062546913918062,1.0714618298001048,B,996,Incorrect
2,relearn,61,318,A,16.18553976359649,31.20252319590249,0.8092769881798246,0.49012808822856185,A,673,Correct
2,relearn,61,319,B,65.5368250803848,51.742888021235245,3.27684125401924,0.8127753844151597,B,783,Incorrect
2,relearn,61,320,B,84.43482200102382,62.27044655567009,4.221741100051191,0.9781418871752449,B,1018,Correct
2,relearn,61,321,B,65.76384550526787,52.16107402567141,3.288192275263393,0.8193442348120134,B,1303,Correct
2,relearn,61,322,A,59.75193757689579,84.19473324445755,2.9875968788447897,1.3225277771587007,A,757,Incorrect
2,relearn,61,323,A,46.4931463982243,70.9229677983717,2.324657319911215,1.11405537303075,A,1227,Incorrect
2,relearn,61,324,B,67.04864405109308,34.947499732243045,3.3524322025546542,0.5489540421007302,B,703,Correct
2,relearn,61,325,B,47.27420595370606,35.92521986898292,2.363710297685303,0.5643120340949741,B,924,Incorrect
2,relearn,61,326,A,30.115520634171,41.17730298722752,1.5057760317085498,0.646811562796575,B,2509,Correct
2,relearn,61,327,B,59.09354030934723,27.917105210648014,2.954677015467362,0.43852086319632566,B,733,Incorrect
2,relearn,61,328,B,67.4454439436675,37.071275582227614,3.372272197183375,0.5823142351416448,B,781,Correct
2,relearn,61,329,B,86.42670970536354,59.64876106424059,4.321335485268176,0.9369605477757555,B,598,Incorrect
2,relearn,61,330,A,34.35438872530251,59.68366168442165,1.7177194362651256,0.9375087654355884,B,2955,Incorrect
2,relearn,61,331,A,38.61698953738375,46.97004979509979,1.9308494768691875,0.7378038168751614,A,650,Incorrect
2,relearn,61,332,B,45.45053788046294,21.321416988404053,2.272526894023147,0.33491603487447386,B,815,Incorrect
2,relearn,61,333,B,47.0850839633343,19.739404466343043,2.3542541981667147,0.31006584028850426,B,719,Correct
2,relearn,61,334,A,53.91845151223723,80.04539411455066,2.6959225756118617,1.2573501105198601,A,945,Incorrect
2,relearn,61,335,A,63.47896515045551,80.10423422536613,3.1739482575227753,1.2582743688192315,B,901,Correct
2,relearn,61,336,A,35.11786615200226,53.01401293857096,1.7558933076001129,0.8327421679256438,B,1264,Incorrect
2,relearn,61,337,A,33.66348504724439,55.356320838559654,1.6831742523622197,0.869535054380893,A,467,Correct
2,relearn,61,338,B,80.7868797615298,58.369969120570694,4.0393439880764905,0.9168733308972399,B,657,Incorrect
2,relearn,61,339,B,76.89145875270549,64.00161435200532,3.8445729376352746,1.0053350073307348,B,765,Correct
2,relearn,61,340,B,61.77623469357927,41.62587575711567,3.0888117346789636,0.6538577273889803,B,1122,Correct
2,relearn,61,341,A,48.07718886129229,73.23836075888168,2.4038594430646145,1.1504254806053085,A,505,Correct
2,relearn,61,342,A,68.94001861684997,86.4724773410536,3.4470009308424983,1.358306497761819,A,405,Correct
2,relearn,61,343,B,69.33441937860518,59.472341649085415,3.4667209689302587,0.9341893580827451,B,1272,Incorrect
2,relearn,61,344,B,63.93387901419757,39.099300680929545,3.196693950709879,0.6141703788985333,B,642,Correct
2,relearn,61,345,B,70.87916583735918,61.79890036485985,3.5439582918679595,0.9707348569308565,B,506,Correct
2,relearn,61,346,B,61.70117437252288,38.04454546334121,3.085058718626144,0.5976023226839782,B,1134,Incorrect
2,relearn,61,347,A,31.297954212603912,44.91669563045532,1.5648977106301956,0.705549805080836,A,913,Correct
2,relearn,61,348,B,58.77433721412303,46.479447916309255,2.9387168607061516,0.7300974605839329,B,997,Incorrect
2,relearn,61,349,B,84.14880087202297,62.94191470685908,4.207440043601149,0.9886892842297192,B,939,Correct
2,relearn,61,350,B,59.971827541035104,37.30264049304543,2.998591377051755,0.5859485066622633,B,969,Incorrect
2,relearn,61,351,B,52.93827540559207,36.10219069966205,2.6469137702796037,0.5670918854027802,B,1668,Incorrect
2,relearn,61,352,A,42.32803545128584,56.145377845609694,2.1164017725642923,0.8819295328639527,A,1015,Correct
2,relearn,61,353,A,67.72960715185624,88.0745588564417,3.3864803575928124,1.3834719353577956,A,875,Correct
2,relearn,61,354,B,82.7242557085311,63.52116803326653,4.136212785426555,0.9977881742037646,A,718,Incorrect
2,relearn,61,355,A,33.97000252097143,66.54302942451362,1.6985001260485715,1.0452554619383072,A,648,Correct
2,relearn,61,356,B,48.04972890139398,38.44641606995567,2.4024864450696994,0.6039148914111465,A,1378,Incorrect
2,relearn,61,357,B,47.885455592927045,28.422700055243723,2.394272779646352,0.4464627284436995,B,878,Incorrect
2,relearn,61,358,A,57.850805945283476,82.4867344276426,2.892540297264174,1.2956985944824713,A,750,Correct
2,relearn,61,359,B,71.1358146471612,61.52421034464133,3.5567907323580594,0.9664200361831918,B,1664,Correct
2,relearn,61,360,A,46.259839915594604,76.7243735188766,2.31299199577973,1.2051836409909098,A,642,Correct
2,relearn,61,361,B,80.18299043341129,66.02660291159975,4.009149521670564,1.037143453242861,B,1037,Correct
2,relearn,61,362,B,60.24642540830783,53.2333287219476,3.012321270415391,0.8361871721950056,B,664,Incorrect
2,relearn,61,363,A,39.851742878115346,57.08096414641262,1.9925871439057672,0.8966256881109613,B,1361,Incorrect
2,relearn,61,364,B,37.275472508207436,12.820131123582314,1.8637736254103716,0.2013781487795203,A,464,Incorrect
2,relearn,61,365,A,43.593997760592146,53.26927208188564,2.1796998880296075,0.8367517691726389,B,880,Incorrect
2,relearn,61,366,B,47.44703063519575,16.94621653321043,2.3723515317597874,0.26619054683437887,B,1403,Correct
2,relearn,61,367,B,61.78942016024321,29.08313318555298,3.0894710080121603,0.4568367877955337,B,1574,Correct
2,relearn,61,368,A,43.48391013451213,56.084981333550715,2.1741955067256065,0.8809808266710181,B,2101,Correct
2,relearn,61,369,A,38.119281917309074,64.24782193809175,1.9059640958654538,1.0092024270492708,A,1024,Correct
2,relearn,61,370,A,16.094631140620727,46.36640941957091,0.8047315570310363,0.7283218560293027,A,570,Correct
2,relearn,61,371,B,37.94468823319057,21.089454555776662,1.8972344116595283,0.3312723775032188,A,967,Incorrect
2,relearn,61,372,B,71.54414612113978,50.63929794683639,3.5772073060569887,0.7954402320636293,B,669,Correct
2,relearn,61,373,B,68.46321921137321,51.270333609807736,3.4231609605686604,0.8053525170783492,B,919,Incorrect
2,relearn,61,374,A,15.51705140242166,38.32962799312334,0.775852570121083,0.6020803885901298,A,582,Correct
2,relearn,61,375,B,44.86856263535732,25.857897352684404,2.2434281317678657,0.40617490180236143,B,1716,Incorrect
2,relearn,61,376,B,40.83915996326734,16.216645081881374,2.041957998163367,0.25473046527555787,A,748,Incorrect
2,relearn,61,377,A,37.775246101716405,65.54639029186609,1.8887623050858202,1.0296002910512791,A,838,Correct
2,relearn,61,378,B,46.68752764753992,21.45979752225924,2.334376382376996,0.3370897112172703,B,1434,Correct
2,relearn,61,379,A,24.628338954434916,54.225497931394955,1.2314169477217458,0.8517721296925946,A,1712,Correct
2,relearn,61,380,A,51.85698317972947,74.6890111331062,2.5928491589864735,1.1732122433982635,A,928,Incorrect
2,relearn,61,381,B,56.636925236139575,45.09001162390557,2.831846261806979,0.7082722463397007,B,729,Correct
2,relearn,61,382,B,37.007263413083514,17.75094108682054,1.8503631706541757,0.27883113056330316,B,1404,Incorrect
2,relearn,61,383,B,78.49914498237031,66.46897918969835,3.924957249118515,1.0440922835698458,B,822,Incorrect
2,relearn,61,384,B,77.75739586852941,58.464077273339264,3.887869793426471,0.918351578304143,B,771,Correct
2,relearn,61,385,A,50.44933908495322,81.5361791908922,2.5224669542476614,1.2807673077394397,A,1419,Correct
2,relearn,61,386,B,64.01900645755724,40.68152972569479,3.200950322877862,0.6390239746151877,B,1051,Correct
2,relearn,61,387,A,37.21801591342781,60.742312034900024,1.8609007956713908,0.9541380062545041,A,1665,Correct
2,relearn,61,388,A,13.056710757488219,31.189181025582464,0.652835537874411,0.4899185099072602,A,603,Incorrect
2,relearn,61,389,A,27.076153712135635,54.183292329947875,1.3538076856067818,0.8511091656553622,A,1144,Correct
2,relearn,61,390,B,63.00934382203403,35.10116411846451,3.1504671911017015,0.5513677966350888,B,1220,Incorrect
2,relearn,61,391,A,59.760433211555394,68.82108937891641,2.9880216605777696,1.0810391440242517,B,1081,Correct
2,relearn,61,392,A,15.007413277335207,35.43191709828221,0.7503706638667603,0.5565632522928299,A,1413,Incorrect
2,relearn,61,393,B,60.004074706967,48.31715295000588,3.00020373534835,0.7589640637505644,A,1862,Incorrect
2,relearn,61,394,B,54.46249207063452,32.38788053668819,2.723124603531726,0.5087476377970174,B,1514,Incorrect
2,relearn,61,395,B,80.8111035407457,65.09885302935471,4.040555177037286,1.022570392170712,B,1476,Correct
2,relearn,61,396,B,44.60470916754244,22.464201267941757,2.230235458377122,0.35286684836064175,B,1624,Incorrect
2,relearn,61,397,A,56.76620492925632,67.87252569400346,2.8383102464628163,1.0661391405043286,A,1061,Correct
2,relearn,61,398,A,40.36469174887771,48.50353134327067,2.0182345874438856,0.7618916887059071,A,1103,Correct
2,relearn,61,399,B,62.30813279222039,40.59085234189534,3.1154066396110194,0.6375996176012323,B,740,Correct
2,relearn,61,400,A,43.097305701977575,60.36681710434017,2.1548652850988788,0.9482397456779688,A,1072,Correct
2,relearn,61,401,B,88.53443333011933,69.08934812647666,4.4267216665059665,1.085252942577234,B,695,Correct
2,relearn,61,402,A,33.25960268282186,52.986701082114,1.6629801341410928,0.8323131542876385,A,1053,Incorrect
2,relearn,61,403,B,89.25501485753341,65.24190749562928,4.46275074287667,1.024817486472269,B,680,Incorrect
2,relearn,61,404,B,39.218891013438935,27.91763442940256,1.9609445506719467,0.43852917614508286,B,1004,Incorrect
2,relearn,61,405,B,78.18464983398857,56.584155522558454,3.909232491699429,0.8888218364962597,B,628,Correct
2,relearn,61,406,B,41.30538996091802,21.813764057450438,2.065269498045901,0.3426498045501368,B,1892,Correct
2,relearn,61,407,A,46.606271036819344,58.070825326272214,2.3303135518409674,0.9121743911645643,A,752,Incorrect
2,relearn,61,408,B,45.76169627814199,31.842609666440907,2.2880848139070995,0.5001825429960904,B,708,Incorrect
2,relearn,61,409,A,12.419271521138153,35.37218587940325,0.6209635760569077,0.5556249965007293,A,1191,Correct
2,relearn,61,410,A,42.36053015337201,59.41143371570221,2.1180265076686005,0.9332326185024351,A,1927,Correct
2,relearn,61,411,B,57.42025275567738,35.050468326777754,2.871012637783869,0.5505714690014336,B,3743,Correct
2,relearn,61,412,A,58.81004706801531,72.99955873215735,2.9405023534007655,1.1466743871412108,A,797,Correct
2,relearn,61,413,B,36.09806466923813,16.520905890462153,1.8049032334619062,0.2595097828806212,A,3053,Incorrect
2,relearn,61,414,B,68.69824458025822,59.353618448348236,3.434912229012911,0.9323244584065122,A,621,Incorrect
2,relearn,61,415,B,61.66947603933791,51.17736371086168,3.0834738019668952,0.8038921493206795,B,1000,Correct
2,relearn,61,416,B,74.06452647043294,43.15467323791609,3.703226323521647,0.6778720220615263,B,945,Incorrect
2,relearn,61,417,A,62.852370308944515,83.48055107940564,3.1426185154472255,1.3113094299434411,A,917,Incorrect
2,relearn,61,418,A,49.40633425347773,56.765033346985774,2.4703167126738865,0.8916630587183506,A,1186,Incorrect
2,relearn,61,419,A,61.70079121308717,86.21061523652018,3.085039560654359,1.3541931774425406,A,822,Incorrect
2,relearn,61,420,A,22.878946001341927,48.233634397314724,1.1439473000670963,0.7576521573926994,A,1647,Incorrect
2,relearn,61,421,A,67.60813121498674,83.37735686896505,3.3804065607493374,1.3096884590763753,A,1133,Incorrect
2,relearn,61,422,A,44.47901795981837,73.29493853249727,2.223950897990919,1.1513142021950444,B,662,Incorrect
2,relearn,61,423,A,45.268444298781745,57.62336324300651,2.2634222149390872,0.9051456731968268,A,890,Correct
2,relearn,61,424,B,70.37261025494848,37.2485093796596,3.518630512747424,0.5850982171215455,B,974,Correct
2,relearn,61,425,A,54.05715752343888,79.2961689019403,2.7028578761719437,1.2455813084007552,A,1175,Incorrect
2,relearn,61,426,B,42.35550835830026,28.742906816051335,2.1177754179150132,0.45149252448061433,A,1098,Correct
2,relearn,61,427,A,42.83931792627877,74.77765764028936,2.1419658963139385,1.1746046994769288,A,2285,Incorrect
2,relearn,61,428,B,47.403860907880684,24.406002596234,2.3701930453940343,0.38336859229911074,A,1116,Correct
2,relearn,61,429,B,49.32751634198853,23.898679193048267,2.4663758170994265,0.3753995749168984,B,803,Incorrect
2,relearn,61,430,B,72.57925956970075,39.508647007650126,3.6289629784850375,0.62060037596253,B,947,Correct
2,relearn,61,431,A,49.42946372675277,62.27639310840367,2.4714731863376387,0.978235295407155,B,3331,Correct
2,relearn,61,432,A,67.70812933473387,82.41993913103178,3.3854064667366934,1.2946493764168365,B,2028,Incorrect
2,relearn,61,433,A,23.958945619998186,41.37461079623334,1.1979472809999094,0.649910866612918,B,1494,Correct
2,relearn,61,434,A,35.95701703826089,60.74334240018236,1.7978508519130443,0.9541541911945114,A,3659,Correct
2,relearn,61,435,B,60.69965318880334,42.47090469704546,3.0349826594401668,0.6671314109377513,B,1343,Correct
2,relearn,61,436,A,60.23168535609162,79.72363288787349,3.0115842678045808,1.252295896990165,A,2043,Correct
2,relearn,61,437,A,12.637115830357253,31.898229887044103,0.6318557915178626,0.5010562233782807,A,2995,Correct
2,relearn,61,438,A,61.11834767797538,71.33325013761261,3.055917383898769,1.1205000729450343,B,1381,Incorrect
2,relearn,61,439,B,76.84188887554188,59.27747755841023,3.842094443777094,0.931128440104177,B,767,Correct
2,relearn,61,440,B,61.10709552145408,33.963369214210395,3.055354776072704,0.5334953560726056,B,2220,Incorrect
2,relearn,61,441,A,15.754550599386107,43.38127689260798,0.7877275299693054,0.6814315039458093,A,770,Correct
2,relearn,61,442,B,75.5988914124659,64.15206141609605,3.779944570623295,1.0076982242872428,B,1063,Incorrect
2,relearn,61,443,B,78.07236347441028,48.006272741358174,3.9036181737205142,0.7540807688523938,B,742,Incorrect
2,relearn,61,444,B,42.53470229791884,24.171799328995437,2.126735114895942,0.37968973598009376,B,1630,Incorrect
2,relearn,61,445,B,63.3640960332949,43.020861081875545,3.168204801664745,0.6757701056296364,B,658,Incorrect
2,relearn,61,446,B,48.019571115822615,32.8121214162537,2.4009785557911307,0.5154115979499948,A,999,Incorrect
2,relearn,61,447,B,68.88418490375578,44.86971643363806,3.444209245187789,0.7048118575828727,B,856,Correct
2,relearn,61,448,B,81.69659998194862,56.04699582109116,4.0848299990974315,0.8803841516365891,B,1256,Correct
2,relearn,61,449,B,51.842903454028125,21.416296232597155,2.592145172701406,0.33640639455714993,A,621,Incorrect
2,relearn,61,450,B,55.15921385742605,24.949185343502695,2.7579606928713023,0.39190088694099107,B,991,Incorrect
2,relearn,61,451,B,65.59529860951776,42.89188539135395,3.2797649304758876,0.6737441602204648,B,823,Correct
2,relearn,61,452,B,79.39066520811093,59.934642155803225,3.9695332604055467,0.9414511574610227,B,1625,Correct
2,relearn,61,453,B,61.233451141363425,37.86650918108546,3.0616725570681713,0.5948057353019427,B,871,Correct
2,relearn,61,454,B,82.71650302120341,53.47414062036277,4.13582515106017,0.839969836649796,B,2343,Correct
2,relearn,61,455,B,74.08100690821826,44.09206517320621,3.7040503454109124,0.6925965401487351,B,883,Correct
2,relearn,61,456,A,61.58333330633364,86.45501102559751,3.0791666653166825,1.3580321375202087,A,676,Correct
2,relearn,61,457,B,83.43173374774975,62.41821504147486,4.171586687387487,0.9804630291224268,B,769,Incorrect
2,relearn,61,458,B,55.20721958415455,44.96219226488037,2.7603609792077277,0.7062644645432,B,856,Incorrect
2,relearn,61,459,A,59.109261811547036,81.55834763962532,2.955463090577352,1.2811155289178469,A,547,Correct
2,relearn,61,460,A,17.400780179288393,34.76247762140592,0.8700390089644197,0.5460477215799421,A,970,Correct
2,relearn,61,461,A,41.14261897876465,73.40527399108073,2.057130948938233,1.1530473475256258,A,849,Incorrect
2,relearn,61,462,A,48.87420121653667,62.821227384950184,2.4437100608268336,0.9867935322102672,B,697,Correct
2,relearn,61,463,B,64.73558149952272,45.97458175620051,3.236779074976136,0.7221670414857141,B,841,Incorrect
2,relearn,61,464,B,34.18923494164957,11.370764422068088,1.7094617470824787,0.17861154987034647,A,1082,Incorrect
2,relearn,61,465,A,37.78673673147917,63.253375804465904,1.8893368365739582,0.9935817037103222,B,835,Incorrect
2,relearn,61,466,A,29.04306948745017,54.32208925057562,1.4521534743725084,0.8532893825862873,A,674,Correct
2,relearn,61,467,B,44.5356130424523,32.04716362145961,2.226780652122615,0.5033956690078379,B,881,Incorrect
2,relearn,61,468,B,71.05088307204996,44.680921529668296,3.5525441536024975,0.7018462741661396,B,930,Incorrect
2,relearn,61,469,A,40.014417706362565,67.35115093377074,2.0007208853181284,1.0579494049217575,B,1088,Correct
2,relearn,61,470,A,52.22013085306645,61.678181119430434,2.6110065426533224,0.9688386034579167,B,529,Incorrect
2,relearn,61,471,B,69.77911463774288,60.368046777632486,3.4889557318871436,0.948259061340876,B,819,Correct
2,relearn,61,472,B,35.795930312751594,24.897947265484248,1.7897965156375795,0.391096041093557,A,913,Incorrect
2,relearn,61,473,A,23.48564758243409,46.72390597239931,1.1742823791217045,0.7339373987495497,B,701,Correct
2,relearn,61,474,A,36.50119408333836,54.00441202981699,1.825059704166918,0.8482993204715465,B,1786,Incorrect
2,relearn,61,475,A,28.646951908711657,50.48615609488205,1.4323475954355829,0.7930346854783451,B,1907,Incorrect
2,relearn,61,476,B,45.31575375411634,20.623140395493394,2.265787687705817,0.32394753180216473,B,1182,Correct
2,relearn,61,477,B,58.989521756358975,44.47006688749024,2.9494760878179487,0.6985341771919303,A,596,Correct
2,relearn,61,478,A,19.043885409418216,33.04666179193012,0.9521942704709108,0.5190957495559709,A,1125,Correct
2,relearn,61,479,A,60.406505390991555,72.58830264739365,3.020325269549578,1.140214391668022,A,674,Correct
2,relearn,61,480,B,73.4830434195004,43.38785516771034,3.6741521709750202,0.6815348352494838,B,761,Incorrect
2,relearn,61,481,B,30.723617949671112,13.760171630723935,1.5361808974835558,0.216144270536085,A,645,Incorrect
2,relearn,61,482,B,80.23871357207753,62.95198076714613,4.0119356786038765,0.9888474015349612,B,548,Correct
2,relearn,61,483,A,47.04371340651316,73.45302796678007,2.3521856703256585,1.1537974652218095,A,626,Incorrect
2,relearn,61,484,A,51.838143526078305,66.96674849099055,2.5919071763039154,1.0519112254704563,B,702,Incorrect
2,relearn,61,485,A,34.89359145882446,46.12529731155519,1.744679572941223,0.724534475893134,B,754,Incorrect
2,relearn,61,486,A,40.24076618201791,69.00672017455054,2.0120383091008955,1.0839550257434727,B,527,Incorrect
2,relearn,61,487,B,88.65900732569234,67.00383839033,4.432950366284618,1.0524938322468924,B,743,Correct
2,relearn,61,488,A,32.975417570944934,45.5945389495466,1.6487708785472466,0.7161973430385464,A,6598,Incorrect
2,relearn,61,489,B,63.0982240825091,30.548899756933896,3.154911204125455,0.4798609952581727,B,906,Incorrect
2,relearn,61,490,B,64.98097129222151,44.935880489244425,3.2490485646110754,0.705851160137996,B,517,Correct
2,relearn,61,491,B,41.78452631858882,33.36694005496865,2.089226315929441,0.5241266687473026,A,664,Correct
2,relearn,61,492,A,47.97784187386999,66.18964417092509,2.398892093693499,1.0397044993555038,A,549,Incorrect
2,relearn,61,493,A,35.02735389640513,58.53547915386982,1.7513676948202568,0.9194731564207795,B,470,Incorrect
2,relearn,61,494,B,36.67081353307336,19.441788972405117,1.833540676653668,0.30539090704175487,A,1041,Correct
2,relearn,61,495,A,48.40847194508607,76.30169471523055,2.4204235972543033,1.1985442178690975,A,586,Correct
2,relearn,61,496,A,35.40249491162547,56.4200489770129,1.7701247455812734,0.8862440569068002,A,1632,Incorrect
2,relearn,61,497,A,35.32206575152679,62.68932540032197,1.7661032875763396,0.9847216206807576,A,680,Incorrect
2,relearn,61,498,B,60.16202068371161,31.02278874989952,3.0081010341855805,0.487304826152762,B,780,Correct
2,relearn,61,499,B,77.72738074914508,49.58864503297206,3.8863690374572544,0.778936614685285,B,480,Correct
2,relearn,61,500,B,52.06484791657983,21.595450202586676,2.6032423958289916,0.33922053853705253,B,2820,Correct
2,relearn,61,501,B,66.41363891205438,43.71810162343411,3.320681945602719,0.6867223344453629,B,1150,Correct
2,relearn,61,502,B,71.96059435723714,45.11248461990827,3.598029717861857,0.7086252513354319,B,1797,Correct
2,relearn,61,503,B,31.699523821479858,17.721621253437988,1.5849761910739928,0.2783705756975076,B,1509,Correct
2,relearn,61,504,B,69.59279891314505,53.22843992472896,3.479639945657252,0.8361103791478707,B,1398,Incorrect
2,relearn,61,505,A,34.06220680921697,63.52158797322015,1.7031103404608485,0.9977947706051309,A,1062,Correct
2,relearn,61,506,A,23.151386833868035,45.290084932931805,1.1575693416934016,0.7114149905287815,A,912,Correct
2,relearn,61,507,A,20.623935113150427,45.82470528947775,1.0311967556575212,0.7198127874517032,A,517,Correct
2,relearn,61,508,B,56.64097021819979,27.03927622443602,2.8320485109099893,0.4247319577253668,B,1547,Incorrect
2,relearn,61,509,A,47.33227200014329,60.67534330973449,2.3666136000071645,0.9530860639795025,A,559,Correct
2,relearn,61,510,B,42.475036822751576,21.925012653263703,2.1237518411375786,0.34439729340678255,B,1487,Correct
2,relearn,61,511,B,47.31776859677735,29.943271493435766,2.365888429838867,0.4703478087411123,B,947,Incorrect
2,relearn,61,512,B,56.867366749076986,33.50876563904948,2.843368337453849,0.5263544598124997,B,647,Correct
2,relearn,61,513,A,48.610360107033245,60.04434833537623,2.4305180053516624,0.9431744181000223,A,793,Incorrect
2,relearn,61,514,A,68.34822545021821,89.35297963113759,3.4174112725109103,1.4035533219277012,A,1188,Incorrect
2,relearn,61,515,B,58.8793425477649,30.069992864629306,2.9439671273882446,0.4723383433850846,B,645,Correct
2,relearn,61,516,B,72.42365927370076,55.038901193945314,3.621182963685038,0.8645490382627655,B,748,Correct
2,relearn,61,517,A,33.78382204549462,64.9542722704778,1.6891911022747308,1.0202993229210213,A,1760,Correct
2,relearn,61,518,B,84.11092711671054,61.11763460712197,4.205546355835526,0.9600335594325985,B,1286,Incorrect
2,relearn,61,519,B,82.06164426199791,52.58336331453678,4.103082213099896,0.8259775394499589,B,486,Incorrect
2,relearn,61,520,A,18.590184913742757,47.04688756629978,0.9295092456871379,0.7390107817627618,B,1954,Incorrect
2,relearn,61,521,A,47.322654263687866,62.05772299830519,2.366132713184393,0.9748004333499296,A,674,Correct
2,relearn,61,522,A,17.60038473964183,40.18884036859292,0.8800192369820914,0.6312848282913222,A,1250,Correct
2,relearn,61,523,A,60.65815326460622,80.82395009529299,3.032907663230311,1.2695796392674024,A,1872,Correct
2,relearn,61,524,A,40.0247683699166,69.99350078278692,2.0012384184958303,1.0994553392911741,A,1360,Correct
2,relearn,61,525,A,39.22158910621064,65.49788311400478,1.961079455310532,1.028838342083202,A,879,Correct
2,relearn,61,526,A,22.388536815213282,40.657069375896654,1.1194268407606642,0.6386397523390374,B,935,Incorrect
2,relearn,61,527,B,78.2924141531341,47.87364539342943,3.9146207076567054,0.7519974633428036,B,1680,Correct
2,relearn,61,528,B,66.7443941455343,35.6858828921183,3.337219707276715,0.5605525376537226,B,782,Correct
2,relearn,61,529,B,76.46149653379885,50.731239814326955,3.8230748266899424,0.7968844515409578,B,1828,Correct
2,relearn,61,530,B,65.85911781134364,37.965570099427566,3.292955890567182,0.5963617805685498,B,1231,Incorrect
2,relearn,61,531,A,17.11543197307116,42.18521883341865,0.8557715986535581,0.6626438678857292,B,1118,Incorrect
2,relearn,61,532,A,57.133751147107375,77.94684319364751,2.856687557355369,1.224386149738393,A,816,Incorrect
2,relearn,61,533,A,69.20534825557678,86.63162303578733,3.460267412778839,1.3608063524889489,A,865,Correct
2,relearn,61,534,B,57.35981091800113,49.8916834788254,2.8679905459000565,0.7836967314615257,A,1003,Correct
2,relearn,61,535,B,48.40651017119629,30.30545254830973,2.4203255085598143,0.4760369354474196,B,1447,Incorrect
2,relearn,61,536,B,49.617104719071975,38.49099801531368,2.4808552359535985,0.6046151829712438,B,860,Correct
2,relearn,61,537,A,64.03904823114868,83.22264440542955,3.2019524115574343,1.307258241382066,B,1607,Correct
2,relearn,61,538,A,32.943340599339905,48.803696302654146,1.6471670299669952,0.7666066688622282,A,718,Correct
2,relearn,61,539,B,57.20145489737592,45.00727989463042,2.8600727448687957,0.7069726993751526,A,1221,Correct
2,relearn,61,540,A,63.00559412580547,74.76194322211074,3.1502797062902737,1.1743578579734018,B,1464,Correct
2,relearn,61,541,B,73.22221272162014,50.24505950136148,3.6611106360810073,0.7892475490432962,B,1093,Correct
2,relearn,61,542,B,58.18464794957892,25.633479218550605,2.9092323974789456,0.4026497499947261,B,1035,Correct
2,relearn,61,543,B,79.47658757670958,49.477544763504795,3.973829378835479,0.7771914557334341,A,860,Correct
2,relearn,61,544,B,55.76131076149748,47.27320564042755,2.7880655380748736,0.7425657777580338,A,591,Incorrect
2,relearn,61,545,A,41.8611008470285,55.4111868027126,2.093055042351425,0.870396886930468,A,720,Incorrect
2,relearn,61,546,A,37.987873190978284,63.97450692137119,1.8993936595489143,1.0049092048060453,B,730,Incorrect
2,relearn,61,547,A,52.88680561755426,64.01729204506576,2.6443402808777132,1.0055812719574546,A,560,Correct
2,relearn,61,548,B,47.44025465998158,36.876379504347746,2.372012732999079,0.5792528147092406,B,1302,Incorrect
2,relearn,61,549,A,39.21015510175846,48.82628524980298,1.960507755087923,0.7669614952143035,B,874,Incorrect
2,relearn,61,550,B,42.54276381040654,23.98492091271573,2.127138190520327,0.3767542566815997,B,1427,Incorrect
2,relearn,61,551,A,40.97402974898272,51.85613146201347,2.048701487449136,0.8145542082232404,A,1067,Correct
2,relearn,61,552,B,75.35261419544362,49.62330999188461,3.767630709772181,0.7794811305865682,B,1083,Incorrect
2,relearn,61,553,B,58.16386294741884,41.19350109072161,2.908193147370942,0.6470660020112707,B,649,Incorrect
2,relearn,61,554,B,62.84515967772671,53.29494472098929,3.142257983886336,0.8371550340446704,A,391,Incorrect
2,relearn,61,555,A,35.32602046837704,63.91086089324587,1.7663010234188519,1.0039094553341021,B,758,Correct
2,relearn,61,556,A,54.06803418902368,81.34038566315326,2.703401709451184,1.277691790197614,B,886,Incorrect
2,relearn,61,557,B,50.425654624427104,30.02193722786452,2.5212827312213553,0.47158348720796545,B,760,Incorrect
2,relearn,61,558,A,67.35836452702301,89.5053352954985,3.3679182263511507,1.4059465191071465,A,1306,Incorrect
2,relearn,61,559,B,83.66821250454213,58.10949655561558,4.183410625227106,0.9127818374146165,B,851,Correct
2,relearn,61,560,B,76.30590344151068,50.48404724580754,3.815295172075534,0.7930015597545449,B,1891,Incorrect
2,relearn,61,561,B,84.22877919671086,56.94959729433396,4.211438959835544,0.8945621824238837,B,751,Correct
2,relearn,61,562,B,68.61814968498457,54.708822633191105,3.4309074842492286,0.8593641763549008,B,1765,Correct
2,relearn,61,563,B,30.912318420064278,15.612356025949655,1.5456159210032139,0.24523831498175888,A,1117,Incorrect
2,relearn,61,564,A,33.400452859536564,52.852103355318896,1.6700226429768281,0.8301988981391915,A,773,Incorrect
2,relearn,61,565,B,71.20860423674532,39.321966361018426,3.5604302118372657,0.6176680032224022,B,636,Correct
2,relearn,61,566,A,55.41288742551696,80.66408719675857,2.770644371275848,1.2670685187293163,A,1234,Correct
2,relearn,61,567,A,49.6328426512744,70.5666513453834,2.4816421325637203,1.108458367275444,A,513,Incorrect
2,relearn,61,568,A,54.834064682397724,70.91411352603363,2.7417032341198864,1.1139162904460993,A,1096,Correct
2,relearn,61,569,B,56.116200511431906,43.070134608197215,2.805810025571595,0.6765440923711793,B,2067,Incorrect
2,relearn,61,570,B,31.832393677810078,10.47931946024124,1.591619683890504,0.16460876515457215,B,1266,Correct
2,relearn,61,571,A,32.306072589935106,43.99081331235568,1.615303629496755,0.6910060796376835,B,2142,Correct
2,relearn,61,572,A,27.217687257735534,57.82127060443403,1.3608843628867766,0.9082543947605869,B,944,Incorrect
2,relearn,61,573,A,47.4051195606658,77.92033735445203,2.37025597803329,1.2239697969899241,A,933,Incorrect
2,relearn,61,574,A,49.17406460521172,70.88414204640682,2.458703230260586,1.1134454995450351,B,933,Correct
2,relearn,61,575,B,46.89053324971199,30.983109824390304,2.3445266624856,0.48668155104835165,A,646,Incorrect
2,relearn,61,576,B,44.58801003858686,28.61434457444264,2.2294005019293426,0.44947307351177984,B,1253,Correct
2,relearn,61,577,A,32.992834820599015,61.17418222850061,1.6496417410299506,0.9609218073921041,A,834,Incorrect
2,relearn,61,578,A,25.69352804210323,50.508754687363435,1.2846764021051615,0.7933896633389499,B,765,Correct
2,relearn,61,579,A,45.54062029671598,57.883957626580575,2.277031014835799,0.9092390802018421,B,1014,Incorrect
2,relearn,61,580,A,25.247964256959783,37.16171097236666,1.2623982128479891,0.5837347909280716,A,565,Incorrect
2,relearn,61,581,B,42.97299462574958,14.120375604355807,2.148649731287479,0.22180234132286367,B,1144,Incorrect
2,relearn,61,582,A,18.09769008783516,42.06560169107109,0.904884504391758,0.6607649262075165,B,643,Incorrect
2,relearn,61,583,A,21.834718733538544,51.63597620145488,1.0917359366769273,0.8110960174771402,A,560,Incorrect
2,relearn,61,584,B,84.4802540537353,59.32078398826242,4.224012702686765,0.9318086959135613,A,1783,Incorrect
2,relearn,61,585,B,61.97310826693852,32.800365917536425,3.098655413346926,0.5152269430079474,B,703,Correct
2,relearn,61,586,A,41.49728640647335,70.03759148468698,2.0748643203236674,1.1001479144170785,A,2375,Correct
2,relearn,61,587,A,28.854636788381363,54.132314445489435,1.442731839419068,0.8503084069188114,A,1022,Correct
2,relearn,61,588,B,47.79040175349266,21.378278548045014,2.389520087674633,0.3358092141646724,B,820,Incorrect
2,relearn,61,589,A,31.63237594933327,60.41927658891777,1.5816187974666636,0.9490637773347691,A,1669,Incorrect
2,relearn,61,590,A,68.77352881721181,86.03939812993755,3.4386764408605903,1.351503705421496,A,1770,Incorrect
2,relearn,61,591,A,39.88851025304386,55.17948700015079,1.9944255126521933,0.8667573549426362,A,1219,Incorrect
2,relearn,61,592,B,65.00528218014628,55.010396164620886,3.2502641090073143,0.8641012823091855,B,622,Incorrect
2,relearn,61,593,B,59.444095370701795,49.56732676015336,2.9722047685350894,0.7786017480389128,B,900,Correct
2,relearn,61,594,A,50.367006501314854,63.921604108964296,2.5183503250657426,1.0040782093719867,B,2015,Incorrect
2,relearn,61,595,A,63.36915009256914,78.40225664457655,3.1684575046284573,1.231539767497316,B,1298,Incorrect
2,relearn,61,596,B,66.79785947950027,47.57908647887396,3.339892973975014,0.7473705427327194,B,587,Correct
2,relearn,61,597,A,30.875215879299077,39.40057770555702,1.5437607939649538,0.6189028273348586,B,684,Incorrect
2,relearn,61,598,A,46.050821788577636,59.27538218866008,2.302541089428882,0.931095526113109,A,1307,Incorrect
2,relearn,61,599,A,15.875654876211758,33.53412906636305,0.7937827438105879,0.5267528675970905,B,1043,Incorrect
2,relearn,61,600,B,66.42498179380416,57.052318288260146,3.321249089690208,0.8961757200233234,A,1472,Incorrect
2,relearn,61,601,B,78.6473778886401,53.99859509502083,3.9323688944320048,0.8482079482734365,B,2446,Correct
2,relearn,61,602,B,61.8144987976523,52.220722436354436,3.090724939882615,0.820281189856014,B,1867,Correct
2,relearn,61,603,A,14.126172146537133,39.31752454326315,0.7063086073268566,0.6175982313122594,A,1054,Correct
2,relearn,61,604,B,60.18233567200925,46.41099312817805,3.009116783600463,0.7290221752864526,B,1516,Correct
2,relearn,61,605,A,63.50417626310778,88.76368334534195,3.175208813155389,1.3942966775164847,A,768,Correct
2,relearn,61,606,B,72.29400706241407,42.04000896035503,3.614700353120703,0.6603629165335022,B,1199,Correct
2,relearn,61,607,B,55.831794701590454,42.2951540513168,2.7915897350795227,0.6643707262503272,B,1600,Correct
2,relearn,61,608,A,53.42499642706378,81.20770984976586,2.6712498213531894,1.2756077233943797,A,1219,Correct
2,relearn,61,609,A,54.512371792060364,80.34087802125275,2.7256185896030183,1.2619915608726064,A,758,Correct
2,relearn,61,610,B,49.36788192138826,25.035244002833824,2.468394096069413,0.3932526932006533,B,2112,Correct
2,relearn,61,611,A,16.935732957360106,35.408646185742754,0.8467866478680053,0.5561977136534484,A,1861,Correct
2,relearn,61,612,A,50.63009410683374,72.285710601402,2.531504705341687,1.1354612869244118,A,898,Correct
2,relearn,61,613,A,49.62287237150668,59.46798584915241,2.481143618575334,0.9341209373373949,B,1107,Incorrect
2,relearn,61,614,B,70.49252008876272,57.836486950348345,3.5246260044381357,0.9084934125632814,B,1164,Correct
2,relearn,61,615,A,47.405294107169794,60.18977064380678,2.3702647053584895,0.9454587063791897,A,1802,Correct
2,relearn,61,616,A,49.23051811761336,60.54601786373971,2.461525905880668,0.9510546246242053,A,1639,Correct
2,relearn,61,617,A,42.06345170616457,51.702158279103884,2.103172585308229,0.8121356031218474,A,2478,Correct
2,relearn,61,618,A,26.680264455319026,40.37002981007895,1.3340132227659511,0.6341309453827249,A,1459,Correct
2,relearn,61,619,B,60.11065049305694,29.634722429872053,3.005532524652847,0.46550113138429355,B,1142,Correct
2,relearn,61,620,A,25.137303503821204,52.5511384045826,1.2568651751910602,0.8254713517480858,A,1418,Correct
2,relearn,61,621,B,68.28190317152225,42.32652310076513,3.414095158576112,0.6648634701268119,B,826,Correct
2,relearn,61,622,A,27.331913882253808,51.599982972645506,1.3665956941126904,0.8105306371611077,A,1100,Correct
2,relearn,61,623,A,55.22120368745599,65.83717210106286,2.7610601843727993,1.03416788102913,A,1583,Correct
2,relearn,61,624,B,59.57100413096267,46.42372156834132,2.9785502065481335,0.7292221131569957,A,1480,Incorrect
2,relearn,61,625,A,21.585613165212173,47.69214283996783,1.0792806582606087,0.74914642789999,A,1189,Correct
2,relearn,61,626,B,46.43125841467207,38.54508612185172,2.3215629207336037,0.6054647969619763,B,762,Correct
2,relearn,61,627,B,44.065368018772645,16.006259979024183,2.203268400938632,0.2514257438077534,B,1014,Correct
2,relearn,61,628,B,83.20567876955816,68.57086493938289,4.1602839384779084,1.077108627719316,B,914,Correct
2,relearn,61,629,B,76.27151882887242,43.81316088902834,3.813575941443621,0.6882155218975954,B,1217,Correct
2,relearn,61,630,A,28.09042644254071,50.35500710889231,1.4045213221270356,0.7909746020237894,A,804,Correct
2,relearn,61,631,A,23.609577634525223,37.46492243208243,1.1804788817262613,0.5884976253997081,B,1278,Incorrect
2,relearn,61,632,A,42.47119959242066,62.11580183136887,2.123559979621033,0.9757127335263394,A,2380,Correct
2,relearn,61,633,A,28.648279934506977,54.43881112052002,1.4324139967253489,0.8551228454319402,A,949,Correct
2,relearn,61,634,B,86.69120261529258,58.6366258357458,4.334560130764629,0.9210619647843624,B,1194,Correct
2,relearn,61,635,A,17.59729183841299,38.824571810339464,0.8798645919206494,0.6098549478906591,A,696,Correct
2,relearn,61,636,A,58.65179257501032,77.60968927402848,2.9325896287505158,1.219090148353372,A,929,Correct
2,relearn,61,637,B,65.12168842122526,45.18074724468072,3.2560844210612627,0.7096975181379311,B,1006,Correct
2,relearn,61,638,A,21.290792550720347,46.1189544375796,1.0645396275360173,0.7244348422617124,A,1585,Correct
2,relearn,61,639,B,63.87088295764779,48.76785771487536,3.1935441478823896,0.7660437176418237,B,719,Correct
2,relearn,61,640,B,36.00641165364887,24.8519682874733,1.8003205826824433,0.39037380499586316,B,3259,Correct
2,relearn,61,641,B,64.96267234112709,48.59697490498776,3.248133617056354,0.7633594967409854,B,1040,Correct
2,relearn,61,642,B,51.61735346492213,35.878034306447205,2.5808676732461064,0.5635708450118855,B,1490,Correct
2,relearn,61,643,B,44.39297566921951,19.44420800897149,2.2196487834609755,0.3054289051792832,B,1459,Correct
2,relearn,61,644,B,56.740258873041114,36.351664459352484,2.8370129436520557,0.5710106100563147,B,1542,Correct
2,relearn,61,645,B,60.040410022808075,36.00931228387641,3.0020205011404038,0.5656329546592342,B,1027,Correct
2,relearn,61,646,A,53.833482640793385,65.14539843051077,2.6916741320396693,1.0233015256223632,A,988,Correct
2,relearn,61,647,B,61.83536374241289,49.934128976201336,3.0917681871206444,0.7843634637751966,A,1109,Incorrect
2,relearn,61,648,A,32.4301369495539,65.6710205351176,1.621506847477695,1.0315579783343496,A,866,Correct
2,relearn,61,649,A,20.05039010550729,42.380417902758126,1.0025195052753646,0.6657100476968513,A,927,Correct
2,relearn,61,650,B,69.90089153225907,60.63648514546199,3.495044576612953,0.95247568136245,B,1212,Correct
2,relearn,61,651,B,77.99275806079875,61.572134351110044,3.8996379030399373,0.9671728247164552,B,875,Correct
2,relearn,61,652,A,19.91660851712763,32.69256623371237,0.9958304258563815,0.5135336295341426,A,976,Correct
2,relearn,61,653,A,17.55881735988724,35.01087156606633,0.877940867994362,0.5499494845386488,A,807,Correct
2,relearn,61,654,A,38.683534127097914,71.56637662962038,1.9341767063548958,1.124162015318278,A,1352,Correct
2,relearn,61,655,A,33.85280360558503,50.51578948314712,1.6926401802792514,0.7935001656527177,A,1860,Correct
2,relearn,61,656,A,19.44424609178665,34.72265533621537,0.9722123045893325,0.5454221945869231,A,1024,Correct
2,relearn,61,657,B,48.75102859208218,37.44249757347369,2.4375514296041088,0.588145376544393,B,2526,Correct
2,relearn,61,658,B,56.43815959768617,32.452456285609394,2.8219079798843087,0.5097619912890718,B,900,Correct
2,relearn,61,659,A,52.24199596711985,67.35394899752475,2.6120997983559926,1.0579933568044269,A,1264,Correct
2,relearn,61,660,B,75.02026878863316,51.974257303208816,3.751013439431658,0.8164097245977323,B,1072,Correct
2,relearn,61,661,B,66.97833768241672,41.886204215967155,3.348916884120836,0.6579469572582212,B,793,Correct
2,relearn,61,662,B,48.434484563728255,36.85207658929052,2.4217242281864126,0.5788710654122174,B,1110,Correct
2,relearn,61,663,A,50.25897512468487,61.965726643819984,2.5129487562342434,0.9733553579928909,A,1247,Correct
2,relearn,61,664,B,43.009860223699874,30.61350170573563,2.150493011184994,0.4808757602969882,B,775,Correct
2,relearn,61,665,A,12.226419211657582,31.085990388269007,0.6113209605828791,0.48829759516674415,A,864,Correct
2,relearn,61,666,B,58.19047406400722,25.963912229251974,2.909523703200361,0.407840179589341,B,878,Correct
2,relearn,61,667,A,27.53009993636706,51.653303626165304,1.376504996818353,0.8113681960280197,A,664,Correct
2,relearn,61,668,B,55.684157885957326,27.365185050695594,2.7842078942978663,0.4298513215969525,B,754,Correct
2,relearn,61,669,A,21.569591486661153,42.87673922078453,1.0784795743330577,0.6735062447295102,A,673,Correct
2,relearn,61,670,B,39.933677928836744,31.477263030752816,1.9966838964418372,0.4944436914626331,B,964,Correct
2,relearn,61,671,A,18.645816629586,42.11245933270752,0.9322908314793,0.6615009643211643,A,783,Correct
2,relearn,61,672,A,31.590808640500804,55.738180974226346,1.5795404320250401,0.8755332993654393,A,853,Correct
2,relearn,61,673,B,46.02691771477614,20.999439934571825,2.301345885738807,0.3298584311397548,B,833,Correct
2,relearn,61,674,A,62.56245648043695,72.87552510106468,3.1281228240218475,1.144726071420017,A,931,Correct
2,relearn,61,675,A,23.757707626912026,37.975222791987434,1.1878853813456012,0.5965134047087169,A,709,Correct
2,relearn,61,676,A,60.46269157926416,83.58630103627483,3.0231345789632083,1.3129705463815298,A,814,Correct
2,relearn,61,677,B,68.1641050399624,37.37051690908859,3.40820525199812,0.5870147069122295,B,583,Correct
2,relearn,61,678,A,45.212070975927745,64.33473417149942,2.2606035487963876,1.0105676412191742,A,1215,Correct
2,relearn,61,679,A,14.852151383126053,44.21958479118024,0.7426075691563027,0.6945996136238138,A,757,Correct
2,relearn,61,680,B,52.21489856169024,29.202245045638456,2.6107449280845123,0.4587077925185336,B,820,Correct
2,relearn,61,681,B,70.52085696992151,50.15877174891588,3.5260428484960755,0.787892144197407,B,1049,Correct
2,relearn,61,682,B,62.823051857184566,45.89272689982684,3.1411525928592283,0.7208812684084934,B,728,Correct
2,relearn,61,683,A,23.336834284870722,37.02557064502014,1.166841714243536,0.5815963036668259,A,679,Correct
2,relearn,61,684,B,41.188009702066054,29.405931417908132,2.0594004851033025,0.4619072905723274,A,1173,Incorrect
2,relearn,61,685,A,47.7180694847112,58.66865523030558,2.38590347423556,0.9215650813376021,A,703,Correct
2,relearn,61,686,B,64.80322141829843,54.45340143491782,3.240161070914922,0.8553520295545686,B,651,Correct
2,relearn,61,687,A,48.722697164221046,56.53005086702749,2.4361348582110525,0.8879719625545545,B,739,Incorrect
2,relearn,61,688,B,34.40524586864625,19.331117992352596,1.7202622934323124,0.3036524913522619,B,900,Correct
2,relearn,61,689,B,44.895943720292856,34.7795870337624,2.2447971860146425,0.5463164756007738,B,844,Correct
2,relearn,61,690,B,44.883165113418116,27.498240786737117,2.2441582556709054,0.43194135621128277,B,1505,Correct
2,relearn,61,691,B,76.32513594533714,61.63397499491218,3.816256797266857,0.9681442152777654,A,833,Incorrect
2,relearn,61,692,A,65.28818591021016,80.60671111533547,3.2644092955105077,1.2661672573498632,A,631,Correct
2,relearn,61,693,A,49.692277662065,67.4684843028713,2.48461388310325,1.0597924731736938,A,1179,Correct
2,relearn,61,694,B,56.73721156110808,40.135926442218924,2.836860578055404,0.6304536582794764,B,1183,Correct
2,relearn,61,695,A,23.986003272725238,50.91395111651228,1.199300163636262,0.7997544739643243,A,674,Correct
2,relearn,61,696,A,12.525496489630846,36.49300547115302,0.6262748244815424,0.5732307894779323,A,615,Correct
2,relearn,61,697,A,43.93546730691672,69.91053310605773,2.196773365345836,1.098152086072685,B,1788,Incorrect
2,relearn,61,698,B,76.6988036660292,52.500159310707744,3.8349401833014607,0.8246705740140661,B,617,Correct
2,relearn,61,699,B,48.99349113089671,33.2584154949781,2.4496745565448355,0.5224219689453007,A,1239,Incorrect
2,relearn,61,700,B,31.914737193397382,12.758165462690922,1.5957368596698691,0.20040479445436413,B,2425,Correct
2,relearn,61,701,B,45.36615735726664,35.56716222398393,2.268307867863332,0.5586876777595216,B,1726,Correct
2,relearn,61,702,A,24.23228381700801,53.53098067144541,1.2116141908504006,0.8408626780843507,A,775,Correct
2,relearn,61,703,B,69.680183438212,42.02855592470817,3.4840091719106,0.6601830126702548,B,1029,Correct
2,relearn,61,704,B,53.15630478327449,22.294714943080745,2.6578152391637246,0.3502045633953053,B,1092,Correct
2,relearn,61,705,A,25.002936420231798,39.75280087652758,1.25014682101159,0.6244355359665847,A,665,Correct
2,relearn,61,706,B,59.4471398380623,33.42525437699095,2.9723569919031148,0.5250426679756242,B,973,Correct
2,relearn,61,707,B,50.43787910927438,35.00259600918993,2.5218939554637188,0.5498194923952124,B,1732,Correct
2,relearn,61,708,B,66.70832925030699,56.33017634858143,3.335416462515349,0.8848323409606048,B,1248,Correct
2,relearn,61,709,B,43.39740807472918,32.69011228173772,2.169870403736459,0.5134950829466635,B,1150,Correct
2,relearn,61,710,A,13.789778625714277,42.282380026056266,0.6894889312857139,0.6641700723307509,A,842,Correct
2,relearn,61,711,B,77.46329345588163,55.67106339743245,3.8731646727940814,0.874479018934527,B,1471,Correct
2,relearn,61,712,A,51.553404680642686,78.78018593753248,2.5776702340321345,1.2374762669489496,A,640,Correct
2,relearn,61,713,B,34.018171174693464,19.80948436610775,1.7009085587346733,0.31116665277982986,B,1238,Correct
2,relearn,61,714,B,70.76865769767001,54.76557880305697,3.5384328848835,0.8602557001863834,B,1292,Correct
2,relearn,61,715,A,46.42556979160004,73.8847437201658,2.321278489580002,1.1605788404181874,A,798,Correct
2,relearn,61,716,B,51.78016893182521,33.80231804851598,2.5890084465912606,0.5309655702776174,B,750,Correct
2,relearn,61,717,B,86.0865249396775,64.98780516379365,4.304326246983875,1.020826056377495,B,2503,Correct
2,relearn,61,718,B,62.91230479205879,52.618406224309986,3.145615239602939,0.8265279921894785,B,1245,Correct
2,relearn,61,719,A,27.719410508387483,56.89355293162892,1.3859705254193742,0.8936818396331372,A,849,Correct
2,relearn,61,720,A,41.01838798090697,55.08831421225406,2.0509193990453487,0.8653252161393179,B,1493,Incorrect
2,relearn,61,721,A,42.22090052963653,50.9990065554742,2.111045026481827,0.8010905216752772,A,2080,Correct
2,relearn,61,722,A,32.42171018269624,48.44685667458063,1.621085509134812,0.7610014450919007,A,984,Correct
2,relearn,61,723,A,64.56802384667822,80.09416205452465,3.228401192333911,1.258116155529625,A,1931,Correct
2,relearn,61,724,A,45.58114027058892,55.848176286726016,2.279057013529446,0.8772611016938308,A,1174,Correct
2,relearn,61,725,A,29.865598918322384,62.01657042568251,1.493279945916119,0.9741540102507911,A,754,Correct
2,relearn,61,726,B,68.84283888512148,58.77558066462927,3.4421419442560737,0.9232446621323679,B,2841,Correct
2,relearn,61,727,B,44.853842896013674,24.470913261004725,2.242692144800684,0.3843882066370275,B,792,Correct
2,relearn,61,728,A,14.71640572891296,43.63366235440859,0.735820286445648,0.6853959655091377,B,2180,Incorrect
2,relearn,61,729,A,58.15020299859539,76.83598808297386,2.9075101499297693,1.2069368784639176,A,1334,Correct
2,relearn,61,730,B,45.640526551606364,33.07544376489233,2.282026327580318,0.5195478557300403,B,1101,Correct
2,relearn,61,731,B,43.42422147457927,21.439008154724746,2.1712110737289634,0.3367631525956747,B,889,Correct
2,relearn,61,732,A,49.709958470583615,76.44386480118646,2.4854979235291808,1.200777420357094,A,716,Correct
2,relearn,61,733,A,31.017292035883983,49.55271793162853,1.5508646017941994,0.778372273097057,A,1358,Correct
2,relearn,61,734,A,27.24466911388316,39.34567108001248,1.3622334556941578,0.618040356077638,A,620,Correct
2,relearn,61,735,A,40.88849560945861,49.16851816795558,2.0444247804729305,0.7723372773217275,A,991,Correct
2,relearn,61,736,B,68.17714774326396,45.510293553215455,3.4088573871631977,0.7148740194474829,B,643,Correct
2,relearn,61,737,B,82.58231833183444,65.79213534784583,4.129115916591722,1.0334604453638891,B,814,Correct
2,relearn,61,738,A,44.25655047184179,51.57377212341914,2.2128275235920896,0.810118918104238,A,1543,Correct
2,relearn,61,739,B,73.78768742234536,40.86223458468973,3.689384371117268,0.6418624799026201,B,787,Correct
2,relearn,61,740,A,67.83153062761019,84.27084376064663,3.3915765313805095,1.3237233183513033,A,750,Correct
2,relearn,61,741,A,30.400516138095973,39.9117663608386,1.5200258069047987,0.6269325599550137,A,944,Correct
2,relearn,61,742,B,42.06319852433535,20.444337743438485,2.1031599262167675,0.32113890631147435,A,1143,Incorrect
2,relearn,61,743,B,47.98164852325466,31.674695909434853,2.399082426162733,0.497544959868856,B,824,Correct
2,relearn,61,744,B,44.59357795015413,18.4177064915655,2.229678897507706,0.28930465704937613,B,558,Correct
2,relearn,61,745,A,38.60742179602356,59.334351950955714,1.930371089801178,0.9320218209731684,A,1007,Correct
2,relearn,61,746,B,45.09197116780055,31.359104562425088,2.2545985583900277,0.4925876625823441,A,1119,Incorrect
2,relearn,61,747,B,79.2082740370242,52.33423041577653,3.9604137018512096,0.8220641690273952,B,540,Correct
2,relearn,61,748,B,73.53116877821753,45.07374484357479,3.6765584389108765,0.7080167283517769,B,769,Correct
2,relearn,61,749,A,16.76108359923902,45.379440413908924,0.8380541799619509,0.71281858314176,A,860,Correct
2,relearn,61,750,B,30.80504349144569,14.107544609482499,1.5402521745722846,0.2216007925267025,B,2403,Correct
2,relearn,61,751,B,78.67469741821637,58.37420595215814,3.933734870910819,0.9169398828921879,B,872,Correct
2,relearn,61,752,A,13.987940992665553,39.505753188363386,0.6993970496332778,0.6205549199554699,A,781,Correct
2,relearn,61,753,B,56.135857697911014,38.47163919835597,2.806792884895551,0.6043110953855613,B,967,Correct
2,relearn,61,754,A,62.52883298072231,81.90045123520811,3.1264416490361158,1.2864892796310943,A,744,Correct
2,relearn,61,755,B,87.75536570463605,63.43728873799199,4.387768285231803,0.9964706013146508,B,711,Correct
2,relearn,61,756,A,54.90871461539925,74.11087264393458,2.745435730769963,1.1641308652465683,A,873,Correct
2,relearn,61,757,B,44.67789801295997,19.895205561761014,2.2338949006479987,0.312513158172436,A,1032,Incorrect
2,relearn,61,758,A,27.12924572883734,54.23625390044213,1.356462286441867,0.8519410840592987,A,1047,Correct
2,relearn,61,759,B,62.308973766347876,53.84004540318942,3.115448688317394,0.845717455538004,B,1003,Correct
2,relearn,61,760,B,75.05179642036181,45.65107884886407,3.752589821018091,0.7170854697001987,B,856,Correct
2,relearn,61,761,A,52.81224579294143,62.575033345033056,2.6406122896470716,0.982926325274461,B,2024,Incorrect
2,relearn,61,762,B,45.57241995197221,32.38239429556327,2.2786209975986105,0.508661460122948,B,1683,Correct
2,relearn,61,763,B,59.75518673352822,46.55206295993571,2.987759336676411,0.7312380950219179,B,1293,Correct
2,relearn,61,764,A,65.57383542097398,86.73924852503131,3.278691771048699,1.3624969297206884,A,925,Correct
2,relearn,61,765,B,47.83017183770838,40.26775262880335,2.391508591885419,0.6325243791760984,B,855,Correct
2,relearn,61,766,B,33.1516866179804,17.65312015791837,1.6575843308990201,0.2772945630052712,B,1035,Correct
2,relearn,61,767,B,85.55545850683188,56.76330230178928,4.277772925341594,0.8916358675239889,B,1230,Correct
2,relearn,61,768,B,42.5135015930881,15.374954862003435,2.125675079654405,0.24150922621872328,A,1036,Incorrect
2,relearn,61,769,A,59.95389711373102,87.28956475067946,2.997694855686551,1.3711412767789257,A,1450,Correct
2,relearn,61,770,A,37.75429109278384,53.62293761583993,1.8877145546391918,0.8423071343891326,B,2140,Incorrect
2,relearn,61,771,B,76.22808240228628,59.51277394532448,3.811404120114314,0.9348244671069073,B,721,Correct
2,relearn,61,772,A,22.82420456391902,35.87661666915979,1.141210228195951,0.5635485768174475,A,798,Correct
2,relearn,61,773,B,69.26758435943069,60.105775234075224,3.463379217971534,0.9441393095684502,B,945,Correct
2,relearn,61,774,B,74.56503731128245,41.77491027765231,3.728251865564123,0.6561987561632263,B,742,Correct
2,relearn,61,775,A,34.805459736311725,43.31918146035884,1.7402729868155862,0.6804561111769326,B,1856,Incorrect
2,relearn,61,776,B,49.83746652644452,28.30402165356918,2.491873326322226,0.44459853246949677,B,1026,Correct
2,relearn,61,777,B,41.64450914919544,18.05126801045129,2.082225457459772,0.28354865484807107,B,1417,Correct
2,relearn,61,778,B,85.01651668800665,67.06651377831653,4.250825834400332,1.0534783349391894,B,755,Correct
2,relearn,61,779,A,22.265583203131186,37.78735018167928,1.1132791601565593,0.5935623086469428,A,1352,Correct
2,relearn,61,780,B,53.70318542937943,28.100953744069294,2.685159271468972,0.44140874920617335,B,1334,Correct
2,relearn,61,781,B,58.594758981816334,41.54906827171794,2.929737949090817,0.6526512382296493,B,991,Correct
2,relearn,61,782,B,88.13020507075665,66.9340923258571,4.406510253537832,1.0513982636280679,B,1177,Correct
2,relearn,61,783,A,31.774777641552376,59.59408931602169,1.5887388820776187,0.9361017659629386,A,1012,Correct
2,relearn,61,784,B,38.68847234204749,16.22352482596353,1.9344236171023743,0.25483853204289325,B,1600,Correct
2,relearn,61,785,B,50.655702467732006,25.41027099474803,2.5327851233866,0.399143603414131,B,1230,Correct
2,relearn,61,786,B,78.61921589816917,66.56544990509252,3.9309607949084584,1.0456076420236904,B,810,Correct
2,relearn,61,787,A,55.16914138329395,80.08175996581782,2.7584570691646975,1.2579213439757724,A,649,Correct
2,relearn,61,788,A,35.69492953721006,65.13894105967923,1.7847464768605028,1.023200093478534,A,1843,Correct
2,relearn,61,789,B,50.65002205867442,38.30857860399757,2.5325011029337214,0.6017497455589296,B,716,Correct
2,relearn,61,790,B,51.963944723205216,32.91597802441934,2.5981972361602605,0.5170429737361943,B,770,Correct
2,relearn,61,791,A,55.15526674856484,80.5217171853048,2.757763337428242,1.264832175818943,A,1070,Correct
2,relearn,61,792,B,58.46120719082666,26.018135764812854,2.923060359541333,0.4086919208941896,B,823,Correct
2,relearn,61,793,B,81.12258925737916,59.573266586982115,4.056129462868958,0.9357746833000465,B,897,Correct
2,relearn,61,794,A,19.687674593185204,33.16399916100595,0.9843837296592602,0.5209388806393717,A,859,Correct
2,relearn,61,795,B,60.73451567676801,36.42568946348503,3.0367257838384005,0.5721733921021385,B,1097,Correct
2,relearn,61,796,A,56.431769986877796,77.45602853784033,2.8215884993438896,1.2166764511536026,B,1691,Incorrect
2,relearn,61,797,B,89.63460874327322,65.61557998138052,4.4817304371636615,1.0306871201526926,B,561,Correct
2,relearn,61,798,B,37.71396440375263,15.618803870252197,1.8856982201876316,0.24533959748322068,A,1486,Incorrect
2,relearn,61,799,A,64.34033520387995,87.39157496090073,3.217016760193997,1.372743649414037,A,836,Correct
2,relearn,61,800,B,61.928450312281,36.70187468577619,3.09642251561405,0.5765116994290383,B,648,Correct
2,relearn,61,801,A,66.94561083803715,86.79479208507459,3.347280541901858,1.3633694059216193,A,790,Correct
2,relearn,61,802,B,66.6575391838757,49.04021118077515,3.332876959193785,0.7703218358800762,B,751,Correct
2,relearn,61,803,B,74.85541370360947,53.88977013525817,3.742770685180474,0.8464985298028483,B,643,Correct
2,relearn,61,804,B,61.01143203826667,28.682784284065832,3.0505716019133335,0.4505481219566099,B,551,Correct
2,relearn,61,805,B,67.62577211647353,47.795514735980134,3.381288605823676,0.7507701898454896,B,854,Correct
2,relearn,61,806,B,76.48334654706888,65.16906378216628,3.824167327353444,1.0236732600968912,B,906,Correct
2,relearn,61,807,B,79.22522908459696,47.63723321841411,3.961261454229848,0.7482839095815671,B,596,Correct
2,relearn,61,808,A,68.11416320650201,82.62924436885064,3.4057081603251005,1.2979371354042848,A,582,Correct
2,relearn,61,809,A,26.82921328635625,58.52704628249287,1.3414606643178126,0.9193406931869471,A,870,Correct
2,relearn,61,810,B,32.573824846200836,13.350753505639094,1.6286912423100417,0.20971314566601976,B,1060,Correct
2,relearn,61,811,A,45.77823709939786,58.78146247746285,2.2889118549698932,0.9233370534323069,A,940,Correct
2,relearn,61,812,B,45.9397236348246,16.337856277034636,2.29698618174123,0.2566344462766895,A,778,Incorrect
2,relearn,61,813,B,55.85826102314368,43.86629586203658,2.792913051157184,0.6890501641018524,A,1492,Incorrect
2,relearn,61,814,B,47.99546299323802,25.8541838385067,2.3997731496619013,0.40611657005806306,B,951,Correct
2,relearn,61,815,B,40.38030619030227,23.31127182768934,2.0190153095151135,0.3661726015985177,B,572,Correct
2,relearn,61,816,B,41.36036648802901,15.632128886170598,2.0680183244014505,0.24554890634381177,A,1881,Incorrect
2,relearn,61,817,A,18.704704285866686,32.870338333457056,0.9352352142933342,0.5163260671469982,A,595,Correct
2,relearn,61,818,A,53.56917404679051,67.23678647131739,2.6784587023395257,1.0561529721463816,A,740,Correct
2,relearn,61,819,B,60.92668666887596,43.09281203519544,3.046334333443798,0.6769003085614791,B,681,Correct
2,relearn,61,820,B,53.18979150668526,30.157862930979228,2.659489575334263,0.47371860315966147,B,712,Correct
2,relearn,61,821,B,68.0233675444356,57.14418221156649,3.40116837722178,0.897618715156269,B,900,Correct
2,relearn,61,822,A,46.255025704839795,72.64823648156062,2.3127512852419896,1.141155830133624,A,865,Correct
2,relearn,61,823,B,70.30327216191748,43.05344300379241,3.5151636080958735,0.6762819012623056,B,654,Correct
2,relearn,61,824,B,55.21373205973369,45.49758569047019,2.7606866029866843,0.7146744048062661,B,632,Correct
2,relearn,61,825,A,68.18941546747607,85.3543720826404,3.4094707733738034,1.340743341432964,A,492,Correct
2,relearn,61,826,A,41.394461120516645,57.46174981012177,2.069723056025832,0.9026070553294662,B,783,Incorrect
2,relearn,61,827,B,64.45858133967675,48.318854923283745,3.2229290669838377,0.758990798284296,B,865,Correct
2,relearn,61,828,B,50.36432177772804,30.478840752745043,2.518216088886402,0.47876051099378514,B,639,Correct
2,relearn,61,829,A,48.254208042027386,61.86042918752082,2.4127104021013692,0.9717013494171353,B,1089,Incorrect
2,relearn,61,830,A,27.220667912656907,52.07463764836936,1.3610333956328453,0.8179864953723381,A,948,Correct
2,relearn,61,831,B,39.83128929372557,15.951715469168796,1.9915644646862785,0.2505689606504768,B,734,Correct
2,relearn,61,832,B,72.5426167429629,54.595271358534085,3.627130837148145,0.8575805171035598,B,717,Correct
2,relearn,61,833,B,43.37946153099633,31.61511410326664,2.1689730765498165,0.49660905104612774,B,1968,Correct
2,relearn,61,834,A,61.9430826374296,73.13197123576931,3.0971541318714797,1.1487543178841648,B,1445,Incorrect
2,relearn,61,835,B,50.17549922462619,35.38976582729806,2.50877496123131,0.5559011416765135,B,567,Correct
2,relearn,61,836,A,37.065498922823586,57.87174423576908,1.8532749461411795,0.9090472327075978,A,1622,Correct
2,relearn,61,837,B,88.31126836104373,64.86687728589288,4.415563418052186,1.0189265257133584,B,833,Correct
2,relearn,61,838,A,48.61775556651236,61.0592633087978,2.430887778325618,0.9591166652226201,A,1285,Correct
2,relearn,61,839,A,32.53558417272459,62.59483707088733,1.6267792086362294,0.9832374014727484,A,1100,Correct
2,relearn,61,840,B,55.59075062310133,42.60821843492568,2.779537531155066,0.6692883300885585,B,866,Correct
2,relearn,61,841,B,60.16949810252647,32.301309703896464,3.0084749051263238,0.5073877863354491,B,666,Correct
2,relearn,61,842,A,41.398252462598286,48.468672745800845,2.0699126231299143,0.7613441311372788,A,700,Correct
2,relearn,61,843,A,21.69498991443885,50.96567295854198,1.0847494957219426,0.8005669187590772,A,690,Correct
2,relearn,61,844,A,55.97298088066176,71.3846827369448,2.798649044033088,1.1213079743261194,B,1877,Incorrect
2,relearn,61,845,A,41.48300311006321,58.124620311539786,2.0741501555031605,0.9130194008171474,A,1257,Correct
2,relearn,61,846,B,37.23915486519509,21.453892493971463,1.8619577432597543,0.3369969552498298,B,1245,Correct
2,relearn,61,847,B,41.552273551247715,17.661376566893658,2.0776136775623857,0.27742425437418017,B,557,Correct
2,relearn,61,848,A,21.09535627381867,47.77336349645898,1.0547678136909335,0.7504222389887515,A,1029,Correct
2,relearn,61,849,A,54.80317540770126,78.78896282923685,2.740158770385063,1.2376141340414486,A,995,Correct
2,relearn,61,850,A,19.38865260410257,46.59957913100182,0.9694326302051286,0.7319844772916577,A,755,Correct
2,relearn,61,851,B,76.94417888764991,45.849565897866725,3.8472089443824955,0.7202032969750961,B,627,Correct
2,relearn,61,852,B,41.97000800497575,15.681669900930988,2.0985004002487875,0.24632709478392484,B,1725,Correct
2,relearn,61,853,A,17.184094094849588,34.479869769644054,0.8592047047424793,0.5416085278252328,A,633,Correct
2,relearn,61,854,A,23.71487732397996,37.965102558862725,1.185743866198998,0.596354436458531,A,884,Correct
2,relearn,61,855,A,65.7642674966555,86.07605331445028,3.2882133748327753,1.3520794837134018,A,1007,Correct
2,relearn,61,856,A,53.05351900429683,79.05947345713159,2.652675950214842,1.2418633050480092,A,1457,Correct
2,relearn,61,857,B,56.75856854909646,29.08221165048772,2.837928427454823,0.4568223123565786,B,662,Correct
2,relearn,61,858,A,30.9422873726168,58.076881383291905,1.54711436863084,0.9122695194857784,A,976,Correct
2,relearn,61,859,A,15.279134544187464,38.343205690923384,0.7639567272093731,0.6022936665684362,A,734,Correct
2,relearn,61,860,B,42.84507483591868,20.60300594868464,2.142253741795934,0.32363126065127235,A,1345,Incorrect
2,relearn,61,861,A,43.95728018219509,68.12353581330906,2.1978640091097548,1.0700819982382646,A,1162,Correct
2,relearn,61,862,A,44.090722508602916,66.92294388678353,2.204536125430146,1.0512231443566054,B,1047,Incorrect
2,relearn,61,863,B,51.03434506663183,29.96057849898138,2.5517172533315913,0.470619666548501,B,506,Correct
2,relearn,61,864,A,30.928881967977176,60.35049607616768,1.546444098398859,0.94798337556694,A,612,Correct
2,relearn,61,865,A,56.582022454141324,81.72325345339613,2.8291011227070664,1.2837058633832297,A,1061,Correct
2,relearn,61,866,A,51.572215945174584,68.11433248364622,2.578610797258729,1.069937432673978,B,636,Incorrect
2,relearn,61,867,B,43.292811259911545,22.81817136872826,2.1646405629955776,0.3584269977017483,B,622,Correct
2,relearn,61,868,B,77.0782906685331,58.33538702765739,3.853914533426655,0.9163301166520289,A,482,Incorrect
2,relearn,61,869,B,30.640878371439854,15.535726571638605,1.5320439185719925,0.24403462232819792,B,1445,Correct
2,relearn,61,870,A,18.420296173016013,45.014716740733746,0.9210148086508007,0.707089517080573,A,921,Correct
2,relearn,61,871,B,82.88065555965245,61.76153687705808,4.1440327779826225,0.9701479526369037,B,986,Correct
2,relearn,61,872,A,56.69901470758633,74.04674563234255,2.8349507353793166,1.1631235605039973,B,1434,Incorrect
2,relearn,61,873,A,58.444711934672185,83.66429891991633,2.922235596733609,1.3141957342727482,A,942,Correct
2,relearn,61,874,A,46.30672828995875,59.78531236955504,2.3153364144979376,0.9391054906638254,B,2123,Incorrect
2,relearn,61,875,A,47.973579609904576,58.314746762994325,2.3986789804952284,0.9160059001328609,A,807,Correct
2,relearn,61,876,A,35.7289855251313,47.462821039837465,1.786449276256565,0.7455442494870022,B,1165,Incorrect
2,relearn,61,877,B,57.85522804676642,38.98169720997604,2.892761402338321,0.6123230678966124,B,737,Correct
2,relearn,61,878,B,63.17417840495091,51.72288301379922,3.1587089202475456,0.8124611464931797,B,776,Correct
2,relearn,61,879,A,41.55763315911744,48.936841182515394,2.077881657955872,0.7686981037444041,B,1703,Incorrect
2,relearn,61,880,A,58.18365724564174,79.3442746189493,2.9091828622820866,1.246336951236511,A,1187,Correct
2,relearn,61,881,A,64.07658157147455,83.15023670270556,3.2038290785737273,1.306120863847361,A,1780,Correct
2,relearn,61,882,B,64.86112229462057,39.26140935163778,3.243056114731029,0.6167167759434342,B,738,Correct
2,relearn,61,883,A,37.16381418383572,58.91060125518436,1.8581907091917857,0.9253655606092241,A,5132,Correct
2,relearn,61,884,B,32.1885387139099,16.900890984672266,1.609426935695495,0.2654785747828418,B,1216,Correct
2,relearn,61,885,B,40.05051480135488,26.62304593787372,2.0025257400677443,0.41819382767303825,A,988,Incorrect
2,relearn,61,886,A,37.80886846481727,57.15237591071511,1.8904434232408636,0.8977474214815242,B,3258,Incorrect
2,relearn,61,887,B,82.18601412486845,62.37234758988019,4.109300706243422,0.9797425448775834,B,785,Correct
2,relearn,61,888,B,82.0922663288856,60.46129231384356,4.10461331644428,0.9497237587985796,B,742,Correct
2,relearn,61,889,A,59.82046212179938,85.14518795836194,2.991023106089969,1.33745748489256,A,922,Correct
2,relearn,61,890,B,53.000642094824286,37.59894587955139,2.6500321047412143,0.5906028607895943,B,673,Correct
2,relearn,61,891,A,43.03789778769365,56.06849039898165,2.1518948893846828,0.880721787676553,B,1208,Incorrect
2,relearn,61,892,B,63.26479938436157,47.37564994778472,3.1632399692180786,0.7441749691750109,B,1208,Correct
2,relearn,61,893,B,64.54924197818654,40.57021820442917,3.2274620989093274,0.6372754973278477,B,868,Correct
2,relearn,61,894,B,73.70756864725215,41.44854127710885,3.6853784323626075,0.6510721638908924,B,1066,Correct
2,relearn,61,895,A,42.39084611235619,60.89228737126753,2.1195423056178098,0.9564938133292631,A,937,Correct
2,relearn,61,896,B,78.85527573824373,63.206740267148234,3.9427637869121868,0.9928491544031552,B,743,Correct
2,relearn,61,897,A,16.179150759975137,41.03000257008525,0.8089575379987568,0.6444977732547508,A,552,Correct
2,relearn,61,898,A,61.69516297759879,76.73986697446324,3.08475814887994,1.2054270116221584,A,985,Correct
