experiment,condition,subject,trial,cat,x,y,xt,yt,resp,rt,fb
2,relearn,77,0,A,54.17385232432791,68.68455167930192,2.708692616216396,1.078894414854017,B,1243,Incorrect
2,relearn,77,1,A,49.78046695502945,63.43944147000256,2.4890233477514725,0.9965044163499986,A,1675,Correct
2,relearn,77,2,B,68.85079763326198,37.515098747444256,3.442539881663099,0.5892857931183326,B,789,Correct
2,relearn,77,3,A,30.0923535858859,47.0383707479822,1.504617679294295,0.7388769998934694,B,689,Incorrect
2,relearn,77,4,A,19.731314718452655,39.522833973433904,0.9865657359226327,0.6208232242999452,A,998,Correct
2,relearn,77,5,A,32.1763297029647,64.04091054067312,1.608816485148235,1.005952270418899,B,695,Incorrect
2,relearn,77,6,A,60.52665370191529,84.74446282172765,3.0263326850957646,1.3311629091657646,A,1019,Correct
2,relearn,77,7,B,60.379712325800845,37.68968973714001,3.0189856162900424,0.5920282619713882,B,653,Correct
2,relearn,77,8,A,24.03627268085379,35.10550479814216,1.2018136340426895,0.5514359798720232,B,628,Incorrect
2,relearn,77,9,A,56.46281080943049,79.77093079747439,2.823140540471525,1.2530388508168266,A,950,Correct
2,relearn,77,10,A,34.287082144520895,48.198470082519734,1.7143541072260446,0.7570997976275572,B,773,Incorrect
2,relearn,77,11,B,46.01611573359811,38.127709945077385,2.3008057866799057,0.5989086673082881,A,755,Incorrect
2,relearn,77,12,A,27.54692467673879,46.98883695188743,1.3773462338369395,0.7380989248438906,A,912,Correct
2,relearn,77,13,A,50.05942058868435,71.92911334847005,2.5029710294342173,1.1298598703739053,A,892,Correct
2,relearn,77,14,B,66.27002268844487,51.41060944341801,3.3135011344222436,0.8075559647200804,A,811,Incorrect
2,relearn,77,15,B,54.24173626749029,44.371636175501905,2.712086813374514,0.6969880311835794,A,999,Incorrect
2,relearn,77,16,B,73.20908986853733,62.31359867686423,3.6604544934268666,0.9788197191098967,B,695,Correct
2,relearn,77,17,B,33.484099210014435,19.262371541135963,1.6742049605007219,0.30257262462174916,A,609,Incorrect
2,relearn,77,18,A,15.665923660235077,45.4146047377029,0.7832961830117539,0.7133709430482582,A,706,Correct
2,relearn,77,19,B,64.5377204349145,55.279331093664915,3.226886021745725,0.8683257022960775,B,672,Correct
2,relearn,77,20,A,29.255554531726247,44.881705299003684,1.4627777265863124,0.7050001782396603,A,514,Correct
2,relearn,77,21,B,53.514414768093424,45.46149152514226,2.6757207384046713,0.7141074389831077,B,629,Correct
2,relearn,77,22,B,66.06253906635752,40.06197844198213,3.303126953317876,0.6292920858080187,B,750,Correct
2,relearn,77,23,B,52.299908383084215,27.19488959593234,2.614995419154211,0.4271763268488328,B,735,Correct
2,relearn,77,24,B,41.348120830877534,32.042431174809124,2.0674060415438764,0.5033213319096845,A,484,Incorrect
2,relearn,77,25,A,63.04173717360922,77.69499081407295,3.152086858680461,1.2204300618110904,A,1111,Correct
2,relearn,77,26,B,63.66410849871685,32.47717823937282,3.1832054249358426,0.5101503228306996,B,805,Correct
2,relearn,77,27,A,32.89019739216016,51.8530616236878,1.644509869608008,0.8145059873155821,A,617,Correct
2,relearn,77,28,B,51.75905834262841,35.50565378028974,2.58795291713142,0.5577215053853046,B,588,Correct
2,relearn,77,29,A,22.60425158240351,44.680881037779436,1.1302125791201754,0.7018456381210368,A,732,Correct
2,relearn,77,30,A,49.77718384126744,62.99055348794403,2.4888591920633716,0.9894533004163993,B,620,Incorrect
2,relearn,77,31,B,34.234630069767476,14.972235305126858,1.711731503488374,0.23518332221202137,A,869,Incorrect
2,relearn,77,32,A,69.68192168232295,87.49160063841268,3.4840960841161475,1.3743148490822465,A,901,Correct
2,relearn,77,33,B,63.82264612365168,37.91634981058361,3.191132306182584,0.5955886300793511,B,611,Correct
2,relearn,77,34,B,76.05999152568143,47.898425225597386,3.8029995762840714,0.7523867040362838,B,833,Correct
2,relearn,77,35,B,46.19209579669459,29.4912949147755,2.3096047898347294,0.46324817724554374,B,858,Correct
2,relearn,77,36,B,73.80354965759523,54.62902728804956,3.6901774828797613,0.8581107540044642,B,1530,Correct
2,relearn,77,37,A,69.1807607769631,86.74629005441484,3.459038038848155,1.3626075378055948,A,925,Correct
2,relearn,77,38,A,49.73264448907726,79.67362310876011,2.486632224453863,1.2515103452168137,B,1021,Incorrect
2,relearn,77,39,B,83.803441480693,63.83748283538621,4.19017207403465,1.0027568354965692,A,919,Incorrect
2,relearn,77,40,A,32.95768601588143,42.502935807098126,1.6478843007940713,0.6676345544378901,B,595,Incorrect
2,relearn,77,41,B,74.46783303018209,51.70974265358227,3.7233916515091043,0.8122547381975642,B,357,Correct
2,relearn,77,42,B,75.70757288294263,44.855927686365526,3.7853786441471313,0.7045952644472048,B,678,Correct
2,relearn,77,43,A,21.41241618379377,48.29741958867952,1.0706208091896885,0.7586540928356967,A,558,Correct
2,relearn,77,44,B,64.84947612906112,38.56759114304059,3.2424738064530563,0.6058183050081554,B,590,Correct
2,relearn,77,45,A,41.28928428475641,69.90250089559817,2.0644642142378204,1.0980259164058255,A,965,Correct
2,relearn,77,46,A,32.06122240242289,49.72398339994926,1.6030611201211444,0.781062504782507,A,565,Correct
2,relearn,77,47,A,54.02883753237919,63.35427178779217,2.7014418766189596,0.9951665741102949,B,696,Incorrect
2,relearn,77,48,A,10.378079491311496,34.16667494110212,0.5189039745655748,0.5366888749627846,A,647,Correct
2,relearn,77,49,B,40.56960334250407,15.878248616895366,2.0284801671252035,0.24941494603355388,B,651,Correct
2,relearn,77,50,B,69.03353119493384,37.84249636249404,3.4516765597466925,0.5944285428295487,B,551,Correct
2,relearn,77,51,B,42.13342644155339,13.429263778692885,2.1066713220776694,0.21094638215130537,A,576,Incorrect
2,relearn,77,52,B,65.79860487645539,47.25141688317784,3.289930243822769,0.7422235207595012,B,406,Correct
2,relearn,77,53,B,61.83613609377426,28.813966159565467,3.091806804688713,0.4526087220383789,B,452,Correct
2,relearn,77,54,B,67.95066811556327,40.14288633319475,3.397533405778164,0.6305629839912738,B,434,Correct
2,relearn,77,55,A,38.342555848672404,59.42735971224512,1.9171277924336203,0.9334827834711366,B,889,Incorrect
2,relearn,77,56,B,48.63360499973616,25.675834703966206,2.4316802499868078,0.4033150684038305,B,1487,Correct
2,relearn,77,57,A,55.09673712192739,72.5683022369379,2.7548368560963694,1.1399002259552393,B,564,Incorrect
2,relearn,77,58,B,76.34848406609989,60.27022874990516,3.8174242033049945,0.9467225393543918,B,935,Correct
2,relearn,77,59,A,37.71823649689497,48.28582520262019,1.8859118248447484,0.7584719686453625,B,499,Incorrect
2,relearn,77,60,B,44.4461820004139,32.22968083297976,2.222309100020695,0.5062626426621649,A,436,Incorrect
2,relearn,77,61,A,31.65085370888738,53.67245157767246,1.582542685444369,0.8430848978828485,A,629,Correct
2,relearn,77,62,B,61.673105109735125,32.267198640509704,3.0836552554867565,0.5068519710047392,B,553,Correct
2,relearn,77,63,B,69.40378743571878,39.094299191472594,3.470189371785939,0.6140918156858585,B,475,Correct
2,relearn,77,64,A,44.19958474195394,57.78265972848018,2.209979237097697,0.9076478965393606,A,613,Correct
2,relearn,77,65,B,57.8717824702694,38.1053738113513,2.89358912351347,0.5985578121401707,B,680,Correct
2,relearn,77,66,B,42.855562324807295,24.630611649692213,2.1427781162403647,0.3868967430604811,A,613,Incorrect
2,relearn,77,67,B,88.17199682659295,63.52039834488395,4.408599841329647,0.9977760839669233,B,613,Correct
2,relearn,77,68,B,33.505640120800926,21.717785232019395,1.6752820060400464,0.34114217268576513,A,2017,Incorrect
2,relearn,77,69,B,59.331093145695284,31.281480247395507,2.9665546572847643,0.49136834269315977,B,516,Correct
2,relearn,77,70,A,57.064006327453086,80.89482884433752,2.853200316372654,1.2706930000538723,B,1259,Incorrect
2,relearn,77,71,B,73.30602737249892,58.847619818239224,3.665301368624946,0.9243762505111273,B,515,Correct
2,relearn,77,72,B,82.05149988338177,62.73774187649721,4.102574994169088,0.9854821449100817,B,613,Correct
2,relearn,77,73,B,64.05938752921166,46.347462842981905,3.202969376460583,0.7280242439001894,B,938,Correct
2,relearn,77,74,A,24.354940729775592,55.62233253482283,1.2177470364887797,0.8737135563346397,A,783,Correct
2,relearn,77,75,B,39.47572043552199,22.788530059220076,1.9737860217760996,0.35796139310077985,B,1226,Correct
2,relearn,77,76,A,27.65137236008723,41.05345599668539,1.3825686180043615,0.6448661788182933,B,472,Incorrect
2,relearn,77,77,B,87.87259968470477,62.85611942232626,4.393629984235238,0.9873416150517145,B,967,Correct
2,relearn,77,78,A,37.094629799726526,44.53891983672523,1.8547314899863263,0.6996157167894035,A,736,Correct
2,relearn,77,79,A,53.905651722803675,65.65759222310878,2.695282586140184,1.0313470469025643,A,578,Correct
2,relearn,77,80,B,49.1989721215262,32.58267239786281,2.45994860607631,0.5118074211972437,B,785,Correct
2,relearn,77,81,B,74.40111705856434,63.32047471005417,3.7200558529282173,0.9946356908546222,B,667,Correct
2,relearn,77,82,B,48.94137244906619,27.61068117923945,2.4470686224533096,0.43370756576654307,A,902,Incorrect
2,relearn,77,83,B,69.6111510073903,39.76385835163222,3.480557550369515,0.6246092263793647,B,479,Correct
2,relearn,77,84,A,15.602768924968572,42.69198340382449,0.7801384462484287,0.6706041071431618,A,487,Correct
2,relearn,77,85,A,52.05866202671084,61.9611230055261,2.602933101335542,0.9732830442116716,B,516,Incorrect
2,relearn,77,86,A,44.33872070642113,73.10269698714389,2.2169360353210563,1.1482944790620595,B,425,Incorrect
2,relearn,77,87,A,20.263824627360947,33.66609746904974,1.0131912313680473,0.5288258224190229,B,750,Incorrect
2,relearn,77,88,B,71.65823552566741,57.32453993993579,3.58291177628337,0.9004517677285847,B,349,Correct
2,relearn,77,89,A,19.666544634213533,50.015286452863364,0.9833272317106767,0.7856382824375233,A,705,Correct
2,relearn,77,90,A,60.73540888191653,75.35039103542267,3.0367704440958265,1.1836011746100104,B,518,Incorrect
2,relearn,77,91,B,33.25612133267127,12.225423894534398,1.6628060666335636,0.19203650947045192,B,812,Correct
2,relearn,77,92,B,46.790523826412496,26.73134290400493,2.3395261913206244,0.4198949524390577,B,517,Correct
2,relearn,77,93,A,29.303718435414694,49.95884476225835,1.4651859217707346,0.7847516984347187,A,803,Correct
2,relearn,77,94,B,79.63034341453677,56.976447586351114,3.981517170726838,0.8949839458246228,B,528,Correct
2,relearn,77,95,B,67.95048432422776,42.89616501636266,3.397524216211388,0.6738113844129021,B,626,Correct
2,relearn,77,96,A,20.180028191490983,40.744146225988054,1.009001409574549,0.6400075523017619,A,744,Correct
2,relearn,77,97,A,35.21920375303337,59.48165262658812,1.7609601876516683,0.9343356145753464,A,863,Correct
2,relearn,77,98,A,57.997482730250525,79.05351733455481,2.8998741365125262,1.2417697464933537,B,364,Incorrect
2,relearn,77,99,A,52.592255099066364,70.18183665863968,2.6296127549533184,1.1024137123111064,A,1144,Correct
2,relearn,77,100,A,17.763785643736515,34.635779878442435,0.8881892821868257,0.5440575580873396,A,820,Correct
2,relearn,77,101,B,39.04943002947213,23.851858139423072,1.9524715014736063,0.3746641115263871,B,570,Correct
2,relearn,77,102,A,46.46682080405815,61.8665607302379,2.3233410402029078,0.9717976634649108,A,794,Correct
2,relearn,77,103,A,26.62532829528418,45.414715951763455,1.331266414764209,0.7133726899946363,A,939,Correct
2,relearn,77,104,A,51.89365883806949,63.733856749888105,2.594682941903475,1.0011290807519637,A,627,Correct
2,relearn,77,105,B,69.43915370742383,55.58971366721119,3.4719576853711915,0.8732011803603541,A,498,Incorrect
2,relearn,77,106,A,64.74878818533995,86.91073746286298,3.2374394092669974,1.365190671657008,A,905,Correct
2,relearn,77,107,A,36.4199250973945,58.725669064893,1.820996254869725,0.9224606525570661,A,907,Correct
2,relearn,77,108,A,48.69920053701969,75.3853401540575,2.434960026850985,1.1841501540817736,A,650,Correct
2,relearn,77,109,B,75.15892420268673,55.68330687414084,3.757946210134337,0.8746713390169344,107,528,Incorrect
2,relearn,77,110,A,54.61330674965121,84.5403750465452,2.7306653374825607,1.3279571058897612,A,906,Correct
2,relearn,77,111,B,70.7550682430849,49.385686701011934,3.5377534121542453,0.7757485526619312,B,503,Correct
2,relearn,77,112,B,38.420972732187906,14.394335398630645,1.9210486366093955,0.2261056917082277,A,835,Incorrect
2,relearn,77,113,B,35.11039049958747,22.903841699219935,1.7555195249793736,0.3597727041062646,A,1074,Incorrect
2,relearn,77,114,B,47.77796862217289,38.1230349770976,2.3888984311086445,0.5988352330829827,B,803,Correct
2,relearn,77,115,A,21.019366008605562,44.36568340522292,1.0509683004302781,0.6968945252866946,A,727,Correct
2,relearn,77,116,B,70.41786140927461,42.372791173623156,3.5208930704637305,0.6655902473157448,B,550,Correct
2,relearn,77,117,B,34.400561465804714,11.813267965177584,1.7200280732902358,0.1855623792714477,107,792,Incorrect
2,relearn,77,118,B,58.85750474340728,43.9396412560227,2.942875237170364,0.6902022708564595,B,563,Correct
2,relearn,77,119,A,49.97401854128766,58.342382711557846,2.498700927064383,0.9164400045977714,100,612,Incorrect
2,relearn,77,120,B,84.50767759063515,65.71899671357866,4.2253838795317575,1.0323115863833523,107,1684,Incorrect
2,relearn,77,121,A,53.73947379860687,79.76753326332644,2.686973689930344,1.252985482475229,B,596,Incorrect
2,relearn,77,122,A,54.037746481321506,69.39971820055132,2.7018873240660755,1.0901282243002695,B,909,Incorrect
2,relearn,77,123,B,48.921548993752495,29.601566230607943,2.4460774496876247,0.46498031502414805,B,505,Correct
2,relearn,77,124,A,17.039523069584966,36.38981258899522,0.8519761534792483,0.5716098394754838,A,654,Correct
2,relearn,77,125,A,59.718953670536045,78.39791515475639,2.985947683526802,1.2314715715346929,A,527,Correct
2,relearn,77,126,B,65.28799451684768,46.76061533573165,3.2643997258423836,0.7345140280803639,B,837,Correct
2,relearn,77,127,A,28.360296435277714,42.53335793229541,1.4180148217638857,0.6681124240630221,A,682,Correct
2,relearn,77,128,B,49.53813282533361,20.554417452543632,2.4769066412666807,0.3228680343386445,B,603,Correct
2,relearn,77,129,A,34.6358866765015,60.915516110551835,1.7317943338250752,0.9568586895127017,A,614,Correct
2,relearn,77,130,A,51.83960679435795,77.93038084885802,2.5919803397178978,1.2241275598311352,A,603,Correct
2,relearn,77,131,B,56.18368188705711,26.446317745891232,2.809184094352856,0.4154177877249664,B,718,Correct
2,relearn,77,132,B,67.77907903169672,44.083464674793106,3.388953951584836,0.692461443835576,B,721,Correct
2,relearn,77,133,B,50.74056325014661,32.25830071929591,2.5370281625073305,0.5067122027851518,B,782,Correct
2,relearn,77,134,B,74.09728511651335,61.16521996808997,3.7048642558256675,0.9607810285347758,A,978,Incorrect
2,relearn,77,135,A,40.93589544340025,71.48894250540127,2.0467947721700126,1.1229456829393587,B,1192,Incorrect
2,relearn,77,136,B,39.70909356392421,23.596435706495413,1.9854546781962108,0.3706519453321493,A,2242,Incorrect
2,relearn,77,137,A,41.97603700573158,51.4198372773502,2.098801850286579,0.8077009151965298,A,21939,Correct
2,relearn,77,138,B,44.951177438980835,16.028177945866556,2.2475588719490416,0.2517700304258216,B,603,Correct
2,relearn,77,139,B,63.31638285245291,31.96126222358202,3.1658191426226456,0.5020463330053113,B,695,Correct
2,relearn,77,140,A,30.334481537348218,56.70932175008423,1.5167240768674108,0.8907879430006224,A,422,Correct
2,relearn,77,141,B,63.43366405548703,37.04433036744519,3.171683202774352,0.5818909806975955,B,511,Correct
2,relearn,77,142,A,47.49604283897493,66.87050936947358,2.3748021419487464,1.050399504884728,B,1297,Incorrect
2,relearn,77,143,A,33.85196594155974,45.946522300696344,1.692598297077987,0.7217262845893362,B,755,Incorrect
2,relearn,77,144,A,58.53733636554547,86.9152030342608,2.9268668182772735,1.365260816688495,B,1060,Incorrect
2,relearn,77,145,B,41.65531666953227,14.395406008556034,2.0827658334766137,0.22612250880961002,B,486,Correct
2,relearn,77,146,A,26.90222102357901,49.30119369518815,1.3451110511789506,0.7744213396300524,A,679,Correct
2,relearn,77,147,B,42.60769716154505,22.11119396082483,2.130384858077252,0.3473218225471315,B,502,Correct
2,relearn,77,148,B,79.43303813848605,52.78242912822842,3.9716519069243024,0.8291044579393316,B,695,Correct
2,relearn,77,149,B,45.27840415722014,16.22347517780622,2.263920207861007,0.25483775217146193,B,1348,Correct
2,relearn,77,150,A,41.12144295572336,71.95336532977825,2.056072147786168,1.1302408196054694,A,417,Correct
2,relearn,77,151,A,30.172350989936877,42.857876422401006,1.508617549496844,0.673209948585371,A,798,Correct
2,relearn,77,152,A,24.059255741026732,45.637313844912576,1.2029627870513366,0.7168692495237455,A,533,Correct
2,relearn,77,153,A,25.691632896191862,57.00288328563811,1.284581644809593,0.8953991968179854,A,547,Correct
2,relearn,77,154,B,35.796591595423095,14.016491953554375,1.7898295797711545,0.22017054075193437,B,783,Correct
2,relearn,77,155,B,60.95872980518261,41.50627590576028,3.0479364902591306,0.6519790573170378,B,613,Correct
2,relearn,77,156,A,20.109392286120027,47.490265725808996,1.0054696143060013,0.7459753496061435,A,510,Correct
2,relearn,77,157,B,82.43500801536408,63.72942749333944,4.121750400768204,1.001059506152793,A,984,Incorrect
2,relearn,77,158,A,32.616771858355605,47.448424912730076,1.6308385929177802,0.7453181156511987,B,1211,Incorrect
2,relearn,77,159,B,42.33931095392537,20.379746417281446,2.1169655476962688,0.3201243081327715,B,496,Correct
2,relearn,77,160,B,65.13786297164066,48.48018078261777,3.2568931485820327,0.7615248989568854,B,1024,Correct
2,relearn,77,161,A,56.692540488082045,75.91211814326124,2.834627024404102,1.1924247633865497,A,738,Correct
2,relearn,77,162,B,76.28905719816471,58.11390258752165,3.8144528599082355,0.9128510472019545,B,718,Correct
2,relearn,77,163,A,50.82173325991761,79.29407621292191,2.5410866629958804,1.245548436518523,A,549,Correct
2,relearn,77,164,A,39.214401550868544,62.40021661854641,1.9607200775434273,0.9801803105561856,B,2058,Incorrect
2,relearn,77,165,B,62.22976962058324,39.31829927773807,3.111488481029162,0.617610400812934,B,1192,Correct
2,relearn,77,166,A,52.58795714817136,76.92069778107424,2.629397857408568,1.2082674952901178,A,872,Correct
2,relearn,77,167,B,71.16410297424089,57.111695684509364,3.5582051487120445,0.8971084179825526,B,684,Correct
2,relearn,77,168,B,60.21007098648541,44.172914939410006,3.010503549324271,0.6938665253064865,B,1001,Correct
2,relearn,77,169,B,36.03979659727459,15.315025661893287,1.8019898298637294,0.24056786054471557,B,1284,Correct
2,relearn,77,170,B,54.84112078538671,25.332747430855406,2.742056039269335,0.3979258661201053,B,522,Correct
2,relearn,77,171,A,59.81348129877946,85.95053353892047,2.990674064938973,1.3501078236899782,A,578,Correct
2,relearn,77,172,A,40.51753783302683,63.24090058633645,2.0258768916513414,0.9933857434421851,A,1007,Correct
2,relearn,77,173,A,18.10531238726416,32.93594031486798,0.905265619363208,0.5173565406613057,A,591,Correct
2,relearn,77,174,A,23.291956073746174,42.0288629929432,1.1645978036873088,0.6601878360868115,A,549,Correct
2,relearn,77,175,B,65.10073555609421,36.908152136226185,3.2550367778047105,0.579751898043713,B,594,Correct
2,relearn,77,176,B,70.96111366504621,46.75360120252908,3.548055683252311,0.7344038503336614,B,668,Correct
2,relearn,77,177,A,37.324016191642755,56.71494480278085,1.8662008095821379,0.8908762697058347,B,513,Incorrect
2,relearn,77,178,A,60.33806971807206,73.64918325842804,3.0169034859036032,1.1568786653378296,A,945,Correct
2,relearn,77,179,B,58.3931428360968,33.9659388689257,2.91965714180484,0.5335357201144849,B,849,Correct
2,relearn,77,180,B,42.65686523908412,20.24835007310611,2.1328432619542057,0.31806033918492255,A,915,Incorrect
2,relearn,77,181,B,63.9519408376937,50.95874316417884,3.197597041884685,0.8004580658037667,B,846,Correct
2,relearn,77,182,B,82.57202676163189,67.54578800067348,4.1286013380815945,1.0610067568192472,A,837,Incorrect
2,relearn,77,183,B,82.95844353666371,68.28997409923613,4.147922176833186,1.0726964047199874,B,1041,Correct
2,relearn,77,184,A,44.74675824634993,64.51319567982402,2.2373379123174963,1.0133709080366795,A,1459,Correct
2,relearn,77,185,B,66.89844676796552,46.68068473927614,3.3449223383982765,0.7332584812072553,B,561,Correct
2,relearn,77,186,B,58.15963970873264,26.349811132865323,2.907981985436632,0.4139018653924412,B,609,Correct
2,relearn,77,187,A,33.03876682051514,65.79234844461442,1.6519383410257573,1.0334637926801025,A,773,Correct
2,relearn,77,188,B,36.47641115139825,19.770334092745305,1.8238205575699127,0.3105516817239224,B,695,Correct
2,relearn,77,189,B,31.816504917524295,17.74061077692249,1.5908252458762147,0.27866886243487804,B,717,Correct
2,relearn,77,190,A,40.1368879016067,62.258820382317914,2.006844395080335,0.9779592636712822,A,695,Correct
2,relearn,77,191,B,47.83250103712369,31.407214949130893,2.3916250518561846,0.49334337876952566,B,525,Correct
2,relearn,77,192,B,43.732792697637194,31.507942258221618,2.1866396348818595,0.49492559964080207,B,418,Correct
2,relearn,77,193,B,65.38916968397487,35.60032313360411,3.269458484198743,0.5592085681097672,B,481,Correct
2,relearn,77,194,B,64.57741298404073,33.09243194811228,3.2288706492020367,0.5198147054880485,B,435,Correct
2,relearn,77,195,A,52.46744613028061,72.71079263255105,2.6233723065140304,1.1421384598555662,A,645,Correct
2,relearn,77,196,A,36.553898063407516,44.37050251591565,1.827694903170376,0.6969702237004403,B,372,Incorrect
2,relearn,77,197,B,66.87706721923179,52.490974410132,3.3438533609615892,0.8245262979332024,B,508,Correct
2,relearn,77,198,B,60.6987572463571,37.33154787772257,3.0349378623178547,0.5864025827989443,B,465,Correct
2,relearn,77,199,A,20.891495900187227,43.059552563972886,1.0445747950093613,0.6763778700092037,A,730,Correct
2,relearn,77,200,A,57.910115508195204,76.89424301360977,2.89550577540976,1.2078519447745237,A,1050,Correct
2,relearn,77,201,A,59.23374101986717,78.32168794636064,2.9616870509933584,1.2302741973451943,A,809,Correct
2,relearn,77,202,A,32.81817609078712,41.81979408264394,1.640908804539356,0.6569037893233605,B,869,Incorrect
2,relearn,77,203,B,80.94302030052657,59.936739885618806,4.047151015026328,0.941484108523912,B,565,Correct
2,relearn,77,204,B,65.73295969878488,40.21256560451306,3.2866479849392443,0.6316575034256792,B,530,Correct
2,relearn,77,205,B,40.442551880541444,22.62818149281712,2.022127594027072,0.3554426437096539,A,730,Incorrect
2,relearn,77,206,A,33.00719803542873,53.87646574151496,1.6503599017714365,0.8462895448746277,A,736,Correct
2,relearn,77,207,A,68.49713891775588,87.59597353807418,3.424856945887794,1.3759543347562986,B,583,Incorrect
2,relearn,77,208,B,79.20129938279234,58.27457951915681,3.960064969139617,0.9153749545420862,B,534,Correct
2,relearn,77,209,B,63.117701917144636,49.5815289614462,3.1558850958572315,0.7788248356951448,B,631,Correct
2,relearn,77,210,A,49.57561445832248,56.89786863396026,2.478780722916124,0.8937496305268333,B,691,Incorrect
2,relearn,77,211,B,58.80681781995902,47.03001556209681,2.940340890997951,0.7387457569404847,B,601,Correct
2,relearn,77,212,B,86.21272654954353,63.73382854835842,4.310636327477177,1.0011286377633712,B,704,Correct
2,relearn,77,213,A,38.02863864641772,48.623494511377615,1.9014319323208861,0.7637760657440377,A,718,Correct
2,relearn,77,214,B,61.49332176202471,47.60944189613579,3.0746660881012353,0.7478473645120515,B,753,Correct
2,relearn,77,215,B,81.12297678726692,59.909414722415406,4.056148839363346,0.9410548858640223,B,592,Correct
2,relearn,77,216,B,70.42883006804257,39.167546730810685,3.5214415034021282,0.6152423853432489,B,595,Correct
2,relearn,77,217,B,63.679240998027595,50.52199509495439,3.1839620499013797,0.7935976431750414,B,854,Correct
2,relearn,77,218,B,49.08072615733478,32.841063539741526,2.4540363078667387,0.5158662197626379,B,788,Correct
2,relearn,77,219,B,44.50578873343075,20.529824770624735,2.2252894366715372,0.3224817333944021,107,1219,Incorrect
2,relearn,77,220,B,80.70861566448897,65.05206937327549,4.035430783224449,1.0218355162194794,B,910,Correct
2,relearn,77,221,A,32.00483192542831,51.99880680501478,1.6002415962714156,0.8167953472703469,B,638,Incorrect
2,relearn,77,222,A,36.06606012368848,48.37373937469031,1.8033030061844242,0.7598529212309718,B,585,Incorrect
2,relearn,77,223,A,20.29186334555556,40.31465728438357,1.014593167277778,0.6332611557830484,A,762,Correct
2,relearn,77,224,B,44.15789941831856,27.09252283247484,2.2078949709159277,0.4255683534885835,B,508,Correct
2,relearn,77,225,A,30.766608309888902,43.43132318243534,1.5383304154944453,0.6822176292281148,B,651,Incorrect
2,relearn,77,226,B,75.44837052285466,43.9983092706634,3.772418526142733,0.6911238258754391,B,477,Correct
2,relearn,77,227,B,63.95065754709377,32.490495068172564,3.1975328773546887,0.5103595030883317,B,352,Correct
2,relearn,77,228,B,53.90954638962946,28.126198615061497,2.695477319481473,0.4418052947124231,B,502,Correct
2,relearn,77,229,A,60.897991891472444,80.46996126379376,3.044899594573622,1.2640191957049485,A,776,Correct
2,relearn,77,230,A,69.4398510926454,87.02652447274534,3.47199255463227,1.3670094497551455,A,595,Correct
2,relearn,77,231,B,79.02415341386661,48.755080623931406,3.9512076706933303,0.7658430155666047,B,886,Correct
2,relearn,77,232,B,66.19333035600347,35.968701710427425,3.3096665178001734,0.5649950452632072,B,588,Correct
2,relearn,77,233,B,42.35720689739771,27.08377671673093,2.1178603448698854,0.4254309698237409,B,486,Correct
2,relearn,77,234,B,49.13308021731067,23.88884349459584,2.4566540108655333,0.37524507612689306,B,470,Correct
2,relearn,77,235,B,84.06560848196476,56.843766184953765,4.203280424098238,0.8928997912451332,B,492,Correct
2,relearn,77,236,A,39.59104551480616,52.71375892779777,1.979552275740308,0.8280257889533642,B,634,Incorrect
2,relearn,77,237,A,69.7900957175481,87.59121081955516,3.4895047858774046,1.3758795221487465,A,715,Correct
2,relearn,77,238,A,59.63192655731667,79.69274905492844,2.9815963278658337,1.2518107748766907,A,447,Correct
2,relearn,77,239,A,16.94704358581172,44.37323501389314,0.8473521792905859,0.6970131456783003,A,935,Correct
2,relearn,77,240,B,64.03207936279054,32.35015849473099,3.201603968139527,0.5081551013475617,B,602,Correct
2,relearn,77,241,A,24.53690912774519,46.780021725033656,1.2268454563872595,0.7348188629306833,A,875,Correct
2,relearn,77,242,A,56.48605881049322,65.92857036875809,2.8243029405246607,1.0356035616608408,A,933,Correct
2,relearn,77,243,B,63.2854464334175,42.268739964833024,3.164272321670875,0.6639558147500836,B,803,Correct
2,relearn,77,244,B,48.50078273488135,22.812007943803756,2.425039136744067,0.3583301828494294,B,701,Correct
2,relearn,77,245,B,30.17623351225547,13.250359544790385,1.5088116756127734,0.20813616101668433,A,647,Incorrect
2,relearn,77,246,A,46.68154470129073,59.89911945259722,2.3340772350645365,0.9408931681438846,B,1084,Incorrect
2,relearn,77,247,A,43.58538051876086,53.611743678917335,2.179269025938043,0.8421313004391286,B,1053,Incorrect
2,relearn,77,248,B,61.53732254041212,28.88911734442282,3.076866127020606,0.4537891940896611,B,584,Correct
2,relearn,77,249,B,80.3640783045656,54.9959342622471,4.0182039152282805,0.8638741152779135,B,728,Correct
2,relearn,77,250,B,48.804585935389355,39.51473733573199,2.4402292967694676,0.6206960426123298,B,539,Correct
2,relearn,77,251,B,58.31529388830544,32.98893885684178,2.9157646944152718,0.518189039811885,B,697,Correct
2,relearn,77,252,B,41.8048983672529,15.19568793296948,2.0902449183626453,0.23869330788229995,B,1017,Correct
2,relearn,77,253,B,61.60366819204082,53.124292450348506,3.080183409602041,0.8344744344458529,B,832,Correct
2,relearn,77,254,B,73.70228706029805,63.18597884556375,3.685114353014902,0.9925230347555158,B,789,Correct
2,relearn,77,255,B,51.40794902563248,39.26539789693105,2.570397451281624,0.6167794278663934,B,751,Correct
2,relearn,77,256,A,26.038136504429794,50.84030448724474,1.3019068252214896,0.7985976354169811,A,733,Correct
2,relearn,77,257,B,32.736615008085664,12.864142190218555,1.6368307504042832,0.20206947299762565,B,1224,Correct
2,relearn,77,258,B,81.98319539215471,53.26713347908516,4.099159769607735,0.8367181760784044,B,960,Correct
2,relearn,77,259,A,45.07467972382881,73.30364754366013,2.2537339861914405,1.1514510030224907,A,795,Correct
2,relearn,77,260,A,62.76127517956505,72.0297579035901,3.138063758978252,1.13144079134885,A,689,Correct
2,relearn,77,261,A,24.11524021429875,54.68670287735199,1.2057620107149376,0.8590167200426841,A,730,Correct
2,relearn,77,262,A,41.68533602628445,70.38170950097744,2.084266801314223,1.1055533075768085,A,801,Correct
2,relearn,77,263,A,57.16496901447752,81.87315117802613,2.8582484507238757,1.2860604513356673,A,802,Correct
2,relearn,77,264,A,29.73598859409848,45.804062922447606,1.4867994297049238,0.7194885379086301,A,601,Correct
2,relearn,77,265,B,50.54948825752519,42.9936569302999,2.5274744128762596,0.6753427838159503,A,820,Incorrect
2,relearn,77,266,B,52.10440944106059,21.60119337748603,2.6052204720530296,0.339310752117413,B,664,Correct
2,relearn,77,267,B,68.47131038719445,43.20507011248407,3.4235655193597223,0.6786636543160596,B,435,Correct
2,relearn,77,268,A,40.49623600837355,73.03396019154255,2.0248118004186777,1.1472147640015975,B,589,Incorrect
2,relearn,77,269,B,49.79601468482187,41.33149440394259,2.4898007342410935,0.6492335959065685,B,612,Correct
2,relearn,77,270,A,30.620205899165782,62.2917834293479,1.5310102949582893,0.9784770460032289,A,589,Correct
2,relearn,77,271,A,41.72400559046465,73.48726664848053,2.0862002795232324,1.1543352851763031,B,629,Incorrect
2,relearn,77,272,A,11.290352920467601,32.962302457565485,0.5645176460233801,0.5177706362304626,A,541,Correct
2,relearn,77,273,A,45.53686907655864,55.778923805786114,2.276843453827932,0.8761732862670125,B,702,Incorrect
2,relearn,77,274,A,65.21952863633031,75.73996845629554,3.2609764318165158,1.1897206424271038,B,700,Incorrect
2,relearn,77,275,A,29.81471901374332,49.36531534234938,1.490735950687166,0.7754285601083416,A,1433,Correct
2,relearn,77,276,A,34.03071289143912,56.73716082500448,1.701535644571956,0.8912252381668834,A,383,Correct
2,relearn,77,277,A,14.472516264112429,32.14558772657932,0.7236258132056215,0.504941711235739,A,562,Correct
2,relearn,77,278,A,54.720851432999964,76.68930295519534,2.736042571649998,1.2046327538648185,A,1812,Correct
2,relearn,77,279,A,59.5015733390381,79.34295046962153,2.975078666951905,1.2463161515475092,B,1244,Incorrect
2,relearn,77,280,A,68.36740468714245,85.81477763533493,3.4183702343571225,1.3479753749430494,A,1142,Correct
2,relearn,77,281,A,62.3961293997523,84.14023005987187,3.1198064699876147,1.3216716431372426,A,503,Correct
2,relearn,77,282,B,72.85239982411153,48.969423468094845,3.6426199912055766,0.769209905089472,A,556,Incorrect
2,relearn,77,283,A,63.38399577279725,85.00427876815597,3.169199788639862,1.335244088508688,A,722,Correct
2,relearn,77,284,A,34.36502934090616,55.78089432178391,1.7182514670453082,0.8762042390599248,B,993,Incorrect
2,relearn,77,285,B,77.02567983898471,54.12093540127764,3.851283991949236,0.850129665310308,B,747,Correct
2,relearn,77,286,A,45.12725467610492,69.6697156855107,2.2563627338052457,1.09436933487645,B,944,Incorrect
2,relearn,77,287,B,58.04309978085677,26.705053296433633,2.902154989042838,0.41948199624899896,B,719,Correct
2,relearn,77,288,B,55.56863030321061,46.436606974683386,2.7784315151605306,0.7294245166465093,B,560,Correct
2,relearn,77,289,B,61.79726039377054,34.89349023481434,3.0898630196885275,0.5481056628989995,B,488,Correct
2,relearn,77,290,B,71.35196565676532,58.49980066945779,3.5675982828382655,0.9189127200981791,B,470,Correct
2,relearn,77,291,A,45.298641319426565,58.247833382505625,2.2649320659713283,0.9149548272100099,A,891,Correct
2,relearn,77,292,B,73.2655351129403,63.54219169239005,3.663276755647015,0.9981184130690348,A,571,Incorrect
2,relearn,77,293,A,20.12165408380215,51.54649476980089,1.0060827041901075,0.8096904464355558,A,623,Correct
2,relearn,77,294,B,67.89814162410018,55.20429699888078,3.394907081205009,0.8671470694913647,B,891,Correct
2,relearn,77,295,A,24.682978058504368,49.70471044526052,1.2341489029252184,0.7807597659181915,A,570,Correct
2,relearn,77,296,A,28.50547593499749,56.12519876303625,1.4252737967498745,0.8816125605761083,A,628,Correct
2,relearn,77,297,B,71.75392008602597,45.04892458175304,3.5876960043012986,0.70762685259078,B,486,Correct
2,relearn,77,298,B,76.888260090134,54.596662257926425,3.8444130045066998,0.857602365300124,107,925,Incorrect
2,relearn,77,299,B,63.40828997948971,54.467920399693384,3.170414498974486,0.8555800929199517,B,734,Correct
2,relearn,77,300,A,16.999067809197346,40.537455975651326,0.8499533904598673,0.6367608694416294,A,698,Correct
2,relearn,77,301,B,47.618223549000376,25.387289142962267,2.380911177450019,0.39878260533045085,B,748,Correct
2,relearn,77,302,B,59.791554858495175,52.34296381414546,2.9895777429247583,0.8222013529281788,B,514,Correct
2,relearn,77,303,A,41.80207648500469,70.64534977004396,2.0901038242502348,1.1096945592392575,B,480,Correct
2,relearn,77,304,A,26.58271780668852,41.91172605610056,1.3291358903344261,0.6583478533855671,A,696,Correct
2,relearn,77,305,B,54.093807441967485,25.781214093400486,2.7046903720983746,0.40497036398226305,B,512,Correct
2,relearn,77,306,B,75.47948976428873,54.27590279637434,3.7739744882144364,0.8525638874602166,B,627,Incorrect
2,relearn,77,307,A,39.75075180394002,49.14838148523278,1.9875375901970012,0.7720209710491797,B,846,Incorrect
2,relearn,77,308,B,40.648681241527555,23.359692856622406,2.0324340620763777,0.3669331973423946,B,734,Incorrect
2,relearn,77,309,A,58.156369188456544,69.26056529523206,2.907818459422827,1.0879424155748862,A,759,Correct
2,relearn,77,310,A,42.03443103301896,59.93198630828635,2.101721551650948,0.9414094395057823,A,504,Correct
2,relearn,77,311,B,40.777205509201046,18.552176102288726,2.038860275460052,0.29141690075527193,B,808,Correct
2,relearn,77,312,B,67.62032925295539,38.040003804457164,3.3810164626477697,0.5975309824730519,B,786,Incorrect
2,relearn,77,313,A,26.84470858153704,39.676336307528416,1.3422354290768521,0.6232344333254463,A,698,Correct
2,relearn,77,314,B,43.97973742949688,35.05541494233856,2.198986871474844,0.5506491702569634,A,551,Incorrect
2,relearn,77,315,B,68.35753513175416,56.257618912385574,3.417876756587708,0.8836926114180236,A,1720,Incorrect
2,relearn,77,316,A,42.082498823557906,55.19912448257777,2.1041249411778953,0.8670658197952741,107,987,Incorrect
2,relearn,77,317,B,50.70865443585449,25.810345477956915,2.535432721792725,0.40542795870081993,B,485,Correct
2,relearn,77,318,A,40.560189463824166,71.9211233634285,2.0280094731912084,1.1297343639823612,A,623,Correct
2,relearn,77,319,B,74.92267164119781,58.221983784329154,3.74613358205989,0.9145487826713627,107,1056,Incorrect
2,relearn,77,320,A,27.2206266292129,52.893456562174954,1.3610313314606453,0.8308484727934985,A,636,Correct
2,relearn,77,321,B,46.47560857584913,21.333261928609645,2.3237804287924564,0.33510209476013436,B,533,Incorrect
2,relearn,77,322,A,27.841559409780217,42.83989270875657,1.392077970489011,0.672927461072023,A,648,Correct
2,relearn,77,323,B,67.64949355808496,44.468903114000604,3.3824746779042476,0.6985158966807028,B,585,Correct
2,relearn,77,324,B,33.17827935184151,18.833789446790973,1.6589139675920757,0.29584047282647746,A,1000,Correct
2,relearn,77,325,A,53.68664768087681,67.66545022835385,2.6843323840438402,1.0628864066962112,A,725,Correct
2,relearn,77,326,A,55.760575647038145,71.97744838649908,2.7880287823519074,1.13061911537582,A,485,Correct
2,relearn,77,327,A,54.2684900580148,82.67243497819169,2.71342450290074,1.2986155719093344,A,677,Correct
2,relearn,77,328,B,53.241707408531326,28.569801764159678,2.6620853704265666,0.4487733966840038,B,685,Correct
2,relearn,77,329,A,31.200648257924364,47.656971046628556,1.5600324128962182,0.7485939506621487,A,1446,Incorrect
2,relearn,77,330,B,32.930553564835265,19.5429214092339,1.6465276782417633,0.3069794916446596,B,870,Correct
2,relearn,77,331,A,46.07637332638918,73.31010116838429,2.3038186663194593,1.151552376322603,A,973,Incorrect
2,relearn,77,332,A,24.820373116290313,46.43401588638285,1.2410186558145155,0.7293838159266606,107,792,Incorrect
2,relearn,77,333,B,42.0080480094025,26.473291505064804,2.100402400470125,0.41584149054326336,B,561,Correct
2,relearn,77,334,A,69.8025395352974,86.84064387313107,3.49012697676487,1.3640896441241803,A,720,Correct
2,relearn,77,335,A,67.13425851139309,84.24598304992121,3.3567129255696546,1.3233328072204134,A,780,Incorrect
2,relearn,77,336,B,72.41749558342957,51.87570165920991,3.6208747791714786,0.8148616161619485,B,514,Incorrect
2,relearn,77,337,A,28.447941180646566,54.05201239130384,1.4223970590323285,0.8490470252013231,A,756,Correct
2,relearn,77,338,A,21.29406730972594,52.30052716002222,1.064703365486297,0.8215347595239963,A,471,Correct
2,relearn,77,339,A,59.46322596093098,73.37727503159869,2.973161298046549,1.152607540898541,B,584,Correct
2,relearn,77,340,B,78.35589501909173,47.81459307545161,3.9177947509545867,0.7510698717011209,B,712,Correct
2,relearn,77,341,A,27.93776701550385,40.15273068665156,1.3968883507751926,0.6307176187337699,A,559,Correct
2,relearn,77,342,A,20.26385640613422,39.032438753049234,1.013192820306711,0.6131201141913651,B,1116,Incorrect
2,relearn,77,343,A,22.73211463948541,54.640262160518304,1.1366057319742706,0.8582872309685232,A,536,Correct
2,relearn,77,344,A,12.975616928893075,40.00564978541877,0.6487808464446537,0.6284072773397885,A,742,Correct
2,relearn,77,345,A,45.51594967946038,59.31946179114576,2.275797483973019,0.9317879268898197,A,2065,Correct
2,relearn,77,346,B,59.357007000463526,37.023983177391656,2.967850350023176,0.5815713677836285,B,869,Incorrect
2,relearn,77,347,B,58.951348455660046,30.844090106427064,2.947567422783002,0.48449783442506444,B,547,Correct
2,relearn,77,348,A,34.64215128267292,64.12524051855621,1.732107564133646,1.0072769226138736,A,609,Correct
2,relearn,77,349,B,65.80425283317076,43.04859843890719,3.290212641658538,0.6762058030150394,B,1061,Correct
2,relearn,77,350,B,69.61669135729471,42.20219777389825,3.4808345678647354,0.6629105724591112,B,629,Correct
2,relearn,77,351,A,40.6019284714462,66.17228259737008,2.03009642357231,1.0394317843958278,A,987,Correct
2,relearn,77,352,B,70.8973640692069,51.071154440092066,3.544868203460345,0.8022238179967149,B,847,Incorrect
2,relearn,77,353,B,51.12905401616504,22.216218327696634,2.556452700808252,0.3489715414441933,A,432,Correct
2,relearn,77,354,A,54.71431709367223,66.06188730152945,2.7357158546836113,1.037697699143809,A,802,Incorrect
2,relearn,77,355,B,44.12837562301805,25.83535339929104,2.206418781150903,0.4058207822105441,B,529,Correct
2,relearn,77,356,B,74.39501812464154,45.0315783146112,3.719750906232077,0.70735437806368,B,737,Correct
2,relearn,77,357,A,22.241554700040044,40.80402548762015,1.1120777350020021,0.6409481335439907,A,586,Correct
2,relearn,77,358,A,55.20058562548745,71.0290283371023,2.7600292812743725,1.1157213680773093,A,827,Incorrect
2,relearn,77,359,B,74.62452986766525,60.97973629939326,3.7312264933832626,0.9578674578800835,B,782,Incorrect
2,relearn,77,360,B,59.31436068245224,51.610821412794934,2.965718034122612,0.8107008869808567,A,477,Incorrect
2,relearn,77,361,A,27.63979867379161,56.286527017299505,1.3819899336895805,0.8841466988681576,A,698,Correct
2,relearn,77,362,B,39.3174592588962,12.354720392570023,1.9658729629448102,0.19406749411226995,B,690,Correct
2,relearn,77,363,A,58.71181988302074,67.1811972718351,2.9355909941510365,1.0552797790428192,B,648,Correct
2,relearn,77,364,B,66.33211273164824,40.15981111582464,3.3166056365824117,0.630828837855142,B,599,Correct
2,relearn,77,365,A,64.54431646776749,77.3466139996905,3.2272158233883745,1.2149577716073656,B,1310,Correct
2,relearn,77,366,A,45.147534370302104,72.9965894551249,2.2573767185151055,1.1466277458466527,A,875,Correct
2,relearn,77,367,A,49.52349805270756,72.05117357643377,2.476174902635378,1.1317771879512368,A,730,Correct
2,relearn,77,368,A,51.91800897400637,72.11249215168755,2.5959004487003186,1.1327403778789662,A,459,Correct
2,relearn,77,369,B,71.62449677109774,60.70609220205013,3.5812248385548866,0.9535690664505266,B,667,Correct
2,relearn,77,370,A,21.819467291788747,42.35886446048987,1.0909733645894375,0.6653714870174038,A,672,Incorrect
2,relearn,77,371,B,46.56339441943324,28.150584924407017,2.328169720971662,0.4421883539638633,B,512,Correct
2,relearn,77,372,A,41.80049990337919,71.3722659406379,2.09002499516896,1.1211129317458253,B,501,Incorrect
2,relearn,77,373,B,45.841681674779394,37.16226839278286,2.29208408373897,0.5837435468674941,B,397,Incorrect
2,relearn,77,374,B,37.316733159582384,15.80930965621145,1.8658366579791192,0.24833205537140032,B,1445,Correct
2,relearn,77,375,B,69.61982124454738,45.7026575389503,3.480991062227369,0.7178956658694822,B,677,Correct
2,relearn,77,376,B,83.91698402834456,68.85891086726974,4.195849201417229,1.081633242574045,A,836,Incorrect
2,relearn,77,377,B,51.04295649194127,25.127833643588378,2.5521478245970632,0.3947070878766184,B,424,Incorrect
2,relearn,77,378,B,83.65457343145198,59.69502094480388,4.182728671572599,0.9376871962804235,B,1019,Correct
2,relearn,77,379,A,38.55702845752691,45.66328126423832,1.9278514228763455,0.7172771447926778,B,545,Correct
2,relearn,77,380,A,48.12803161148359,62.97486219304158,2.4064015805741796,0.9892068221324452,B,703,Correct
2,relearn,77,381,B,87.21514607309142,59.60642027176388,4.360757303654571,0.9362954601627955,B,1277,Correct
2,relearn,77,382,B,69.21918227893511,38.66544366716817,3.4609591139467555,0.6073553688628276,B,968,Correct
2,relearn,77,383,B,83.67206900949472,63.297774882824584,4.183603450474736,0.9942791228023111,B,467,Correct
2,relearn,77,384,A,50.21928793575222,65.51021033294323,2.510964396787611,1.029031977585483,A,627,Correct
2,relearn,77,385,A,37.57440411569034,48.522760240327244,1.8787202057845171,0.7621937355145549,A,404,Incorrect
2,relearn,77,386,A,52.54690574135013,62.67297865406558,2.6273452870675067,0.9844648465910116,B,405,Incorrect
2,relearn,77,387,B,54.61986390040712,39.24592759740661,2.730993195020356,0.6164735891166476,B,396,Correct
2,relearn,77,388,B,42.31180853759942,30.00623924212384,2.1155904268799706,0.4713369038245701,B,454,Correct
2,relearn,77,389,A,43.079104084896315,64.9821734904537,2.1539552042448156,1.0207375942595338,A,737,Incorrect
2,relearn,77,390,A,45.67871641283437,62.26465893059211,2.2839358206417186,0.9780509753731115,B,577,Incorrect
2,relearn,77,391,B,54.62280662001569,40.97612105797149,2.731140331000784,0.6436514044416464,B,785,Incorrect
2,relearn,77,392,A,51.03599722339854,77.41593224424332,2.551799861169927,1.2160466200466,A,897,Correct
2,relearn,77,393,B,64.52781871499823,50.6235723044025,3.226390935749912,0.7951932142499131,A,655,Correct
2,relearn,77,394,B,57.37496639923919,33.075515807606415,2.8687483199619597,0.5195489873743468,B,537,Correct
2,relearn,77,395,B,79.89940568835097,58.954364918102904,3.994970284417548,0.9260529986188197,B,489,Correct
2,relearn,77,396,A,17.593931613528472,47.17744447384405,0.8796965806764235,0.7410615648708442,A,582,Correct
2,relearn,77,397,A,43.23114170420284,70.47135950196326,2.1615570852101422,1.1069615264992652,A,678,Correct
2,relearn,77,398,B,84.61517164692292,63.89613589134385,4.230758582346146,1.0036781555451049,B,631,Incorrect
2,relearn,77,399,A,38.74765169420518,48.61720739933576,1.9373825847102593,0.7636773080190229,B,724,Incorrect
2,relearn,77,400,A,63.99301116315749,74.21134996114344,3.1996505581578742,1.165709159254547,B,971,Correct
2,relearn,77,401,B,81.92836046806352,60.85047661395141,4.096418023403175,0.9558370514891363,A,970,Incorrect
2,relearn,77,402,A,32.64123188913209,60.38743416449471,1.6320615944566044,0.9485635977015693,B,1199,Correct
2,relearn,77,403,B,55.58172509635805,43.12680469320097,2.7790862548179023,0.6774342639848099,B,428,Correct
2,relearn,77,404,A,59.322956448545554,84.50652440449821,2.9661478224272777,1.3274253812478904,A,577,Correct
2,relearn,77,405,B,67.6119221626936,40.41162631374071,3.38059610813468,0.634784341734319,B,556,Incorrect
2,relearn,77,406,B,68.25228543686917,43.57967499208008,3.4126142718434584,0.684547934004748,B,433,Correct
2,relearn,77,407,A,32.44865010534197,62.14724376398334,1.6224325052670985,0.9762066222489209,B,385,Correct
2,relearn,77,408,A,24.41311289958108,51.44246661621277,1.220655644979054,0.8080563760201612,A,621,Correct
2,relearn,77,409,B,75.04596093274247,54.12284431150358,3.7522980466371236,0.8501596504020188,B,487,Incorrect
2,relearn,77,410,B,42.535544955532885,22.453433963191177,2.1267772477766442,0.35269771593312477,B,729,Correct
2,relearn,77,411,B,60.60245312812575,38.186708320483284,3.0301226564062875,0.5998354116220326,A,564,Incorrect
2,relearn,77,412,B,30.330655136609202,14.096929536702255,1.5165327568304603,0.22143405135338384,A,995,Correct
2,relearn,77,413,B,82.81601715942355,52.82805823177207,4.140800857971177,0.8298211982217446,B,855,Incorrect
2,relearn,77,414,A,55.06040905985482,73.78935410172818,2.753020452992741,1.1590804637956256,A,785,Correct
2,relearn,77,415,A,23.758244459315293,36.820864369541155,1.1879122229657646,0.5783807850108833,A,809,Incorrect
2,relearn,77,416,A,23.33410529660305,40.220923890051616,1.1667052648301524,0.6317887950679016,A,689,Incorrect
2,relearn,77,417,A,50.31096341575851,77.52233144148983,2.5155481707879255,1.2177179347286875,A,813,Correct
2,relearn,77,418,B,55.069219405418295,26.642833730105316,2.7534609702709143,0.4185046535865661,B,507,Incorrect
2,relearn,77,419,B,59.97297693243035,29.76951588520621,2.998648846621517,0.46761846202944246,B,675,Correct
2,relearn,77,420,B,41.848388021686645,18.930804169151717,2.0924194010843324,0.2973643765217703,B,776,Correct
2,relearn,77,421,B,80.83894591921339,49.36682680977841,4.04194729596067,0.7754523021831973,A,1006,Incorrect
2,relearn,77,422,A,22.932275846631242,45.24846136674647,1.146613792331562,0.7107611690800614,A,572,Correct
2,relearn,77,423,B,55.41519182182955,37.75790404038703,2.770759591091478,0.5930997697411413,B,511,Correct
2,relearn,77,424,B,51.93866614140048,22.959080754437146,2.596933307070024,0.36064039715657276,B,497,Correct
2,relearn,77,425,B,64.17173630596491,34.31874002881631,3.2085868152982457,0.5390775077749365,B,398,Correct
2,relearn,77,426,A,35.21481713856434,54.70865716529516,1.760740856928217,0.8593615771912694,A,825,Correct
2,relearn,77,427,B,71.98005648878726,41.526415926826644,3.5990028244393626,0.6522954160281639,B,311,Correct
2,relearn,77,428,B,42.16416589191901,20.869231562980733,2.1082082945959506,0.32781312282162256,B,618,Correct
2,relearn,77,429,A,68.2617045699122,87.8014668535969,3.4130852284956097,1.3791822162083387,A,675,Incorrect
2,relearn,77,430,B,88.78069683425741,68.53360498481308,4.43903484171287,1.076523349721568,B,491,Correct
2,relearn,77,431,B,50.73401111277674,24.188499729850832,2.536700555638837,0.3799520652632903,B,403,Correct
2,relearn,77,432,A,37.572621098436336,46.82821088482952,1.8786310549218168,0.7355758164826699,B,828,Incorrect
2,relearn,77,433,B,41.706583560265784,31.102128949096134,2.085329178013289,0.48855109908741423,B,375,Incorrect
2,relearn,77,434,A,65.58492965872307,83.51278270612177,3.2792464829361534,1.3118157231519645,B,455,Incorrect
2,relearn,77,435,A,26.11786399731652,53.477107434440484,1.305893199865826,0.8400164392563517,A,632,Incorrect
2,relearn,77,436,A,40.24554582488923,71.08346158970394,2.0122772912444615,1.1165764036097308,B,534,Incorrect
2,relearn,77,437,B,43.299772278749224,14.98204118102327,2.1649886139374614,0.23533735255041227,B,491,Correct
2,relearn,77,438,B,44.682043873490265,23.330472561742095,2.2341021936745133,0.3664742060237361,B,486,Correct
2,relearn,77,439,A,59.55350725343126,76.97612087140222,2.977675362671563,1.2091380791571855,A,885,Correct
2,relearn,77,440,B,41.212472442555494,31.685060875535257,2.0606236221277747,0.49770777237563474,B,446,Incorrect
2,relearn,77,441,B,83.83990986791179,63.716210988334254,4.19199549339559,1.0008519017776407,B,507,Correct
2,relearn,77,442,A,28.799407533610918,50.034346106222564,1.4399703766805458,0.7859376707723895,B,538,Incorrect
2,relearn,77,443,B,40.21397535977745,24.04255821175326,2.0106987679888726,0.377659621257745,B,642,Incorrect
2,relearn,77,444,A,59.426596339032464,81.46649636031322,2.971329816951623,1.2796727323962982,A,815,Correct
2,relearn,77,445,B,82.72824942271953,63.85278708627489,4.136412471135976,1.002997234107372,B,667,Correct
2,relearn,77,446,B,70.70020289108926,47.51667385241115,3.535010144554463,0.7463901674887854,B,474,Incorrect
2,relearn,77,447,A,14.37616762798601,40.0710734916228,0.7188083813993005,0.6294349505136944,A,604,Correct
2,relearn,77,448,A,65.15889478713311,86.44182057321387,3.2579447393566556,1.3578249423786788,A,711,Incorrect
2,relearn,77,449,B,54.318270445034514,23.514753280647167,2.7159135222517254,0.3693688807872881,B,407,Incorrect
2,relearn,77,450,A,46.46325097891451,66.99488644843852,2.3231625489457257,1.0523532154724842,107,1020,Incorrect
2,relearn,77,451,B,82.58861212695749,56.220423825298866,4.129430606347874,0.8831083523563173,B,314,Incorrect
2,relearn,77,452,A,43.59751262826692,55.97669188343643,2.179875631413346,0.8792798199663165,B,289,Incorrect
2,relearn,77,453,B,44.77088486237217,36.922194110645975,2.2385442431186084,0.5799724688621085,B,345,Correct
2,relearn,77,454,B,64.66704466678448,34.500846078843125,3.233352233339224,0.5419380229196289,B,530,Incorrect
2,relearn,77,455,A,61.323344020424926,80.26988635482532,3.0661672010212464,1.260876426384034,A,921,Incorrect
2,relearn,77,456,B,79.2439241553204,55.21561309031995,3.9621962077660204,0.8673248222400278,B,627,Incorrect
2,relearn,77,457,A,41.08152909426202,48.24439251751958,2.0540764547131007,0.7578211455497095,B,793,Correct
2,relearn,77,458,B,68.68991197153152,41.464469302629865,3.4344955985765755,0.6513223607307074,B,506,Incorrect
2,relearn,77,459,B,52.00996927135308,40.120506771272034,2.600498463567654,0.6302114466546388,A,743,Incorrect
2,relearn,77,460,B,69.89940521600882,46.74413859693688,3.4949702608004407,0.7342552120725999,A,1137,Incorrect
2,relearn,77,461,A,42.56721282637512,71.88699952109508,2.1283606413187557,1.1291983479204262,A,1275,Correct
2,relearn,77,462,A,37.686157110299206,65.57998653452871,1.8843078555149604,1.0301280195969649,A,643,Correct
2,relearn,77,463,B,82.80202125089406,56.385997852780335,4.140101062544703,0.8857091830981229,B,966,Correct
2,relearn,77,464,A,53.935930369086925,64.66856162545761,2.6967965184543465,1.0158113906037822,B,414,Correct
2,relearn,77,465,B,31.72492905622403,15.717101281526144,1.5862464528112017,0.2468836496088463,A,642,Correct
2,relearn,77,466,A,35.049641113060964,62.94718238802018,1.7524820556530483,0.9887720287719052,B,2254,Correct
2,relearn,77,467,A,33.33015821868831,57.67756123410244,1.6665079109344156,0.9059970132501584,B,905,Incorrect
2,relearn,77,468,A,57.20281552829404,68.61673336137014,2.8601407764147018,1.0778291272070504,A,381,Correct
2,relearn,77,469,A,18.045053861750187,42.30486708646488,0.9022526930875094,0.6645232982496535,A,720,Incorrect
2,relearn,77,470,B,76.49043067555165,48.93662130052678,3.8245215337775824,0.7686946498462036,B,666,Correct
2,relearn,77,471,A,61.693780612878456,75.8858826416177,3.084689030643923,1.1920126570904168,A,656,Correct
2,relearn,77,472,A,50.894377488160984,58.97974571928437,2.544718874408049,0.926451679311489,107,1213,Incorrect
2,relearn,77,473,B,63.73361548309952,52.70684241100739,3.1866807741549756,0.8279171445616789,B,527,Incorrect
2,relearn,77,474,A,19.271307911998022,33.76899467847658,0.9635653955999011,0.5304421280050743,A,518,Correct
2,relearn,77,475,B,85.58752785073314,65.6957713995352,4.279376392536657,1.0319467640034712,B,650,Correct
2,relearn,77,476,B,52.95918939599856,22.956632584914374,2.6479594697999276,0.3606019413996353,100,611,Incorrect
2,relearn,77,477,B,53.09998816169879,31.11545338201551,2.6549994080849393,0.488760398790278,B,585,Correct
2,relearn,77,478,B,77.2817973188808,47.35556587571766,3.8640898659440404,0.7438594893087104,107,1036,Incorrect
2,relearn,77,479,A,27.39443908777465,44.35640080438739,1.3697219543887327,0.6967487145337391,A,662,Correct
2,relearn,77,480,A,35.06330025284344,49.2559475524143,1.753165012642172,0.7737106148813446,A,536,Correct
2,relearn,77,481,A,26.094451278285845,38.60547043608797,1.3047225639142923,0.6064133115519595,B,1886,Incorrect
2,relearn,77,482,A,60.01841195812243,76.95674256943558,3.0009205979061218,1.2088336855016983,A,744,Incorrect
2,relearn,77,483,B,41.75590481520031,13.953379134448362,2.0877952407600158,0.21917916690768038,B,629,Incorrect
2,relearn,77,484,A,49.2033376030366,58.80954644305643,2.46016688015183,0.9237781953322691,B,886,Incorrect
2,relearn,77,485,B,49.908869348571216,39.50669354180553,2.4954434674285606,0.6205696909927979,B,451,Incorrect
2,relearn,77,486,B,71.20603995792574,61.329088225668016,3.560301997896287,0.9633550651055945,107,849,Incorrect
2,relearn,77,487,A,67.32819339037145,84.93303445913814,3.3664096695185726,1.3341249855195858,A,886,Incorrect
2,relearn,77,488,A,68.18754918156445,89.37289762291101,3.4093774590782226,1.4038661930108496,A,707,Correct
2,relearn,77,489,B,82.8829814774713,67.99330600965374,4.144149073873565,1.0680363532660546,B,795,Correct
2,relearn,77,490,A,50.43215718842626,68.0562954679933,2.521607859421313,1.0690257893639203,B,777,Correct
2,relearn,77,491,B,75.8648184107499,60.90764322171539,3.793240920537495,0.9567350224640462,B,466,Correct
2,relearn,77,492,A,40.03629637221943,65.9633956723251,2.0018148186109714,1.0361505962500663,B,572,Correct
2,relearn,77,493,A,44.985392269543944,55.02093395222647,2.2492696134771974,0.8642668094898195,B,473,Correct
2,relearn,77,494,B,52.25860921528258,30.991954465619706,2.612930460764129,0.48682048234790126,B,672,Incorrect
2,relearn,77,495,A,16.82091949694747,35.158654453259075,0.8410459748473735,0.5522708527023038,A,596,Correct
2,relearn,77,496,B,62.43406751909139,47.549057019876955,3.1217033759545694,0.7468988410938383,B,561,Incorrect
2,relearn,77,497,B,89.757688636281,65.46283947220579,4.48788443181405,1.0282878778450482,B,712,Correct
2,relearn,77,498,B,79.30025497004041,63.592657045350016,3.965012748502021,0.9989111209796341,B,320,Correct
2,relearn,77,499,B,33.20484406526124,12.219640402349377,1.660242203263062,0.19194566258764914,B,353,Incorrect
2,relearn,77,500,B,63.22115736939281,46.1300055068588,3.1610578684696407,0.7246084320520215,B,1419,Correct
2,relearn,77,501,A,56.97292340995802,71.29042625056532,2.848646170497901,1.1198273969003048,A,619,Incorrect
2,relearn,77,502,B,70.67205555261897,48.50632743340353,3.5336027776309487,0.7619356095870078,107,274,Incorrect
2,relearn,77,503,A,52.26754506058065,68.26681239810391,2.6133772530290327,1.0723325815693794,B,289,Correct
2,relearn,77,504,B,68.41815099180259,54.167039156453356,3.4209075495901295,0.8508538614031227,A,407,Correct
2,relearn,77,505,A,51.30487720921077,64.19404819301687,2.5652438604605385,1.0083577510368544,B,873,Incorrect
2,relearn,77,506,B,82.22065383365052,61.037870010556304,4.111032691682526,0.9587806200796622,B,558,Correct
2,relearn,77,507,B,42.34510222603939,26.334059993278018,2.1172551113019695,0.4136544470703756,107,517,Incorrect
2,relearn,77,508,B,86.73337547262508,59.36767273540897,4.336668773631255,0.9325452226314195,B,507,Correct
2,relearn,77,509,A,59.09848163909412,70.34345032334761,2.9549240819547062,1.104952333819937,B,1075,Incorrect
2,relearn,77,510,A,31.720830862484668,60.18068718545604,1.5860415431242334,0.9453160237490705,A,488,Incorrect
2,relearn,77,511,B,62.51195010189684,37.72372326101811,3.1255975050948424,0.5925628593143444,B,1201,Incorrect
2,relearn,77,512,A,31.775534096814468,59.404265271390955,1.5887767048407233,0.9331200168425055,A,552,Incorrect
2,relearn,77,513,A,21.38539833625347,44.467214542803035,1.0692699168126736,0.698489372666356,B,748,Correct
2,relearn,77,514,B,83.21275617414739,59.56805018820745,4.160637808707369,0.9356927442997031,B,587,Correct
2,relearn,77,515,B,45.26420183264981,22.790392681084114,2.2632100916324904,0.3579906510966022,B,471,Correct
2,relearn,77,516,A,63.4971415421367,85.43208392360675,3.1748570771068354,1.341964036176348,A,446,Correct
2,relearn,77,517,A,39.30389604606619,70.05304652124856,1.9651948023033097,1.1003906815636924,B,514,Incorrect
2,relearn,77,518,A,46.880925694558904,78.08994129935665,2.3440462847279453,1.2266339295265851,A,536,Incorrect
2,relearn,77,519,A,62.40103285133809,73.01685639242585,3.1200516425669043,1.1469460981533297,A,529,Correct
2,relearn,77,520,B,78.30366840714133,51.08886762975372,3.915183420357067,0.8025020561292784,B,467,Correct
2,relearn,77,521,B,64.82216065984326,40.42975044915429,3.241108032992163,0.6350690349876588,B,405,Correct
2,relearn,77,522,A,30.563256595577137,42.973879855489514,1.528162829778857,0.6750321262512813,B,433,Correct
2,relearn,77,523,A,18.231600253189,46.97501180267411,0.91158001265945,0.7378817599078741,B,573,Incorrect
2,relearn,77,524,A,30.698676184225583,51.04674668490055,1.534933809211279,0.8018404218747135,B,403,Incorrect
2,relearn,77,525,A,27.026718640779926,50.77681575355982,1.3513359320389964,0.79760035672033,B,458,Correct
2,relearn,77,526,A,68.63012626784527,89.39383050858683,3.431506313392264,1.4041950060101376,B,327,Incorrect
2,relearn,77,527,B,67.71504320275105,37.19355434664152,3.3857521601375526,0.5842349854815085,B,597,Correct
2,relearn,77,528,B,70.14596087687386,51.199118987253726,3.5072980438436927,0.8042338804031299,B,342,Correct
2,relearn,77,529,A,49.84748639084971,57.50872108758727,2.4923743195424857,0.9033448784305429,A,1458,Correct
2,relearn,77,530,B,76.76104567334919,61.005193687365235,3.8380522836674595,0.9582673415952453,B,2661,Incorrect
2,relearn,77,531,A,30.98450614998704,40.930125576735435,1.5492253074993523,0.6429289091118986,A,636,Correct
2,relearn,77,532,A,37.527123479580425,53.2809420779592,1.8763561739790213,0.8369350810422997,B,688,Incorrect
2,relearn,77,533,A,14.1419655235382,41.727012915772306,0.70709827617691,0.6554463861621834,A,700,Correct
2,relearn,77,534,B,76.72640811137809,51.32517329236819,3.8363204055689044,0.8062139367976348,B,401,Incorrect
2,relearn,77,535,A,12.124542000873642,30.24600036322453,0.6062271000436822,0.475103062707902,A,541,Correct
2,relearn,77,536,B,80.38083659757953,63.36675127516437,4.019041829878977,0.9953626014395401,B,659,Correct
2,relearn,77,537,A,17.86189939439923,45.55130782630077,0.8930949697199615,0.7155182701425689,A,773,Incorrect
2,relearn,77,538,B,54.699050722353725,39.791384972508446,2.7349525361176865,0.6250416135289791,B,544,Correct
2,relearn,77,539,B,69.02707797118362,44.913494992299,3.451353898559181,0.7054995295742426,B,452,Correct
2,relearn,77,540,A,29.934859824641116,42.27700881818597,1.4967429912320558,0.6640857015948196,100,613,Incorrect
2,relearn,77,541,A,18.953897174838826,40.310611489663245,0.9476948587419414,0.6331976045881919,B,610,Incorrect
2,relearn,77,542,B,63.583420774106976,37.999348073508216,3.179171038705349,0.5968923637446744,B,449,Correct
2,relearn,77,543,A,41.434256117207035,73.40105595267862,2.071712805860352,1.1529810907333427,B,378,Incorrect
2,relearn,77,544,B,67.0382751673153,51.22013467752535,3.3519137583657654,0.8045639940939672,B,328,Incorrect
2,relearn,77,545,A,48.2497813641667,76.17321058124928,2.412489068208335,1.1965259938120052,A,628,Incorrect
2,relearn,77,546,B,66.64490874266271,54.32070134644353,3.3322454371331354,0.8532675814391608,B,579,Correct
2,relearn,77,547,A,52.07030388825565,81.56101694899118,2.6035151944127826,1.2811574583313166,B,782,Incorrect
2,relearn,77,548,B,42.489856882475166,31.162618880372804,2.1244928441237585,0.48950127270598887,B,300,Incorrect
2,relearn,77,549,B,48.40793039459754,40.42899073273884,2.420396519729877,0.6350571013901107,B,531,Correct
2,relearn,77,550,B,81.95551757201441,55.00330097848717,4.097775878600721,0.8639898313860178,B,553,Correct
2,relearn,77,551,B,64.36274948510673,33.247397348469455,3.218137474255337,0.522248896304662,B,645,Correct
2,relearn,77,552,A,26.844834940929708,53.892481783528716,1.3422417470464854,0.8465411242742777,A,656,Correct
2,relearn,77,553,B,83.04104438552704,66.40153018446642,4.152052219276352,1.0430327970732032,B,536,Incorrect
2,relearn,77,554,B,48.075934018155344,38.816374928218636,2.403796700907767,0.6097261915673936,B,526,Correct
2,relearn,77,555,B,70.25231853782972,44.62813321591118,3.5126159268914865,0.7010170772726658,B,433,Correct
2,relearn,77,556,B,48.28252065173018,25.068966268568715,2.414126032586509,0.39378240131212894,100,315,Incorrect
2,relearn,77,557,B,66.49738653102116,54.41584821585009,3.3248693265510583,0.8547621449688595,B,608,Correct
2,relearn,77,558,B,85.88959234815187,63.60047807425286,4.2944796174075925,0.9990339734143576,A,711,Incorrect
2,relearn,77,559,B,35.76220455857148,15.345142007915861,1.788110227928574,0.24104092700180296,B,870,Correct
2,relearn,77,560,B,85.83941246811204,63.107553622925806,4.291970623405603,0.9912911342390383,A,1090,Correct
2,relearn,77,561,A,60.50208636252024,70.09874617618964,3.025104318126012,1.1011085300648649,107,834,Incorrect
2,relearn,77,562,B,85.65479801004724,58.23634574430437,4.282739900502362,0.9147743798111092,B,570,Correct
2,relearn,77,563,A,60.35678874619783,78.70846304149228,3.017839437309892,1.2363496463324795,B,337,Correct
2,relearn,77,564,A,66.91055861057889,85.69641873801766,3.3455279305289447,1.3461161977315548,A,506,Correct
2,relearn,77,565,A,11.14441363623244,35.59463221236314,0.557220681811622,0.5591191753279532,A,1596,Incorrect
2,relearn,77,566,A,54.27652416310542,71.63651630282286,2.713826208155271,1.1252637667285685,B,480,Correct
2,relearn,77,567,A,33.797912673645875,47.81499029882964,1.6898956336822937,0.7510761112713523,B,369,Correct
2,relearn,77,568,B,31.12203461784922,13.848088717350112,1.556101730892461,0.21752526890343407,B,388,Correct
2,relearn,77,569,B,78.30993662294574,65.16258384744683,3.9154968311472875,1.0235714735203394,B,413,Incorrect
2,relearn,77,570,A,32.519456269830314,43.85324470321044,1.6259728134915157,0.6888451569784072,B,480,Incorrect
2,relearn,77,571,A,41.763296440510416,73.70709512964966,2.088164822025521,1.157788342883757,B,413,Incorrect
2,relearn,77,572,A,33.341834245842975,42.07190853324653,1.6670917122921487,0.6608639938527452,B,512,Incorrect
2,relearn,77,573,B,85.34529501000222,56.48052569020031,4.267264750500111,0.8871940228961145,A,617,Incorrect
2,relearn,77,574,B,38.52247536279877,16.407218037967112,1.9261237681399388,0.2577239782696171,B,326,Incorrect
2,relearn,77,575,A,59.46202807460868,71.47696104748822,2.9731014037304337,1.1227574786385637,B,1392,Correct
2,relearn,77,576,A,36.06882679428422,54.29933790052253,1.803441339714211,0.852932005215357,B,442,Correct
2,relearn,77,577,B,71.7298659616552,49.16827087683924,3.5864932980827597,0.7723333928819555,B,566,Correct
2,relearn,77,578,A,41.240160668954275,56.04279211332635,2.0620080334477136,0.8803181199494304,B,500,Incorrect
2,relearn,77,579,B,65.14128172215793,37.87642019222987,3.2570640861078966,0.5949614171009473,B,344,Correct
2,relearn,77,580,B,57.40733836536796,39.12068028510318,2.8703669182683984,0.614506208935576,B,666,Incorrect
2,relearn,77,581,A,36.97116775559493,51.603822018985525,1.8485583877797465,0.8105909407600008,B,593,Incorrect
2,relearn,77,582,B,55.90117334815329,47.88978029737155,2.7950586674076647,0.7522509098212585,B,629,Incorrect
2,relearn,77,583,A,31.696287899446098,47.982968017077795,1.584814394972305,0.7537146990994281,B,362,Correct
2,relearn,77,584,A,47.35872018393082,79.02826263359019,2.367936009196541,1.2413730465782584,A,650,Correct
2,relearn,77,585,A,52.27566370498435,71.31497190446092,2.613783185249218,1.1202129591300847,A,487,Correct
2,relearn,77,586,A,35.97599036493088,58.81618544674927,1.798799518246544,0.9238824805584123,107,398,Incorrect
2,relearn,77,587,B,70.8278587829174,37.83016710812895,3.5413929391458705,0.5942348753548606,B,481,Correct
2,relearn,77,588,A,59.98860737291605,68.98271502155829,2.999430368645802,1.0835779536820291,B,595,Incorrect
2,relearn,77,589,A,38.01127709750902,53.48137463167379,1.9005638548754513,0.8400834682337496,A,820,Correct
2,relearn,77,590,B,41.52297556292212,22.31185969248436,2.076148778146106,0.35047387248917544,B,372,Incorrect
2,relearn,77,591,B,69.6961175973205,58.74920809590646,3.4848058798660246,0.9228304027915886,B,810,Correct
2,relearn,77,592,B,70.33164938205637,55.72806192096651,3.5165824691028185,0.8753743496485273,B,423,Correct
2,relearn,77,593,A,57.58791401160892,70.053507945081,2.8793957005804462,1.1003979295923032,A,1502,Correct
2,relearn,77,594,B,73.2534301052505,44.66745481188946,3.662671505262525,0.7016347394579299,B,484,Incorrect
2,relearn,77,595,A,55.81944915390256,80.22421775264691,2.790972457695128,1.2601590656585169,A,806,Incorrect
2,relearn,77,596,A,62.0357937034005,85.8217336324045,3.101789685170025,1.3480846394895103,B,1025,Incorrect
2,relearn,77,597,B,58.484071848721925,43.04199166037975,2.924203592436096,0.6761020239806108,B,552,Correct
2,relearn,77,598,B,73.22097264304114,50.953651455106154,3.661048632152057,0.8003780854246819,B,502,Incorrect
2,relearn,77,599,A,26.097191583534723,47.19002955367131,1.3048595791767361,0.741259250842495,107,747,Incorrect
2,relearn,77,600,B,68.12097880488452,57.99463306655731,3.406048940244226,0.9109775659476608,B,452,Correct
2,relearn,77,601,A,16.61531757969997,32.23372662458792,0.8307658789849984,0.5063261938081357,A,1047,Correct
2,relearn,77,602,A,55.78730280457654,78.39358815688276,2.789365140228827,1.2314036032110331,B,663,Incorrect
2,relearn,77,603,B,65.7980096822782,53.060441902252265,3.2899004841139106,0.8334714723817187,B,579,Correct
2,relearn,77,604,A,37.43232374157993,64.41940059559737,1.8716161870789962,1.0118975782989332,B,705,Incorrect
2,relearn,77,605,A,31.977482743432212,53.44034810572186,1.5988741371716104,0.8394390250710851,B,758,Incorrect
2,relearn,77,606,A,38.34539898048256,63.167125899858284,1.917269949024128,0.9922268933768817,B,593,Incorrect
2,relearn,77,607,A,54.88387364603362,81.24757727047295,2.744193682301681,1.2762339593744343,A,1169,Correct
2,relearn,77,608,B,44.33880918509037,19.89520299476725,2.2169404592545185,0.31251311785019226,B,632,Correct
2,relearn,77,609,A,41.79251720875867,65.6866755821494,2.0896258604379336,1.031803887238083,A,469,Correct
2,relearn,77,610,B,46.17306231162928,36.811221575893505,2.308653115581464,0.5782293163624657,B,609,Correct
2,relearn,77,611,B,51.248338645731984,36.32641409575655,2.5624169322865993,0.5706139782724473,B,509,Correct
2,relearn,77,612,A,47.29304005437632,58.124110376748945,2.364652002718816,0.9130113907801836,A,987,Correct
2,relearn,77,613,B,49.77506908571566,35.075532351403155,2.4887534542857828,0.5509651737795964,B,535,Correct
2,relearn,77,614,B,81.0116921893212,64.69577391416603,4.05058460946606,1.016238840235251,B,563,Correct
2,relearn,77,615,B,86.0026475527567,57.08905501016284,4.300132377637834,0.8967527791015557,B,472,Correct
2,relearn,77,616,A,33.1884971110458,64.47283649206304,1.65942485555229,1.0127369473978058,B,620,Incorrect
2,relearn,77,617,A,49.22836703449989,60.91951958528673,2.4614183517249946,0.9569215759467815,100,386,Incorrect
2,relearn,77,618,B,44.52506222485993,28.73095184944554,2.2262531112429964,0.4513047363043009,B,568,Correct
2,relearn,77,619,A,32.390677543417816,48.91832095525618,1.6195338771708907,0.7684071886949023,A,634,Correct
2,relearn,77,620,B,41.36554402392149,16.359979083562987,2.068277201196074,0.2569819505090208,B,388,Correct
2,relearn,77,621,B,55.33092811359099,38.47770025341434,2.76654640567955,0.6044063022157832,B,369,Correct
2,relearn,77,622,A,54.70955004443228,80.93246191880475,2.7354775022216136,1.2712841390052636,A,668,Correct
2,relearn,77,623,A,51.97802445406606,61.882385687486156,2.5989012227033026,0.9720462413120834,B,431,Incorrect
2,relearn,77,624,B,37.23872583426944,12.276601824624294,1.861936291713472,0.19284041051643364,B,390,Correct
2,relearn,77,625,A,27.983872008583067,55.56860798160534,1.3991936004291534,0.8728696530261124,A,392,Correct
2,relearn,77,626,B,57.7646705708503,26.24379203815918,2.8882335285425147,0.41223652134709593,B,391,Correct
2,relearn,77,627,A,45.98241428459941,62.33110814527631,2.29912071422997,0.9790947571965548,A,645,Correct
2,relearn,77,628,A,52.15018154436852,82.71558857688888,2.607509077218426,1.2992934270525496,A,745,Correct
2,relearn,77,629,B,72.19892799350268,42.20345459359582,3.609946399675134,0.6629303145367552,B,540,Correct
2,relearn,77,630,B,40.10922339423689,31.87080725975492,2.0054611697118445,0.5006254697561116,B,375,Correct
2,relearn,77,631,B,51.57611880602348,30.22086600443991,2.578805940301174,0.4747082531233497,B,365,Correct
2,relearn,77,632,A,52.742787506861426,80.8460967263193,2.6371393753430716,1.2699275177340728,A,813,Correct
2,relearn,77,633,A,38.73128554418257,53.59098353992538,1.9365642772091285,0.8418052009384054,B,339,Incorrect
2,relearn,77,634,A,13.535399308707852,35.35454787611708,0.6767699654353926,0.5553479393929902,A,651,Correct
2,relearn,77,635,B,61.2166630173185,28.476272503163266,3.0608331508659252,0.44730424248779377,B,479,Correct
2,relearn,77,636,B,47.32697431520084,32.39045252659271,2.3663487157600422,0.5087880385199631,B,475,Correct
2,relearn,77,637,A,41.91832576152548,49.16178523052404,2.095916288076274,0.7722315165878675,B,359,Incorrect
2,relearn,77,638,B,31.232375918518105,14.538731296300671,1.5616187959259054,0.22837385716487096,B,400,Correct
2,relearn,77,639,A,28.493445397475714,48.56694034747164,1.4246722698737857,0.762887715014753,B,417,Incorrect
2,relearn,77,640,A,35.64058758600354,46.769524190560375,1.782029379300177,0.734653968044773,B,455,Incorrect
2,relearn,77,641,B,59.25142399687985,37.65536327693787,2.9625711998439925,0.5914890631954145,B,398,Correct
2,relearn,77,642,B,48.28411840557808,22.80902373992427,2.414205920278904,0.3582833070845064,B,471,Correct
2,relearn,77,643,B,51.77778205135225,22.83255778197089,2.588889102567612,0.358652978952521,B,653,Correct
2,relearn,77,644,B,66.48735161741395,53.56255095998735,3.3243675808706974,0.8413585830171258,B,594,Correct
2,relearn,77,645,A,30.79455608143892,54.414533183636934,1.539727804071946,0.854741488491159,A,617,Correct
2,relearn,77,646,A,51.74640350970658,72.5444848859763,2.587320175485329,1.1395261038811946,B,326,Incorrect
2,relearn,77,647,A,59.79412221838386,81.11567606096156,2.989706110919193,1.2741620600204313,A,581,Correct
2,relearn,77,648,A,64.83696675839522,78.55967411147915,3.2418483379197607,1.234012475285156,B,453,Incorrect
2,relearn,77,649,B,78.45931787582252,60.3411566134663,3.922965893791126,0.9478366716298845,B,733,Correct
2,relearn,77,650,A,44.584243123566964,67.16344964742915,2.2292121561783484,1.055001000010557,A,762,Correct
2,relearn,77,651,A,35.22954646367043,52.23216150264928,1.7614773231835215,0.8204608742891929,B,961,Incorrect
2,relearn,77,652,A,57.74736344088042,84.502518005581,2.8873681720440207,1.3273624488808624,A,779,Correct
2,relearn,77,653,A,55.43192500518559,79.70382419221296,2.7715962502592792,1.2519847427263433,A,714,Correct
2,relearn,77,654,B,44.53895592520986,15.979811806402147,2.226947796260493,0.25101029688370213,B,452,Correct
2,relearn,77,655,A,40.92942787742365,53.70409114689517,2.0464713938711823,0.8435818910740126,B,672,Incorrect
2,relearn,77,656,A,26.851784304965157,50.5216607272856,1.3425892152482577,0.793592390939982,B,556,Incorrect
2,relearn,77,657,A,15.623882853374141,39.75355685902967,0.781194142668707,0.6244474109119588,A,734,Correct
2,relearn,77,658,A,55.611871415164956,75.24878174546961,2.780593570758248,1.1820050996157452,B,763,Incorrect
2,relearn,77,659,B,73.06618697534353,54.05792003390478,3.653309348767176,0.8491398222342987,B,772,Correct
2,relearn,77,660,B,36.29032991020454,24.86548217730291,1.814516495510227,0.3905860806809138,B,618,Correct
2,relearn,77,661,A,53.036007369663686,71.88986619605417,2.651800368483184,1.129243377545385,A,648,Correct
2,relearn,77,662,A,30.19918648206435,50.73623624210324,1.5099593241032176,0.7969629352449388,B,494,Incorrect
2,relearn,77,663,A,46.109366233897006,53.76484486638216,2.3054683116948502,0.8445362082681055,B,375,Incorrect
2,relearn,77,664,B,44.24081513872286,21.64564014165125,2.212040756936143,0.3400089202562994,A,309,Incorrect
2,relearn,77,665,A,37.6318715950552,48.01526934144874,1.88159357975276,0.7542220871161529,B,722,Incorrect
2,relearn,77,666,B,44.822400849612066,26.046389315537706,2.241120042480603,0.4091357266311647,B,538,Correct
2,relearn,77,667,B,55.91779997041894,36.22722759486655,2.795889998520947,0.5690559603597909,B,1053,Correct
2,relearn,77,668,B,69.1790689356373,49.37903243777902,3.458953446781865,0.7756440277394933,B,408,Correct
2,relearn,77,669,B,73.77244480069358,60.00569418788896,3.688622240034679,0.9425672401711386,B,520,Correct
2,relearn,77,670,A,42.8152979927211,55.973069221070325,2.140764899636055,0.8792229153189374,100,726,Incorrect
2,relearn,77,671,A,50.32443041589168,79.4305812894587,2.516221520794584,1.2476926532466515,A,552,Correct
2,relearn,77,672,A,21.24860294251184,47.58883249730573,1.062430147125592,0.7475236328322544,A,538,Correct
2,relearn,77,673,A,23.592965379937805,44.577737690557086,1.1796482689968903,0.7002254662115348,A,532,Correct
2,relearn,77,674,A,45.75930596337108,68.84540926865142,2.2879652981685537,1.0814211599588899,A,849,Correct
2,relearn,77,675,B,62.79203155329063,47.3141142899908,3.139601577664531,0.7432083693227148,A,683,Incorrect
2,relearn,77,676,A,49.587846408686524,62.35540662312411,2.479392320434326,0.9794764367940553,A,766,Correct
2,relearn,77,677,B,73.58446822982901,48.48992651567046,3.6792234114914506,0.7616779845736962,B,666,Correct
2,relearn,77,678,A,23.5434689219407,37.59613490447874,1.1771734460970351,0.590558706096406,B,619,Incorrect
2,relearn,77,679,B,70.2837706478845,43.25498221389465,3.5141885323942246,0.679447671771643,B,427,Correct
2,relearn,77,680,A,40.00974796785611,62.8108754609245,2.000487398392805,0.986630924567919,A,1114,Correct
2,relearn,77,681,A,49.259713283592006,77.92372017981486,2.4629856641796004,1.2240229342864652,A,691,Correct
2,relearn,77,682,A,17.057943839875954,39.75757928335051,0.8528971919937977,0.6245105950054386,A,785,Correct
2,relearn,77,683,B,72.06758793486732,49.68260679351177,3.603379396743366,0.7804125625684346,B,528,Correct
2,relearn,77,684,A,37.718812664439625,59.33196959417555,1.885940633221981,0.9319843990003744,B,451,Incorrect
2,relearn,77,685,B,65.93866679222272,35.02111800324931,3.2969333396111358,0.5501104351975464,B,522,Correct
2,relearn,77,686,B,40.002825027496584,20.014050891382958,2.000141251374829,0.31437997624470476,B,701,Correct
2,relearn,77,687,B,68.51409236634728,40.8048422315268,3.4257046183173645,0.6409609629272757,B,402,Correct
2,relearn,77,688,B,83.40115811792658,68.57647233151069,4.170057905896329,1.0771967084288885,A,877,Incorrect
2,relearn,77,689,B,82.21056184728297,51.274474470768794,4.110528092364149,0.8054175615702234,B,638,Correct
2,relearn,77,690,A,38.555451318049066,45.96691264982106,1.9277725659024532,0.7220465754444078,B,860,Incorrect
2,relearn,77,691,B,65.2682098428975,55.42582386581245,3.263410492144875,0.870626805379991,B,508,Correct
2,relearn,77,692,A,18.49089884687362,45.395306461672945,0.924544942343681,0.713067806437245,A,754,Correct
2,relearn,77,693,A,28.697490716911044,42.87870758398261,1.4348745358455524,0.6735371637063235,B,602,Incorrect
2,relearn,77,694,A,33.66370283938865,48.78602801268434,1.6831851419694324,0.7663291360123748,B,496,Incorrect
2,relearn,77,695,A,50.42213052099441,76.58633736592941,2.5211065260497203,1.2030153741707665,107,866,Correct
2,relearn,77,696,B,65.19027050255112,40.02314738657574,3.2595135251275558,0.6286821290160393,B,425,Correct
2,relearn,77,697,B,62.0007375212322,32.4126509917211,3.10003687606161,0.5091367311948047,B,472,Correct
2,relearn,77,698,A,48.56390165545162,58.8642560909104,2.428195082772581,0.9246375724711619,B,551,Incorrect
2,relearn,77,699,B,79.2020200667162,53.803770401387055,3.96010100333581,0.8451476491421476,B,1473,Correct
2,relearn,77,700,B,60.98416226285234,31.86949745661239,3.049208113142617,0.5006048954164604,B,558,Correct
2,relearn,77,701,A,15.092341393160844,44.75395700832422,0.7546170696580421,0.7029935127821241,A,1366,Correct
2,relearn,77,702,A,48.38806722301776,79.56593686333404,2.419403361150888,1.2498188136291977,A,1084,Correct
2,relearn,77,703,B,87.61992590679415,61.45914351970215,4.380996295339708,0.9653979688870851,B,482,Correct
2,relearn,77,704,B,83.91099438440457,61.80849036392506,4.195549719220229,0.9708854962839125,B,359,Correct
2,relearn,77,705,B,78.08677875760829,57.44683700802912,3.9043389378804143,0.9023728055819729,B,480,Correct
2,relearn,77,706,A,57.86672563220718,74.89978072263509,2.893336281610359,1.176523004368584,A,743,Correct
2,relearn,77,707,A,35.163665272346215,54.966953263133774,1.7581832636173107,0.8634188828083729,B,749,Incorrect
2,relearn,77,708,B,35.93921581795159,19.934321290873317,1.7969607908975798,0.31312758660853107,B,755,Correct
2,relearn,77,709,A,36.4559232736018,44.4681496506866,1.8227961636800898,0.6985040613066427,A,679,Correct
2,relearn,77,710,A,49.345126770476,80.43907584508544,2.4672563385238,1.263534048682363,A,978,Correct
2,relearn,77,711,B,63.276813582806355,45.376377223070925,3.1638406791403177,0.7127704666525941,B,759,Correct
2,relearn,77,712,B,52.06665671760443,30.271294441796723,2.6033328358802215,0.4755003811650106,B,593,Correct
2,relearn,77,713,A,43.02975144189293,65.7293068016038,2.1514875720946463,1.0324735368673406,B,701,Incorrect
2,relearn,77,714,A,31.53914837365926,61.97304463759625,1.576957418682963,0.9734703087703237,B,576,Incorrect
2,relearn,77,715,A,39.77213542603473,47.97635485779764,1.9886067713017366,0.7536108198363701,B,545,Incorrect
2,relearn,77,716,A,56.005723370154854,65.66172381258885,2.8002861685077427,1.0314119457583555,B,658,Incorrect
2,relearn,77,717,B,74.2670015719598,54.8039862360617,3.7133500785979896,0.860859002733238,B,476,Correct
2,relearn,77,718,B,70.0619079524985,48.417929422290555,3.5030953976249246,0.7605470568754853,B,575,Correct
2,relearn,77,719,A,24.765695805460922,53.68400512338533,1.238284790273046,0.8432663805545209,A,650,Correct
2,relearn,77,720,B,66.3154634118739,35.029331097392344,3.3157731705936953,0.5502394461786614,B,492,Correct
2,relearn,77,721,B,55.64648230383878,36.79848317736695,2.7823241151919387,0.5780292220663179,B,723,Correct
2,relearn,77,722,B,85.69063093821413,61.569522418471244,4.284531546910706,0.9671317965745068,B,756,Correct
2,relearn,77,723,A,43.59319902282034,58.626123886618984,2.179659951141017,0.9208970005532364,100,720,Incorrect
2,relearn,77,724,B,62.8366638631646,48.99134836592171,3.1418331931582304,0.7695543005791898,B,753,Correct
2,relearn,77,725,A,27.86578808641903,42.26494179386034,1.3932894043209516,0.6638961532199592,A,950,Correct
2,relearn,77,726,A,30.13040109839943,61.71813543825503,1.5065200549199715,0.9694662044304094,B,339,Incorrect
2,relearn,77,727,A,26.16823157674518,58.15664312969201,1.3084115788372588,0.9135224140684187,B,369,Incorrect
2,relearn,77,728,A,55.93712859754871,71.60317807262774,2.7968564298774354,1.1247400910332455,B,581,Incorrect
2,relearn,77,729,A,68.86772180478343,85.1108680794836,3.443386090239171,1.3369183894957783,A,657,Correct
2,relearn,77,730,B,50.90378245266915,31.9974490210546,2.5451891226334573,0.5026147538907952,B,515,Correct
2,relearn,77,731,A,49.60509803954391,69.75694573159288,2.4802549019771956,1.0957395412361703,A,545,Correct
2,relearn,77,732,B,63.42665196005592,50.67747715629119,3.1713325980027958,0.7960399496833448,B,926,Correct
2,relearn,77,733,B,51.40512832547916,33.23986787142221,2.570256416273958,0.5221306235557771,B,541,Correct
2,relearn,77,734,A,51.59167552144636,62.52535464411823,2.579583776072318,0.9821459740652916,B,581,Incorrect
2,relearn,77,735,B,42.31219784718812,23.140948226047335,2.115609892359406,0.3634971647202603,B,453,Correct
2,relearn,77,736,B,45.55808763098262,32.09045951012221,2.277904381549131,0.5040757592366032,B,419,Correct
2,relearn,77,737,A,57.41837140034238,84.44107537512015,2.870918570017119,1.3263973102984974,A,624,Correct
2,relearn,77,738,B,81.78284666629979,55.441950843227765,4.08914233331499,0.8708801273488539,B,630,Correct
2,relearn,77,739,B,81.8199947754195,62.02608024691791,4.090999738770975,0.9743033901734413,B,859,Correct
2,relearn,77,740,A,49.54945893844708,72.40587906671783,2.477472946922354,1.1373488887635586,A,814,Correct
2,relearn,77,741,B,71.33901359664384,53.78148324909668,3.5669506798321917,0.8447975633726234,B,750,Correct
2,relearn,77,742,A,37.742148396001475,51.89711721134377,1.887107419800074,0.81519801086823,A,1438,Correct
2,relearn,77,743,A,31.802034009610132,44.35706528655111,1.5901017004805067,0.696759152195159,A,764,Correct
2,relearn,77,744,A,43.04563729465627,71.70976642220161,2.1522818647328132,1.1264143769131432,A,793,Correct
2,relearn,77,745,B,50.21427144119241,25.128123001434663,2.5107135720596205,0.39471163309903917,B,432,Correct
2,relearn,77,746,A,30.519003573334786,43.48829523017497,1.525950178666739,0.6831125440613087,B,800,Incorrect
2,relearn,77,747,B,48.37753725555909,27.015771770578894,2.418876862777955,0.4243627506275459,B,678,Correct
2,relearn,77,748,B,54.622540694248855,24.240800319421528,2.731127034712443,0.38077360100315893,B,416,Correct
2,relearn,77,749,B,86.92493827595835,68.79840794833106,4.346246913797918,1.0806828649457525,107,1072,Incorrect
2,relearn,77,750,A,50.70950635022786,63.150434060959995,2.535475317511393,0.9919646985845928,B,1034,Incorrect
2,relearn,77,751,A,52.74164009965468,81.29859763208862,2.637082004982734,1.277035385340611,A,558,Correct
2,relearn,77,752,A,59.30430244763171,86.89491790794504,2.9652151223815855,1.3649421786694416,A,654,Correct
2,relearn,77,753,B,80.30457042950616,50.6635641952745,4.015228521475308,0.7958214054027464,B,458,Correct
2,relearn,77,754,A,40.967003327477386,61.05724765652365,2.0483501663738695,0.9590850034307365,B,2383,Incorrect
2,relearn,77,755,A,46.34346764044285,64.31703755155088,2.3171733820221423,1.0102896633630556,B,443,Incorrect
2,relearn,77,756,B,77.40401683732813,49.06376787851494,3.8702008418664064,0.770691863622887,B,557,Correct
2,relearn,77,757,A,17.101595305127177,38.04311712206866,0.8550797652563589,0.5975798863517349,A,558,Correct
2,relearn,77,758,A,42.535188372237755,58.215841190367854,2.126759418611888,0.9144522950310486,B,619,Incorrect
2,relearn,77,759,B,52.96612736530593,42.23472161769851,2.6483063682652968,0.6634214558028584,B,399,Correct
2,relearn,77,760,B,75.3699828092423,49.55739254449876,3.768499140462115,0.7784457017443145,B,652,Correct
2,relearn,77,761,B,57.90320729925315,43.18217660640259,2.895160364962657,0.6783040439634571,B,406,Correct
2,relearn,77,762,B,70.61540750009637,46.48968682389872,3.5307703750048183,0.7302582929682522,B,414,Correct
2,relearn,77,763,B,73.31418547312568,43.79040419604486,3.665709273656284,0.6878580606001109,B,429,Correct
2,relearn,77,764,A,58.55123154759127,73.04723285981082,2.9275615773795636,1.1474232505872228,100,759,Incorrect
2,relearn,77,765,A,24.487326840827528,36.80314144254605,1.2243663420413764,0.5781023939246437,B,743,Incorrect
2,relearn,77,766,A,16.705373382014812,46.004258988494996,0.8352686691007406,0.7226332103604903,A,549,Correct
2,relearn,77,767,B,60.75514239773307,32.141970702564905,3.037757119886653,0.5048848951553814,B,401,Correct
2,relearn,77,768,B,53.49248810523157,42.310051716934126,2.6746244052615786,0.6646047382346224,B,597,Correct
2,relearn,77,769,A,55.01971514140771,79.33789461018547,2.7509857570703855,1.2462367342931997,100,451,Incorrect
2,relearn,77,770,A,54.932081888469945,63.690890238957486,2.746604094423497,1.0004541643765135,100,521,Incorrect
2,relearn,77,771,B,50.367973369927654,20.618822729806844,2.5183986684963826,0.3238797100681571,B,367,Correct
2,relearn,77,772,A,38.45961140528652,58.01540507943991,1.9229805702643261,0.911303851963022,A,558,Correct
2,relearn,77,773,B,42.232583800611216,32.91509657945677,2.111629190030561,0.5170291280310996,B,460,Correct
2,relearn,77,774,B,88.63321094941375,63.0137809427666,4.431660547470687,0.9898181564235603,B,722,Correct
2,relearn,77,775,A,41.36303995869425,67.18328173933688,2.0681519979347125,1.0553125217817703,A,770,Correct
2,relearn,77,776,B,40.7989433536073,19.946530573728435,2.039947167680365,0.3133193695751472,B,359,Correct
2,relearn,77,777,A,54.749694326559805,74.43955913989052,2.73748471632799,1.169293860651715,A,1445,Correct
2,relearn,77,778,B,44.846771305881525,34.09407224681432,2.242338565294076,0.5355484345077576,B,661,Correct
2,relearn,77,779,B,51.026425622950285,38.074393461684586,2.5513212811475143,0.5980711739455777,B,863,Correct
2,relearn,77,780,A,31.59557369255385,46.614971792260455,1.5797786846276924,0.7322262646493044,A,930,Correct
2,relearn,77,781,B,87.88100219731137,64.98721992091146,4.394050109865569,1.0208168634037984,B,458,Correct
2,relearn,77,782,B,51.60084871785419,20.43704781106519,2.5800424358927097,0.32102439632152885,B,510,Correct
2,relearn,77,783,B,33.07245200980424,18.55252181322354,1.653622600490212,0.29142233116993727,B,517,Correct
2,relearn,77,784,A,60.6593814285238,77.4793785479592,3.0329690714261903,1.2170432322548561,A,777,Correct
2,relearn,77,785,B,85.09546557028749,65.20301215017778,4.254773278514374,1.0242065198146226,B,765,Correct
2,relearn,77,786,A,25.18241788773456,40.79246943275205,1.259120894386728,0.6407666114586001,A,456,Correct
2,relearn,77,787,B,66.10372956553596,39.91894785910527,3.3051864782767977,0.6270453666659956,B,650,Correct
2,relearn,77,788,A,60.47875313184669,82.41556658308988,3.0239376565923344,1.294580692594378,A,2179,Correct
2,relearn,77,789,B,42.453779781031756,20.235443767536506,2.122688989051588,0.31785760741111024,B,671,Correct
2,relearn,77,790,A,22.835308283457092,53.20327004927926,1.1417654141728546,0.8357150116688479,A,776,Correct
2,relearn,77,791,A,31.381610233128345,55.47850573416738,1.5690805116564173,0.8714543302329971,B,514,Incorrect
2,relearn,77,792,B,38.57262733517383,21.83995418766075,1.9286313667586912,0.3430611981534633,B,528,Correct
2,relearn,77,793,A,59.88671509839368,71.50757374096207,2.9943357549196836,1.1232383417031844,A,716,Correct
2,relearn,77,794,A,48.83003468473761,59.2687858836442,2.4415017342368803,0.9309919115962153,A,1145,Correct
2,relearn,77,795,B,71.14285965076627,54.81185812217778,3.557142982538313,0.8609826540311987,B,520,Correct
2,relearn,77,796,A,52.982187122243644,82.73669813459739,2.6491093561121826,1.2996250152096376,A,659,Correct
2,relearn,77,797,A,38.95600259628901,68.96090569296226,1.9478001298144505,1.0832353735495437,A,775,Correct
2,relearn,77,798,A,44.6235505803486,59.44225377926227,2.23117752901743,0.9337167389287525,A,580,Correct
2,relearn,77,799,A,19.430419814171362,40.788918554119434,0.971520990708568,0.6407108343874701,B,478,Incorrect
2,relearn,77,800,B,38.15015344625672,28.986653021256878,1.907507672312836,0.4553212809186849,B,409,Correct
2,relearn,77,801,B,47.52524352508257,38.71969626250222,2.3762621762541287,0.6082075666375257,B,623,Correct
2,relearn,77,802,B,88.14250965456444,67.62414151509088,4.407125482728222,1.0622375309456302,B,889,Correct
2,relearn,77,803,A,48.4222868827553,74.42004120244862,2.421114344137765,1.1689872736073115,100,356,Incorrect
2,relearn,77,804,B,87.8482187079866,63.205536723023506,4.3924109353993295,0.9928302491762527,A,669,Incorrect
2,relearn,77,805,A,25.011638707523765,39.43585316759225,1.2505819353761882,0.619456932996768,B,763,Incorrect
2,relearn,77,806,A,19.828814463244075,40.127878185852936,0.9914407231622038,0.6303272365641084,A,986,Correct
2,relearn,77,807,A,36.87315516964824,52.79286245359835,1.843657758482412,0.829268344231005,A,489,Correct
2,relearn,77,808,B,74.67770412224164,42.983210627981904,3.7338852061120815,0.6751786936828533,B,607,Correct
2,relearn,77,809,B,74.76604475254678,45.36212499139979,3.738302237627339,0.7125465931210176,B,1558,Correct
2,relearn,77,810,A,46.42018782831715,74.710615990399,2.3210093914158576,1.1735516117030282,B,1324,Incorrect
2,relearn,77,811,B,62.473891571083186,49.18134448871139,3.123694578554159,0.7725387526970228,B,559,Correct
2,relearn,77,812,B,65.90247845399745,53.91428356500147,3.2951239226998723,0.8468835858568278,B,489,Correct
2,relearn,77,813,A,51.02395840249465,66.4324136272688,2.5511979201247326,1.0435179130583305,A,645,Correct
2,relearn,77,814,B,54.13411145605088,33.10070964179311,2.706705572802544,0.5199447311963302,B,1181,Correct
2,relearn,77,815,A,57.99574991301678,85.31825714694125,2.899787495650839,1.3401760493495776,A,709,Correct
2,relearn,77,816,A,18.51629205951088,46.73360743974855,0.925814602975544,0.7340897890423166,A,1466,Correct
2,relearn,77,817,A,39.75287520152203,59.94984923105409,1.9876437600761017,0.9416900296404762,A,879,Correct
2,relearn,77,818,B,45.21046368313063,26.45795443278018,2.2605231841565314,0.41560057637517855,B,628,Correct
2,relearn,77,819,B,58.49709326605467,31.557263744045418,2.9248546633027335,0.4957003397284431,B,448,Correct
2,relearn,77,820,A,21.20813289526618,40.68146635829466,1.060406644763309,0.639022979242394,A,614,Correct
2,relearn,77,821,B,33.90318923991928,20.61564958574757,1.6951594619959638,0.3238298664378301,B,508,Correct
2,relearn,77,822,A,55.72044804990541,67.7967673606571,2.7860224024952704,1.064949131386883,A,779,Correct
2,relearn,77,823,B,61.60140291824966,38.11477041863492,3.080070145912483,0.5987054137022252,B,341,Correct
2,relearn,77,824,A,42.508614526423706,66.73954525556496,2.1254307263211856,1.0483423253940318,A,599,Correct
2,relearn,77,825,B,70.19333079038486,43.18650312587577,3.509666539519243,0.6783720047724197,B,409,Correct
2,relearn,77,826,A,59.662311844487945,82.70631798017068,2.9831155922243973,1.2991478048598282,A,616,Correct
2,relearn,77,827,B,50.570181148334015,26.9289712503561,2.528509057416701,0.42299929124424734,B,528,Correct
2,relearn,77,828,A,35.04470592887808,44.152451026864725,1.7522352964439039,0.6935450789199067,A,503,Correct
2,relearn,77,829,A,25.84499009040032,55.38204215934739,1.292249504520016,0.8699390839430298,A,775,Correct
2,relearn,77,830,A,65.60224961161336,84.8688778635937,3.280112480580668,1.3331172160733766,A,856,Correct
2,relearn,77,831,A,14.839841334162976,40.34797865000578,0.7419920667081488,0.6337845665702798,A,638,Correct
2,relearn,77,832,A,26.427309459700602,49.36414480609078,1.3213654729850302,0.7754101733677875,A,964,Correct
2,relearn,77,833,B,79.73970636414599,54.625162442595894,3.9869853182072994,0.8580500451540416,B,808,Correct
2,relearn,77,834,B,45.93790964474427,27.834079190488296,2.296895482237214,0.4372166935213728,B,482,Correct
2,relearn,77,835,A,32.26753271649919,51.85120954634711,1.6133766358249597,0.8144768949527451,A,541,Correct
2,relearn,77,836,B,76.27079435218506,58.59942159751846,3.8135397176092534,0.9204775619768751,B,563,Correct
2,relearn,77,837,A,16.415943036545432,34.08498810404781,0.8207971518272715,0.5354057411268605,A,964,Correct
2,relearn,77,838,A,54.904816328501234,66.065736121688,2.7452408164250617,1.0377581562694842,B,1165,Incorrect
2,relearn,77,839,B,71.02231394957414,54.54412275441237,3.551115697478707,0.8567770767088089,B,583,Correct
2,relearn,77,840,A,26.25642856310322,45.28028460177184,1.312821428155161,0.7112610472869073,A,742,Correct
2,relearn,77,841,B,31.704807490894783,16.0518545912666,1.5852403745447392,0.25214194230207376,B,409,Correct
2,relearn,77,842,A,38.97137333408332,51.551406911609845,1.948568666704166,0.8097676061786578,B,437,Incorrect
2,relearn,77,843,A,57.594978119827346,82.53251000436339,2.8797489059913675,1.2964176355601706,A,741,Correct
2,relearn,77,844,A,35.528086984860295,49.82583809247352,1.7764043492430148,0.7826624345513465,B,556,Incorrect
2,relearn,77,845,B,61.738747869756175,31.05262991160876,3.086937393487809,0.48777357002476374,B,488,Correct
2,relearn,77,846,A,56.24615981277081,81.58713083004211,2.8123079906385406,1.281567654215648,A,570,Correct
2,relearn,77,847,A,41.73428375769133,48.96363497689048,2.0867141878845668,0.7691189796822571,B,855,Incorrect
2,relearn,77,848,B,81.23185307417494,62.22878232614272,4.061592653708747,0.9774874269882418,A,837,Incorrect
2,relearn,77,849,B,41.74382067614059,20.032087213957094,2.0871910338070294,0.3146632901371882,B,426,Correct
2,relearn,77,850,A,53.59758110211227,78.12792298938456,2.6798790551056135,1.227230544518398,A,581,Correct
2,relearn,77,851,A,58.52003897992734,82.79664856737243,2.926001948996367,1.3005667144055655,A,632,Correct
2,relearn,77,852,B,82.88805631376445,57.68417059636527,4.144402815688222,0.9061008328698075,B,596,Correct
2,relearn,77,853,B,66.55700490776927,44.462669942213616,3.3278502453884635,0.6984179862472301,B,463,Correct
2,relearn,77,854,B,64.30842181276785,51.985125296504044,3.2154210906383924,0.8165804386372102,B,338,Correct
2,relearn,77,855,B,47.583259106702286,26.446231812422944,2.379162955335114,0.41541643788520294,A,931,Incorrect
2,relearn,77,856,B,61.868608635164094,44.46992269474551,3.093430431758205,0.6985319122175926,B,349,Correct
2,relearn,77,857,B,61.78189920448264,30.82045734674292,3.0890949602241324,0.4841266119040256,B,495,Correct
2,relearn,77,858,B,71.98017466138604,49.99368346163139,3.5990087330693026,0.7852989434447736,B,770,Correct
2,relearn,77,859,B,59.97924254543928,30.106650893727675,2.9989621272719638,0.4729141663596373,B,749,Correct
2,relearn,77,860,B,51.79277156363513,39.485976347131114,2.5896385781817566,0.6202442660598372,B,424,Correct
2,relearn,77,861,B,47.587186414570404,22.1127565946172,2.37935932072852,0.3473463683413432,B,480,Correct
2,relearn,77,862,A,39.0974358361173,66.68363452849128,1.9548717918058651,1.0474640817468746,A,559,Correct
2,relearn,77,863,B,83.29674127491299,60.78726340000718,4.164837063745649,0.9548441006464513,B,785,Correct
2,relearn,77,864,B,36.08395033318128,15.67068068657586,1.804197516659064,0.24615447660849088,B,854,Correct
2,relearn,77,865,A,34.02893799244121,59.34173810014198,1.7014468996220602,0.9321378423332779,B,494,Incorrect
2,relearn,77,866,A,58.097921953796856,85.19048063672155,2.904896097689843,1.3381689406205397,A,667,Correct
2,relearn,77,867,A,53.912533850179265,62.11456758754655,2.695626692508963,0.9756933460697146,B,544,Incorrect
2,relearn,77,868,B,57.906095523323785,34.613690225998475,2.895304776166189,0.5437105746381482,B,484,Correct
2,relearn,77,869,A,35.760508547575796,59.61433896983724,1.7880254273787899,0.936419846781262,A,575,Correct
2,relearn,77,870,A,19.576631775926764,43.56893897621146,0.9788315887963381,0.6843792930618396,A,625,Correct
2,relearn,77,871,B,56.692615064825965,39.728100236169844,2.834630753241298,0.6240475392151504,B,514,Correct
2,relearn,77,872,A,37.92754400879696,46.11977249916847,1.8963772004398478,0.7244476923431011,B,434,Incorrect
2,relearn,77,873,B,70.25043127661768,53.54081656699742,3.5125215638308838,0.8410171799703889,B,369,Correct
2,relearn,77,874,B,47.098908822855805,19.185560126748495,2.35494544114279,0.30136607374599167,B,673,Correct
2,relearn,77,875,A,49.08992274145193,60.46699312873933,2.454496137072596,0.94981330698956,B,1361,Incorrect
2,relearn,77,876,A,34.20773128166739,52.46322610919291,1.7103865640833698,0.8240904286413036,B,481,Incorrect
2,relearn,77,877,A,35.77969517388703,57.99449672382774,1.7889847586943515,0.9109754242810726,A,411,Correct
2,relearn,77,878,A,42.85936967392332,65.6508922074369,2.142968483696166,1.0312418033024957,B,483,Incorrect
2,relearn,77,879,A,32.28754806452558,58.83786937014195,1.6143774032262792,0.9242230908305694,A,684,Correct
2,relearn,77,880,A,56.74822564938363,82.9910075966593,2.8374112824691817,1.303619698898398,A,855,Correct
2,relearn,77,881,A,48.77572372899442,70.58256258264278,2.438786186449721,1.1087083004058618,A,361,Correct
2,relearn,77,882,A,32.893617084591,54.179861856228484,1.64468085422955,0.8510552799001861,A,464,Correct
2,relearn,77,883,A,19.504848182614463,36.52452148083833,0.9752424091307232,0.5737258418004215,A,503,Correct
2,relearn,77,884,B,67.05792190058648,47.334561135029695,3.3528960950293243,0.7435295476135312,B,735,Correct
2,relearn,77,885,A,41.659186572870276,63.98752416467215,2.082959328643514,1.005113679185667,B,783,Incorrect
2,relearn,77,886,A,54.13346334808918,68.72145301981169,2.706673167404459,1.0794740597552825,B,841,Incorrect
2,relearn,77,887,A,15.547797336565036,33.31827569256967,0.7773898668282518,0.5233622507302813,A,583,Correct
2,relearn,77,888,B,74.6856689918224,60.69359164241851,3.73428344959112,0.9533727081190044,B,510,Correct
2,relearn,77,889,B,71.14324884366071,56.285815367656866,3.557162442183036,0.8841355203017115,B,472,Correct
2,relearn,77,890,A,30.912256684781166,59.1852184452356,1.5456128342390583,0.9296792373432963,A,600,Correct
2,relearn,77,891,A,46.7011622459559,61.71316362588986,2.335058112297795,0.9693881073844022,B,324,Incorrect
2,relearn,77,892,B,33.3637693911603,19.630215960689675,1.668188469558015,0.3083507112524189,B,476,Correct
2,relearn,77,893,A,18.026787848922105,48.57161019069747,0.9013393924461053,0.7629610687406115,A,661,Correct
2,relearn,77,894,A,26.374052343822974,41.62456386799355,1.3187026171911487,0.6538371202828385,A,620,Correct
2,relearn,77,895,A,55.78687912929033,66.39336684042038,2.7893439564645166,1.0429045675647843,B,440,Incorrect
2,relearn,77,896,B,42.54406700117854,23.53822878773618,2.127203350058927,0.3697376331903389,B,469,Correct
2,relearn,77,897,A,26.015553137843,48.813142914206956,1.30077765689215,0.7667550558895062,A,621,Correct
2,relearn,77,898,B,77.64998447704451,54.59790058343732,3.882499223852226,0.8576218168717628,B,380,Correct
