experiment,condition,subject,trial,cat,x,y,xt,yt,resp,rt,fb
2,new_learn,62,0,A,22.457457506188046,50.79265618016351,1.1228728753094024,0.7978491775595695,B,16010,Incorrect
2,new_learn,62,1,A,50.87208788636404,76.65757725572482,2.5436043943182023,1.2041344077428855,B,2037,Incorrect
2,new_learn,62,2,B,53.57073486762389,37.142591653668276,2.6785367433811946,0.5834344653722492,A,7557,Incorrect
2,new_learn,62,3,B,76.04227344022084,43.50435129825853,3.802113672011042,0.6833647521889928,B,3180,Correct
2,new_learn,62,4,B,67.74524503729022,55.67790989870584,3.387262251864511,0.8745865635250435,A,3695,Incorrect
2,new_learn,62,5,A,11.414710278822518,32.101297452546234,0.5707355139411259,0.5042460012380999,B,3504,Incorrect
2,new_learn,62,6,A,42.48368226804853,66.90682468720749,2.1241841134024266,1.0509699445617562,B,5659,Incorrect
2,new_learn,62,7,A,17.39355367566146,37.268160474462505,0.8696776837830731,0.5854068957968845,B,14782,Incorrect
2,new_learn,62,8,A,56.64040362009202,82.64997914371293,2.832020181004601,1.2982628364861908,B,2531,Incorrect
2,new_learn,62,9,B,60.49768166221074,33.96996353963869,3.0248840831105372,0.5335989394942101,A,1114,Incorrect
2,new_learn,62,10,A,32.5494572446484,50.086596634609805,1.6274728622324202,0.7867584201530271,A,2006,Correct
2,new_learn,62,11,B,63.753953259173876,42.554111662238576,3.1876976629586937,0.6684384228906423,A,1011,Incorrect
2,new_learn,62,12,B,75.12427053456203,49.30592051845402,3.7562135267281014,0.7744955883962868,B,1905,Correct
2,new_learn,62,13,B,48.86559273899434,24.882952140297494,2.443279636949717,0.39086049821792507,A,951,Incorrect
2,new_learn,62,14,B,65.68512617458425,40.685549920057554,3.2842563087292125,0.6390871236805681,B,4026,Correct
2,new_learn,62,15,B,65.20079502435945,42.41504633402507,3.260039751217972,0.6662539898232193,A,7010,Incorrect
2,new_learn,62,16,B,36.615393352658096,22.605036244948543,1.8307696676329046,0.35507907900630675,B,1473,Correct
2,new_learn,62,17,B,61.830864520611144,50.18401493336275,3.0915432260305575,0.7882886632114645,B,1632,Correct
2,new_learn,62,18,A,18.860624570442855,44.273870782928654,0.9430312285221427,0.6954523359881623,B,729,Incorrect
2,new_learn,62,19,A,47.80528629075499,61.61578716273927,2.39026431453775,0.9678585214780698,B,2299,Incorrect
2,new_learn,62,20,B,51.72001590583149,22.182341275655766,2.5860007952915742,0.348439401955109,B,1039,Correct
2,new_learn,62,21,A,23.692906227065798,45.81051945042958,1.18464531135329,0.7195899568130095,A,5058,Correct
2,new_learn,62,22,B,46.32691375602113,33.73101212480797,2.316345687801056,0.5298454994472248,B,1220,Correct
2,new_learn,62,23,A,31.954499500922346,41.151505303634686,1.597724975046117,0.6464063337303008,B,1140,Incorrect
2,new_learn,62,24,A,40.865465342168314,57.68734205861236,2.0432732671084155,0.9061506500822905,B,1740,Incorrect
2,new_learn,62,25,A,63.039757200095366,77.25877332929974,3.1519878600047684,1.2135779735834358,A,1488,Correct
2,new_learn,62,26,B,88.90914952137916,63.21831707209448,4.445457476068958,0.9930310024300111,A,988,Incorrect
2,new_learn,62,27,A,62.59191378329002,88.34391558788982,3.129595689164501,1.3877029810013575,B,1408,Incorrect
2,new_learn,62,28,A,58.47393957025443,78.47530776178456,2.923696978512721,1.2326872517631022,B,2051,Incorrect
2,new_learn,62,29,B,69.3000359618876,40.55809983025577,3.46500179809438,0.6370851423514649,A,1099,Incorrect
2,new_learn,62,30,B,36.61548698262804,13.699216129905682,1.8307743491314021,0.21518678376825248,A,1406,Incorrect
2,new_learn,62,31,B,84.37763270647586,56.73384974876203,4.218881635323793,0.8911732279028897,B,1087,Correct
2,new_learn,62,32,B,51.16761555575215,24.605585049610795,2.5583807777876073,0.3865036261456807,B,5379,Correct
2,new_learn,62,33,B,63.57838985791233,38.751146537234526,3.1789194928956164,0.6087015863977877,B,1786,Correct
2,new_learn,62,34,B,55.50080245897697,32.23556309473213,2.775040122948848,0.5063550410137037,A,2563,Incorrect
2,new_learn,62,35,B,82.50856323444779,52.3297697914476,4.12542816172239,0.8219941017042843,A,1070,Incorrect
2,new_learn,62,36,A,39.45872220859077,47.49159323082229,1.9729361104295384,0.7459962020061303,A,1459,Correct
2,new_learn,62,37,A,31.847359396032793,42.46830431747625,1.5923679698016397,0.6670905642709954,B,1511,Incorrect
2,new_learn,62,38,B,37.301215781922274,20.186944269095733,1.8650607890961137,0.31709577907108866,B,867,Correct
2,new_learn,62,39,A,31.98961058095852,61.30489704672414,1.5994805290479261,0.9629750709553359,A,806,Correct
2,new_learn,62,40,B,80.98422198485873,50.51635333409047,4.049211099242936,0.7935090226026245,B,841,Correct
2,new_learn,62,41,A,23.77819854388009,53.209710952502185,1.1889099271940047,0.8358161851400863,A,1676,Correct
2,new_learn,62,42,B,49.20453211522502,27.6788129184254,2.460226605761251,0.4347777766230575,B,2560,Correct
2,new_learn,62,43,A,41.015424026849765,61.72196514343428,2.050771201342488,0.9695263612986921,B,1286,Incorrect
2,new_learn,62,44,A,38.129088907122295,48.83819508381744,1.906454445356115,0.7671485744495301,B,2687,Incorrect
2,new_learn,62,45,B,57.61229308131138,26.291015678654716,2.880614654065569,0.4129783085573786,B,1330,Correct
2,new_learn,62,46,A,29.746606039664762,59.96698681520794,1.487330301983238,0.9419592261828662,A,1320,Correct
2,new_learn,62,47,B,58.64675911100237,42.26399459041492,2.9323379555501186,0.6638812745830314,B,1129,Correct
2,new_learn,62,48,A,22.216728736663104,52.01910814682956,1.1108364368331551,0.8171142400018635,A,2019,Correct
2,new_learn,62,49,A,44.092934358528446,51.61063087141395,2.204646717926422,0.8106978939638433,B,1583,Incorrect
2,new_learn,62,50,B,43.508731557684015,17.692929328965878,2.175436577884201,0.27791988400181294,B,986,Correct
2,new_learn,62,51,A,22.630095970389394,34.70419043415099,1.1315047985194697,0.5451321485835496,B,1951,Incorrect
2,new_learn,62,52,B,41.61820158371532,18.162041804262316,2.0809100791857658,0.2852886855323061,B,1529,Correct
2,new_learn,62,53,A,24.4728665582166,35.33477747047549,1.22364332791083,0.5550373865873796,A,3326,Correct
2,new_learn,62,54,B,42.3834836645549,13.95761337514094,2.119174183227745,0.21924567820494711,B,862,Correct
2,new_learn,62,55,B,47.97967104748347,37.03703666257265,2.3989835523741734,0.5817764114493704,B,1359,Correct
2,new_learn,62,56,A,43.95132511889042,57.95795743899378,2.1975662559445213,0.9104014665370637,B,1600,Incorrect
2,new_learn,62,57,A,20.320556077751032,41.67714491071858,1.0160278038875517,0.6546630613705536,A,2091,Correct
2,new_learn,62,58,B,55.94402445738752,30.74772972796631,2.797201222869376,0.48298420913971724,B,1092,Correct
2,new_learn,62,59,B,44.24183344447087,18.231479752617346,2.2120916722235435,0.2863794142744685,B,753,Correct
2,new_learn,62,60,A,42.912154468529025,51.699737175751345,2.1456077234264512,0.8120975725193178,B,2014,Incorrect
2,new_learn,62,61,B,45.75288469226278,22.55709604403747,2.2876442346131394,0.3543260360913375,B,948,Correct
2,new_learn,62,62,A,19.63775165636495,44.360635037566794,0.9818875828182476,0.696815225712989,A,1148,Correct
2,new_learn,62,63,A,47.095133620245505,59.1621393165508,2.3547566810122755,0.9293167112376592,B,922,Incorrect
2,new_learn,62,64,A,23.45243185544985,49.60407186440627,1.1726215927724923,0.7791789387867945,A,675,Correct
2,new_learn,62,65,A,36.11580725801478,44.44043246216295,1.8057903629007392,0.6980686807274225,B,986,Incorrect
2,new_learn,62,66,B,59.38970839916847,42.478095822653074,2.9694854199584233,0.6672443688746509,B,694,Correct
2,new_learn,62,67,A,53.1132088550325,74.54365604820251,2.655660442751625,1.1709290110637867,B,642,Incorrect
2,new_learn,62,68,A,50.36482012114736,60.34902992600787,2.518241006057368,0.9479603453340846,A,2226,Correct
2,new_learn,62,69,A,19.886085420822006,50.031803458057844,0.9943042710411004,0.7858977309484148,A,739,Correct
2,new_learn,62,70,B,46.81064087737775,26.012409206241664,2.3405320438688877,0.4086019683225015,B,1394,Correct
2,new_learn,62,71,B,35.07537391498849,10.820709377238195,1.7537686957494245,0.16997130543080852,B,1514,Correct
2,new_learn,62,72,B,70.45670009407925,52.01176521918596,3.5228350047039623,0.8169988975641587,B,2444,Correct
2,new_learn,62,73,A,36.75285704039619,60.87034377452326,1.8376428520198091,0.9561491241176374,A,1700,Correct
2,new_learn,62,74,B,64.92163456506536,50.780170308596425,3.2460817282532677,0.7976530499476253,B,1187,Correct
2,new_learn,62,75,B,81.94070762130596,54.91670800697976,4.0970353810652975,0.862629632170317,B,1086,Correct
2,new_learn,62,76,A,29.336132974811214,53.52972934763318,1.4668066487405609,0.8408430223358718,A,880,Correct
2,new_learn,62,77,A,25.121564120951724,37.5846884628032,1.2560782060475861,0.5903789058110178,A,810,Correct
2,new_learn,62,78,A,44.72024819923024,74.58130556402314,2.236012409961512,1.1715204082753534,A,1108,Correct
2,new_learn,62,79,B,78.19176888146265,51.802565403081104,3.9095884440731323,0.8137127945371219,B,975,Correct
2,new_learn,62,80,A,16.26153097258073,38.10070733724603,0.8130765486290364,0.5984845113363343,A,639,Correct
2,new_learn,62,81,A,15.457972528044262,33.583467249935964,0.7728986264022132,0.5275278699723612,A,714,Correct
2,new_learn,62,82,B,37.60080370282,14.898189919514433,1.880040185141,0.23402022001466025,A,1492,Incorrect
2,new_learn,62,83,A,51.92918851499652,80.34924368798647,2.596459425749826,1.262122968458372,B,745,Incorrect
2,new_learn,62,84,A,15.460034285705763,36.22830644922804,0.7730017142852881,0.5690729069644727,A,586,Correct
2,new_learn,62,85,A,48.02404027900603,58.129630809668086,2.401202013950302,0.9130981055377008,B,940,Incorrect
2,new_learn,62,86,A,25.25752106613245,52.06148339043912,1.2628760533066226,0.8177798687719531,A,400,Correct
2,new_learn,62,87,A,26.30376555392791,55.373819198865924,1.3151882776963957,0.8698099179818332,A,545,Correct
2,new_learn,62,88,A,53.57558750996327,77.94920839236433,2.6787793754981637,1.2244233021929583,A,2221,Correct
2,new_learn,62,89,A,40.315908929351835,64.17453551517899,2.015795446467592,1.008051246610118,A,793,Correct
2,new_learn,62,90,A,64.21736238877935,87.62374097855115,3.2108681194389677,1.376390504691356,B,1936,Incorrect
2,new_learn,62,91,A,63.72262887961254,80.58447913147468,3.1861314439806274,1.2658180381640043,A,909,Correct
2,new_learn,62,92,B,59.80812504287475,35.135335723646776,2.990406252143737,0.5519045629540987,B,993,Correct
2,new_learn,62,93,A,57.178065181973324,66.65578833933583,2.8589032590986663,1.0470266748304682,A,1266,Correct
2,new_learn,62,94,B,51.34469373869752,20.728565899127243,2.567234686934876,0.3256035517407503,B,1182,Correct
2,new_learn,62,95,A,37.45865362066669,60.53786035456847,1.8729326810333344,0.9509264867697854,A,854,Correct
2,new_learn,62,96,B,85.84569805946619,60.65852887295427,4.29228490297331,0.9528219434241875,A,1214,Incorrect
2,new_learn,62,97,A,54.17219568530083,72.32903481311925,2.7086097842650414,1.1361418220506792,A,951,Correct
2,new_learn,62,98,B,57.36628267887912,31.539649706811677,2.8683141339439557,0.4954236590785752,B,1004,Correct
2,new_learn,62,99,B,51.011507790735934,27.918116537101763,2.550575389536797,0.4385367490751131,B,776,Correct
2,new_learn,62,100,A,58.82339972319994,77.08616049033927,2.941169986159997,1.2108665774494682,A,811,Correct
2,new_learn,62,101,A,29.915487584109904,51.57712713849159,1.4957743792054954,0.8101716185577597,A,578,Correct
2,new_learn,62,102,B,54.91417790979685,36.67753844926021,2.7457088954898428,0.5761294267197653,B,650,Correct
2,new_learn,62,103,A,40.203088478879344,52.79269087749278,2.0101544239439675,0.8292656491198411,A,911,Correct
2,new_learn,62,104,B,42.34762945735388,30.62112326340059,2.1173814728676943,0.480995479444834,A,573,Incorrect
2,new_learn,62,105,B,49.22245257932815,38.88237113394642,2.4611226289664074,0.6107628575427895,B,4007,Correct
2,new_learn,62,106,B,33.73916109218304,18.295834713749944,1.686958054609152,0.2873902996400497,A,654,Incorrect
2,new_learn,62,107,A,29.320508299565493,62.512469953528075,1.4660254149782748,0.9819435818187824,A,906,Correct
2,new_learn,62,108,B,33.86230112735029,17.59615447681594,1.6931150563675146,0.27639974817898055,A,1053,Incorrect
2,new_learn,62,109,B,57.13451774062883,46.276604915174175,2.856725887031441,0.7269112101729426,A,1135,Incorrect
2,new_learn,62,110,B,58.828462338716506,48.11096127278079,2.9414231169358254,0.7557252124585558,B,1626,Correct
2,new_learn,62,111,B,69.28385922209257,38.44073693300192,3.464192961104629,0.6038256837364833,B,1768,Correct
2,new_learn,62,112,A,59.24462224519591,82.59288993289272,2.9622311122597953,1.2973660812596308,A,656,Correct
2,new_learn,62,113,B,86.34393792985892,59.8943408059125,4.317196896492947,0.9408181053372905,B,1037,Correct
2,new_learn,62,114,B,49.669415336667086,41.97931822954733,2.4834707668333547,0.6594095887632698,B,992,Correct
2,new_learn,62,115,A,60.371757247183595,78.84402749608542,3.0185878623591798,1.238479087805668,A,1045,Correct
2,new_learn,62,116,A,21.725797253287567,39.550287989532976,1.0862898626643784,0.6212544709763871,A,803,Correct
2,new_learn,62,117,A,22.137134367901314,35.0142328042831,1.1068567183950657,0.5500022827450926,B,1134,Incorrect
2,new_learn,62,118,A,20.60224380889661,40.61571467746249,1.0301121904448305,0.6379901542550765,A,478,Correct
2,new_learn,62,119,B,72.93054123044425,45.60814379895223,3.6465270615222125,0.716411047513276,B,2867,Correct
2,new_learn,62,120,A,39.06298540208706,70.47519111842807,1.953149270104353,1.1070217133899511,A,781,Correct
2,new_learn,62,121,B,87.12291231648399,63.74215540186488,4.356145615824199,1.0012594356723883,B,1417,Correct
2,new_learn,62,122,A,11.6004190721115,32.35198724585925,0.5800209536055749,0.5081838273031105,A,609,Correct
2,new_learn,62,123,B,45.58128877891602,30.689250049833454,2.279064438945801,0.4820656125036849,B,1003,Correct
2,new_learn,62,124,A,16.071798599737882,42.3797116125251,0.8035899299868942,0.6656989533158145,A,531,Correct
2,new_learn,62,125,A,33.75417705314748,52.41270664172006,1.687708852657374,0.8232968707019235,A,858,Correct
2,new_learn,62,126,A,63.32614425084938,73.40822723866702,3.166307212542469,1.1530937370302323,A,960,Correct
2,new_learn,62,127,B,82.810396241077,52.92413018841797,4.14051981205385,0.8313302929878185,A,3461,Incorrect
2,new_learn,62,128,A,29.667720036016068,48.973553678942736,1.4833860018008034,0.7692747822897595,A,630,Correct
2,new_learn,62,129,A,44.32321108507167,57.38175854342296,2.2161605542535834,0.9013505554504047,A,1987,Correct
2,new_learn,62,130,B,36.55514559615811,23.718918468186523,1.8277572798079058,0.3725759000537503,A,8515,Incorrect
2,new_learn,62,131,B,57.81829387126542,46.88649857640584,2.890914693563271,0.7364913974009243,B,2002,Correct
2,new_learn,62,132,A,50.40300893502915,59.31896860665184,2.5201504467514577,0.931780179965905,A,831,Correct
2,new_learn,62,133,B,59.956162391195775,39.14499330064375,2.9978081195597888,0.6148881168906204,B,954,Correct
2,new_learn,62,134,B,79.41976503143198,48.12024279505333,3.9709882515715993,0.7558710062694837,B,1912,Correct
2,new_learn,62,135,B,45.814546456183635,30.60236851895202,2.2907273228091816,0.4807008806079361,A,796,Incorrect
2,new_learn,62,136,B,30.46658357931605,15.460486413998332,1.5233291789658026,0.24285275269570983,A,648,Incorrect
2,new_learn,62,137,B,45.500612996063715,21.051373503151485,2.275030649803186,0.3306742017273776,A,2513,Incorrect
2,new_learn,62,138,A,41.96788497057714,52.09709353525839,2.098394248528857,0.8183392316187403,A,1159,Correct
2,new_learn,62,139,A,64.70962730521643,76.26160407990288,3.2354813652608216,1.1979144756419813,A,934,Correct
2,new_learn,62,140,A,55.94763498183519,71.33829117064681,2.79738174909176,1.120579257306768,A,644,Correct
2,new_learn,62,141,A,18.20316038157874,46.16904038638035,0.910158019078937,0.725221590505715,A,994,Correct
2,new_learn,62,142,B,49.02894470835964,21.060460992998546,2.451447235417982,0.3308169476840932,B,1728,Correct
2,new_learn,62,143,B,54.411227890670524,36.30771251787,2.7205613945335263,0.5703202145739528,B,1463,Correct
2,new_learn,62,144,A,28.096102288036818,48.11203062340461,1.404805114401841,0.7557420097788753,A,1014,Correct
2,new_learn,62,145,B,47.25948111577492,22.38922656651821,2.362974055788746,0.3516891485046552,B,1123,Correct
2,new_learn,62,146,B,76.96093585093219,46.86043694363106,3.8480467925466093,0.7360820222305953,B,1152,Correct
2,new_learn,62,147,B,81.21276711024667,55.35396697292951,4.060638355512333,0.8694980799460369,B,1217,Correct
2,new_learn,62,148,A,54.71243107967328,61.887806020299784,2.735621553983664,0.9721313837008198,A,899,Correct
2,new_learn,62,149,A,24.967776777517606,46.80291911690901,1.2483888388758801,0.7351785343211931,A,595,Correct
2,new_learn,62,150,B,33.090778236520094,13.231966938721296,1.6545389118260048,0.2078472506361492,A,3888,Incorrect
2,new_learn,62,151,A,26.7345458100638,52.91288808036039,1.33672729050319,0.8311537023673956,A,663,Correct
2,new_learn,62,152,A,10.655420057223434,31.02015461819251,0.5327710028611717,0.48726344930866544,A,757,Correct
2,new_learn,62,153,B,82.22503842992914,68.168243658641,4.111251921496457,1.070784267430528,B,778,Correct
2,new_learn,62,154,A,37.4444330243401,48.923312103857505,1.872221651217005,0.7684855894737966,A,2050,Correct
2,new_learn,62,155,B,88.82998357666722,65.93082337969958,4.441499178833361,1.0356389518739517,B,832,Correct
2,new_learn,62,156,A,66.89261846202841,79.40135462882486,3.34463092310142,1.2472335619349706,A,805,Correct
2,new_learn,62,157,B,48.819339298818555,36.35549379207848,2.440966964940928,0.5710707610741153,A,797,Incorrect
2,new_learn,62,158,B,65.10742112095978,53.52873302648945,3.255371056047989,0.8408273721599429,B,1294,Correct
2,new_learn,62,159,A,41.2309870249584,55.87479057835641,2.0615493512479204,0.8776791580091635,A,968,Correct
2,new_learn,62,160,B,51.28968726844364,33.391686973839185,2.564484363422182,0.5245153924399159,A,1027,Incorrect
2,new_learn,62,161,B,77.0047558404074,52.2934770033021,3.8502377920203696,0.8214240159212033,B,721,Correct
2,new_learn,62,162,B,61.512762877496634,43.658289435731504,3.0756381438748317,0.6857828067979549,B,5742,Correct
2,new_learn,62,163,A,40.54718143341943,63.34820691754215,2.0273590716709715,0.9950713073511825,A,905,Correct
2,new_learn,62,164,B,78.84954117976137,51.2046518856723,3.942477058988069,0.8043207909682543,B,875,Correct
2,new_learn,62,165,B,61.44305309021396,44.89774511790864,3.072152654510698,0.705252131125844,B,1246,Correct
2,new_learn,62,166,A,31.220051549132485,61.40606017817604,1.561002577456624,0.964564137708253,A,579,Correct
2,new_learn,62,167,B,74.99631758762335,48.75987673147107,3.749815879381168,0.7659183526476671,B,731,Correct
2,new_learn,62,168,B,57.35488457172007,38.0867090844736,2.8677442285860035,0.5982646272959694,B,1747,Correct
2,new_learn,62,169,B,42.35532913530679,25.586931165985916,2.1177664567653394,0.40191857489484534,A,600,Incorrect
2,new_learn,62,170,B,52.50257741780206,37.225878097330586,2.625128870890103,0.5847427257700148,B,2283,Correct
2,new_learn,62,171,A,38.42512143544475,59.30148979158173,1.9212560717722373,0.9315056233808164,A,948,Correct
2,new_learn,62,172,B,44.085030239631976,22.386979581526294,2.2042515119815986,0.3516538529469385,B,1110,Correct
2,new_learn,62,173,B,62.913818226379554,33.59195558850166,3.1456909113189777,0.527661204482757,B,821,Correct
2,new_learn,62,174,A,54.36440317024235,74.52367384168346,2.7182201585121173,1.1706151312977728,A,877,Correct
2,new_learn,62,175,A,42.69404353607306,63.52644430556881,2.134702176803653,0.9978710536952806,A,631,Correct
2,new_learn,62,176,A,68.81970232651695,85.51122357836888,3.4409851163258476,1.3432071589663899,A,648,Correct
2,new_learn,62,177,A,33.602523147438575,48.79766644646254,1.6801261573719288,0.7665119521026593,B,762,Incorrect
2,new_learn,62,178,A,30.214730335105195,50.38951087043052,1.5107365167552598,0.7915165858426377,A,1243,Correct
2,new_learn,62,179,B,84.6126037964801,62.69159607546038,4.230630189824005,0.984757288362425,A,616,Incorrect
2,new_learn,62,180,A,42.42664233193468,66.34061730390091,2.1213321165967343,1.0420759797827353,A,2041,Correct
2,new_learn,62,181,B,71.3016734409938,42.552510549455214,3.5650836720496897,0.6684132726698534,B,1049,Correct
2,new_learn,62,182,B,58.43793222119321,26.5593417846776,2.92189661105966,0.41719316517461785,B,1005,Correct
2,new_learn,62,183,B,62.73162138171063,38.84550425995584,3.1365810690855316,0.6101837540403413,B,624,Correct
2,new_learn,62,184,B,39.37345983849824,12.65780778955024,1.968672991924912,0.19882837981101345,B,2563,Correct
2,new_learn,62,185,A,62.172724162851516,72.64438716349858,3.108636208142576,1.1410953651868991,A,736,Correct
2,new_learn,62,186,B,86.27412743079829,65.03340007098747,4.313706371539914,1.0215422595049009,B,3927,Correct
2,new_learn,62,187,B,62.889299818590246,31.133761967016323,3.1444649909295124,0.489047989370959,B,1377,Correct
2,new_learn,62,188,B,39.22815479459987,19.863870763278392,1.9614077397299934,0.31202095230886234,B,933,Correct
2,new_learn,62,189,A,49.744006513363026,75.52367627336247,2.487200325668151,1.1863231327624464,A,910,Correct
2,new_learn,62,190,A,59.194657836793,74.33485315380112,2.95973289183965,1.1676491428682882,A,768,Correct
2,new_learn,62,191,A,23.73518396654609,48.071084131441125,1.1867591983273045,0.7550988237871616,A,671,Correct
2,new_learn,62,192,A,28.129609699805222,53.879431915632274,1.4064804849902612,0.846336137428709,A,580,Correct
2,new_learn,62,193,A,53.224046170834235,60.7645415989781,2.6612023085417116,0.954487187430505,B,2213,Incorrect
2,new_learn,62,194,B,88.78514586741376,66.98398563138218,4.439257293370688,1.0521819858385728,B,581,Correct
2,new_learn,62,195,A,15.93033264658132,30.74087308873473,0.796516632329066,0.482876505302526,A,636,Correct
2,new_learn,62,196,A,18.19639378593351,36.354858909586966,0.9098196892966754,0.5710607883632592,A,679,Correct
2,new_learn,62,197,B,77.07913522141705,46.12312335714444,3.8539567610708527,0.7245003274971039,B,848,Correct
2,new_learn,62,198,B,64.66882932559277,36.68279320898344,3.233441466279638,0.5762119682924797,B,610,Correct
2,new_learn,62,199,B,59.58814972965147,30.902571184959285,2.9794074864825735,0.48541645305851855,B,821,Correct
2,new_learn,62,200,B,77.09660886046176,62.212505202863724,3.8548304430230877,0.9772317465336673,B,2029,Correct
2,new_learn,62,201,A,53.11626353810423,67.53662139957495,2.655813176905211,1.0608627681858993,B,862,Incorrect
2,new_learn,62,202,B,78.12922624106594,57.62810240342202,3.9064613120532967,0.9052201157545547,B,744,Correct
2,new_learn,62,203,B,87.1395897180947,67.1705026843966,4.356979485904735,1.0551117888561692,B,723,Correct
2,new_learn,62,204,A,32.87848376310256,61.111995041857924,1.643924188155128,0.9599449733485836,A,551,Correct
2,new_learn,62,205,B,61.8549452876412,37.419714716786764,3.0927472643820604,0.5877875042684158,B,932,Correct
2,new_learn,62,206,A,64.44847338894142,75.83071526027376,3.222423669447071,1.1911460898906772,A,2870,Correct
2,new_learn,62,207,B,47.69395090079843,30.63953939549672,2.3846975450399213,0.4812847593713378,A,8576,Incorrect
2,new_learn,62,208,B,50.719512274237914,43.108054564832706,2.5359756137118956,0.6771397376571318,B,1193,Correct
2,new_learn,62,209,B,66.86154480843055,53.514577512332934,3.3430772404215277,0.8406050178635335,B,645,Correct
2,new_learn,62,210,B,43.41010441334729,24.873445434869005,2.1705052206673643,0.3907111672382552,B,1772,Correct
2,new_learn,62,211,B,68.06762178020615,52.86792875909137,3.4033810890103076,0.83044748300035,B,2271,Correct
2,new_learn,62,212,A,58.12736536475691,82.82117110529914,2.9063682682378453,1.3009519135305552,A,995,Correct
2,new_learn,62,213,B,69.70585362700714,58.00013844783096,3.4852926813503573,0.9110640442744834,B,754,Correct
2,new_learn,62,214,A,22.09978799227249,49.09290471300643,1.1049893996136246,0.7711495439488236,A,675,Correct
2,new_learn,62,215,A,21.761450181813075,45.32036046216979,1.0880725090906538,0.7118905574299698,A,548,Correct
2,new_learn,62,216,A,61.26570264833653,72.19318138415605,3.0632851324168264,1.1340078413787003,B,726,Incorrect
2,new_learn,62,217,A,47.839788584151485,65.45331550134777,2.391989429207574,1.0281382756606456,A,561,Correct
2,new_learn,62,218,A,23.221402100645776,35.058281067593974,1.1610701050322887,0.5506941912471968,A,577,Correct
2,new_learn,62,219,A,30.493216761609578,51.91207268924667,1.524660838080479,0.8154329309657835,A,526,Correct
2,new_learn,62,220,B,69.39797550830797,41.559784695498195,3.4698987754153983,0.6528195714207532,B,785,Correct
2,new_learn,62,221,A,63.988072696642725,75.77142418052452,3.199403634832136,1.190214747787859,A,1372,Correct
2,new_learn,62,222,A,48.74031369859829,57.53376352402272,2.4370156849299147,0.9037382441022108,A,1433,Correct
2,new_learn,62,223,B,36.09011358255628,17.825203721559454,1.804505679127814,0.2799976453019631,A,2055,Incorrect
2,new_learn,62,224,A,36.6099352180748,69.79038198603394,1.8304967609037401,1.0962647566927484,A,662,Correct
2,new_learn,62,225,A,18.85885873831871,43.397123680768644,0.9429429369159353,0.6816804247121521,A,721,Correct
2,new_learn,62,226,A,26.820584091351066,49.290188075134324,1.3410292045675534,0.774248463754506,A,686,Correct
2,new_learn,62,227,B,64.23744461204514,34.51720458646575,3.211872230602257,0.5421949817564836,B,1067,Correct
2,new_learn,62,228,B,32.997357058047804,19.266573276107913,1.6498678529023902,0.3026386253203503,B,799,Correct
2,new_learn,62,229,A,20.519339590732937,49.917589061282385,1.0259669795366468,0.7841036553991947,A,867,Correct
2,new_learn,62,230,B,80.57160137891677,67.05957486117671,4.028580068945838,1.0533693386836376,B,5545,Correct
2,new_learn,62,231,B,42.17713925336854,15.072193236111406,2.1088569626684266,0.23675345772026685,B,920,Correct
2,new_learn,62,232,B,38.89385380623092,20.405504715763175,1.9446926903115462,0.3205289185391674,B,864,Correct
2,new_learn,62,233,A,40.470935795032744,59.636405079458456,2.023546789751637,0.9367664604206585,A,1726,Correct
2,new_learn,62,234,A,28.072250606858717,56.843181265016625,1.4036125303429359,0.8928906033442459,A,1590,Correct
2,new_learn,62,235,B,70.66012562166112,49.88721521309619,3.533006281083056,0.7836265441075797,B,1199,Correct
2,new_learn,62,236,A,60.64505841625294,76.26221955032435,3.0322529208126467,1.1979241434287542,A,2160,Correct
2,new_learn,62,237,A,60.39137170696122,74.34198581897476,3.0195685853480607,1.1677611825108385,A,651,Correct
2,new_learn,62,238,A,42.164397491973574,73.07963683005661,2.108219874598679,1.1479322509615795,A,980,Correct
2,new_learn,62,239,B,74.39190412190086,63.90439188834638,3.7195952060950437,1.0038078404427608,B,897,Correct
2,new_learn,62,240,B,55.20259112378898,38.378876210374166,2.7601295561894488,0.6028539777777178,B,727,Correct
2,new_learn,62,241,A,17.193386236901766,35.80010605313,0.8596693118450883,0.5623467508712435,B,789,Incorrect
2,new_learn,62,242,B,45.433079799031205,33.514731823148566,2.27165398995156,0.5264481764131779,A,1177,Incorrect
2,new_learn,62,243,A,24.99577844917055,54.032092391560624,1.2497889224585277,0.848734122577059,A,1074,Correct
2,new_learn,62,244,A,17.926124512476925,31.847747141737912,0.8963062256238462,0.5002632422693458,A,1097,Correct
2,new_learn,62,245,B,69.0893226813023,36.25593755826934,3.454466134065115,0.569506935410346,B,873,Correct
2,new_learn,62,246,B,36.60827183370324,20.21171034419576,1.830413591685162,0.31748480366905113,B,1089,Correct
2,new_learn,62,247,B,50.45703109546848,22.721950171419792,2.5228515547734243,0.3569155586688288,B,813,Correct
2,new_learn,62,248,B,52.31332034174958,32.343264683746014,2.615666017087479,0.5080468136178334,B,522,Correct
2,new_learn,62,249,A,18.67686012840677,45.794133037555554,0.9338430064203385,0.7193325596414908,A,743,Correct
2,new_learn,62,250,A,35.405436128897854,60.43195873743795,1.7702718064448928,0.9492629880578829,A,1012,Correct
2,new_learn,62,251,B,69.62230977809087,43.39646066199298,3.4811154889045435,0.681670010037578,B,862,Correct
2,new_learn,62,252,A,15.691157414780829,42.14728576988635,0.7845578707390415,0.662048016717123,A,591,Correct
2,new_learn,62,253,B,37.94963639462284,27.326984258162284,1.897481819731142,0.4292512649510327,A,617,Incorrect
2,new_learn,62,254,A,26.830284781191533,52.99796383602329,1.3415142390595767,0.8324900692123415,A,788,Correct
2,new_learn,62,255,B,43.11680873956521,32.292388192249774,2.1558404369782607,0.5072476475582084,A,8244,Incorrect
2,new_learn,62,256,A,31.824585100297647,64.44634638982664,1.5912292550148823,1.0123208418449123,A,698,Correct
2,new_learn,62,257,A,11.016709255008596,35.00580630845165,0.5508354627504297,0.5498699196580947,A,661,Correct
2,new_learn,62,258,A,22.436831305584946,53.90381396697268,1.1218415652792473,0.8467191297955612,A,1042,Correct
2,new_learn,62,259,B,63.933570002654974,49.24459969333597,3.1966785001327485,0.7735323631277723,B,876,Correct
2,new_learn,62,260,A,12.067895349701484,36.70789479021441,0.6033947674850743,0.5766062630084231,A,729,Correct
2,new_learn,62,261,A,68.13272490937128,87.20104497832457,3.406636245468564,1.369750811446288,A,649,Correct
2,new_learn,62,262,B,74.21656561137702,47.98206837310541,3.710828280568851,0.7537005675249555,B,567,Correct
2,new_learn,62,263,B,71.29970463679594,45.490265323611965,3.5649852318397968,0.7145594167525492,B,562,Correct
2,new_learn,62,264,B,63.93377525656889,37.338906159929174,3.1966887628284444,0.5865181664255608,B,710,Correct
2,new_learn,62,265,A,62.11356567863687,75.19453127390923,3.1056782839318435,1.1811529352012058,A,607,Correct
2,new_learn,62,266,A,18.74185829042835,43.368031017357026,0.9370929145214175,0.6812234382239156,A,702,Correct
2,new_learn,62,267,B,72.97803134627613,49.37459575985959,3.648901567313806,0.7755743365657032,B,1733,Correct
2,new_learn,62,268,B,40.61962979277385,31.690112748216276,2.0309814896386924,0.49778712700614247,A,984,Incorrect
2,new_learn,62,269,B,56.6611390497556,25.867133705502603,2.83305695248778,0.4063199860931595,B,800,Correct
2,new_learn,62,270,A,15.708849879869934,36.19469228987309,0.7854424939934966,0.5685448969840421,B,786,Incorrect
2,new_learn,62,271,B,66.8200105262516,50.11584972733766,3.34100052631258,0.7872179266590701,B,652,Correct
2,new_learn,62,272,A,22.82266799115839,39.89278176860413,1.1411333995579196,0.6266343506775379,A,321,Correct
2,new_learn,62,273,B,65.58612165730484,52.25541684291369,3.279306082865242,0.8208261683198499,B,3885,Correct
2,new_learn,62,274,B,57.05622725034454,26.07611065400402,2.8528113625172273,0.4096025883240678,B,919,Correct
2,new_learn,62,275,B,63.87665649981651,38.33134115230075,3.1938328249908254,0.6021072988315608,B,645,Correct
2,new_learn,62,276,A,41.871128975471656,57.16621534235825,2.0935564487735827,0.897964810765424,A,1660,Correct
2,new_learn,62,277,A,22.62535358349133,44.69563868176609,1.1312676791745664,0.7020774506507006,A,861,Correct
2,new_learn,62,278,B,50.09733094347013,18.99648904961808,2.5048665471735068,0.2983961522113956,B,1364,Correct
2,new_learn,62,279,A,63.59550644072528,85.40807581449002,3.179775322036264,1.3415869176802095,A,1299,Correct
2,new_learn,62,280,A,62.77767280227763,76.43615371602475,3.1388836401138813,1.2006562949146176,A,731,Correct
2,new_learn,62,281,B,54.88032889827531,25.69304351864184,2.7440164449137656,0.40358538383264025,B,705,Correct
2,new_learn,62,282,A,37.89696993463389,56.90978606201354,1.8948484967316943,0.8939368290489427,A,890,Correct
2,new_learn,62,283,A,58.29004234935183,86.41164576397155,2.9145021174675914,1.3573509575834828,A,729,Correct
2,new_learn,62,284,B,61.041911873065494,31.354198384757872,3.052095593653275,0.49251059652376133,B,770,Correct
2,new_learn,62,285,A,52.984922885660325,66.24947108890423,2.6492461442830164,1.0406442583855549,A,801,Correct
2,new_learn,62,286,B,44.37130991351887,20.36939101224398,2.2185654956759437,0.31996164581081826,B,642,Correct
2,new_learn,62,287,A,21.138975731090937,49.32714521187557,1.0569487865545468,0.7748289851009261,A,780,Correct
2,new_learn,62,288,B,53.6170524540411,33.76758598999533,2.6808526227020546,0.5304200003781548,B,851,Correct
2,new_learn,62,289,A,24.349154607051553,40.92015553487181,1.2174577303525778,0.642772300060525,A,639,Correct
2,new_learn,62,290,A,36.43066203297988,54.92190889664319,1.8215331016489942,0.8627113275541107,A,1043,Correct
2,new_learn,62,291,B,57.28396407539323,40.98531134288956,2.864198203769661,0.6437957650995613,A,11466,Incorrect
2,new_learn,62,292,B,51.47420504632375,24.32915024961381,2.5737102523161877,0.3821613984613451,B,2048,Correct
2,new_learn,62,293,A,48.92303092315704,71.48449750009968,2.4461515461578522,1.1228758609593554,A,633,Correct
2,new_learn,62,294,A,35.94372985621918,64.64818720606644,1.797186492810959,1.0154913499723799,A,706,Correct
2,new_learn,62,295,A,27.757630348245975,59.89833859241745,1.387881517412299,0.9408809024208632,A,1142,Correct
2,new_learn,62,296,B,75.38254841571315,52.06636139642106,3.769127420785657,0.8178564923107381,B,1162,Correct
2,new_learn,62,297,B,60.216906077053636,46.7162021415203,3.010845303852682,0.7338163872570796,B,1064,Correct
2,new_learn,62,298,A,45.57571033442689,61.99301256754341,2.2787855167213444,0.9737839642804704,A,788,Correct
2,new_learn,62,299,B,87.63124912206015,66.67268379452489,4.3815624561030075,1.047292068019973,B,690,Correct
2,new_learn,62,300,B,57.271617971328425,45.81522605619634,2.863580898566421,0.7196638880035106,B,1908,Incorrect
2,new_learn,62,301,B,77.23684662970297,64.9354963744262,3.8618423314851484,1.0200043918355197,B,836,Correct
2,new_learn,62,302,B,54.24855653816947,24.03199521219792,2.712427826908473,0.37749369804873034,B,818,Incorrect
2,new_learn,62,303,A,15.564826672183361,34.78498201921089,0.778241333609168,0.5464012198340298,A,943,Incorrect
2,new_learn,62,304,A,40.28388243908611,61.68548613238664,2.0141941219543056,0.9689533503331047,A,1533,Correct
2,new_learn,62,305,A,54.81902676008322,70.72119421030379,2.7409513380041606,1.1108859209209372,A,1465,Correct
2,new_learn,62,306,B,62.45659193156438,53.341379877415825,3.122829596578219,0.8378844357761598,B,1006,Correct
2,new_learn,62,307,A,42.77503594889899,67.6591016639532,2.1387517974449493,1.0627866836798014,A,525,Incorrect
2,new_learn,62,308,A,45.102510105980215,63.43570350058746,2.255125505299011,0.9964457004637295,A,2547,Correct
2,new_learn,62,309,A,44.69353112841962,58.271595273347415,2.234676556420981,0.9153280781185299,A,1289,Correct
2,new_learn,62,310,A,68.24251905392936,85.35964465745187,3.412125952696468,1.3408261628444302,A,934,Correct
2,new_learn,62,311,A,65.07944106625038,76.98295190258233,3.2539720533125194,1.209245380744045,A,734,Correct
2,new_learn,62,312,A,26.461686625164262,45.94960714919521,1.323084331258213,0.7217747412762436,B,1109,Incorrect
2,new_learn,62,313,A,49.12074285625813,75.37587475145767,2.4560371428129066,1.1840014718854188,A,986,Incorrect
2,new_learn,62,314,B,40.07369981568166,29.913264116955872,2.003684990784083,0.4698764539735987,B,965,Incorrect
2,new_learn,62,315,A,22.730846571196295,50.08765998179752,1.1365423285598149,0.7867751231715928,A,876,Correct
2,new_learn,62,316,A,39.20548570053609,69.04362818588996,1.9602742850268045,1.084534775429885,A,1562,Incorrect
2,new_learn,62,317,A,59.728537364683405,72.68884617195984,2.98642686823417,1.141793725658738,A,2372,Correct
2,new_learn,62,318,B,52.21100115547188,25.191547433100965,2.610550057773594,0.39570790174194403,B,678,Correct
2,new_learn,62,319,B,67.47286005336751,47.430167333171205,3.3736430026683757,0.7450313262621263,B,764,Correct
2,new_learn,62,320,B,61.82360791378575,35.74769243974727,3.091180395689287,0.5615234397574871,B,844,Incorrect
2,new_learn,62,321,A,39.444262321437925,67.45461734398269,1.972213116071896,1.0595746514928333,A,629,Incorrect
2,new_learn,62,322,A,44.666038939626915,63.47484721510719,2.2333019469813458,0.9970605684935764,A,606,Correct
2,new_learn,62,323,B,58.189817735175225,34.24974387639852,2.909490886758761,0.5379937187471279,B,867,Correct
2,new_learn,62,324,A,18.43583052689481,34.338461120742004,0.9217915263447406,0.5393872859625091,A,1366,Incorrect
2,new_learn,62,325,A,23.033352225937982,40.202702428333524,1.151667611296899,0.6315025730165456,A,632,Correct
2,new_learn,62,326,B,38.57150576208609,13.862362998232204,1.9285752881043043,0.21774948878320638,B,901,Incorrect
2,new_learn,62,327,B,53.34930310265527,34.70229486026931,2.6674651551327635,0.5451023729786445,B,2682,Correct
2,new_learn,62,328,B,46.24204494398018,27.09106000471113,2.312102247199009,0.42554537544380383,B,755,Correct
2,new_learn,62,329,B,60.889624546907505,36.69309359913325,3.0444812273453756,0.5763737664425983,B,1244,Correct
2,new_learn,62,330,A,42.98818711008445,66.03848580192795,2.149409355504223,1.0373301092476537,A,800,Correct
2,new_learn,62,331,B,79.72746965593589,48.86589949489,3.986373482796795,0.767583754321018,B,2518,Correct
2,new_learn,62,332,A,59.72363564943421,74.6838691492368,2.9861817824717103,1.1731314733045188,A,665,Correct
2,new_learn,62,333,B,64.78947142768546,48.47926009934252,3.2394735713842726,0.7615104368978162,B,812,Incorrect
2,new_learn,62,334,B,78.90427350044347,55.74729318357226,3.9452136750221736,0.8756764336151347,B,721,Correct
2,new_learn,62,335,B,78.10075915110932,61.45405079129554,3.9050379575554657,0.9653179724963405,B,837,Correct
2,new_learn,62,336,A,47.780282545967374,70.51021415094012,2.3890141272983687,1.1075718538981827,A,640,Incorrect
2,new_learn,62,337,B,62.84793699324456,46.171150326767965,3.142396849662228,0.7252547333718212,B,935,Correct
2,new_learn,62,338,A,31.735767257061905,57.62994794566353,1.5867883628530952,0.9052491054642938,A,1463,Correct
2,new_learn,62,339,B,41.19536746811542,14.83341940040225,2.0597683734057712,0.2330028070796001,B,895,Correct
2,new_learn,62,340,A,47.800774287139504,69.73673323253854,2.3900387143569755,1.0954220440434714,A,1936,Correct
2,new_learn,62,341,A,21.92400621519442,52.00218614865418,1.0962003107597211,0.8168484298761045,A,1239,Incorrect
2,new_learn,62,342,B,44.39252339268846,18.379539643365856,2.2196261696344233,0.28870513359980265,B,991,Incorrect
2,new_learn,62,343,A,53.33836339525173,60.64511615778634,2.666918169762587,0.9526112569870061,A,805,Correct
2,new_learn,62,344,B,41.828155130369225,30.107860973135637,2.0914077565184614,0.4729331742425288,A,988,Incorrect
2,new_learn,62,345,A,33.911987974780544,61.53678826447131,1.6955993987390272,0.9666176096858684,A,899,Correct
2,new_learn,62,346,B,66.89244244778094,38.79301983619484,3.3446221223890467,0.6093593306397641,B,440,Correct
2,new_learn,62,347,B,55.99798202767091,24.91927265817114,2.7998991013835455,0.39143101957855725,B,653,Incorrect
2,new_learn,62,348,B,51.12073151797442,24.85322564172352,2.5560365758987214,0.3903935554702404,B,1088,Correct
2,new_learn,62,349,A,46.69317239153947,58.70908973124194,2.3346586195769734,0.9222002249930682,A,628,Correct
2,new_learn,62,350,A,13.542671941432015,31.58149408014504,0.6771335970716008,0.4960809489578659,A,564,Correct
2,new_learn,62,351,A,57.773757700041735,81.6616665615926,2.8886878850020867,1.2827384587489927,A,820,Correct
2,new_learn,62,352,A,27.411094476535773,49.902146941525494,1.3705547238267886,0.7838610911492743,A,1165,Incorrect
2,new_learn,62,353,B,70.78661627177225,51.58575461648675,3.539330813588612,0.8103071386652027,B,614,Incorrect
2,new_learn,62,354,B,60.72961926516565,29.146381839608,3.0364809632582825,0.4578302953301773,B,555,Incorrect
2,new_learn,62,355,B,80.27680464734611,66.97357144931264,4.013840232367306,1.0520184002491586,A,974,Correct
2,new_learn,62,356,A,40.65771597510251,67.50911353622135,2.032885798755126,1.0604306756787614,A,693,Correct
2,new_learn,62,357,B,64.52208308714958,49.63984716778988,3.2261041543574787,0.7797408959382439,A,865,Correct
2,new_learn,62,358,B,88.12973362464034,67.42045671284953,4.406486681232017,1.0590380575537837,B,1683,Incorrect
2,new_learn,62,359,A,38.14512847323511,60.917964346313944,1.9072564236617555,0.9568971463101243,A,459,Incorrect
2,new_learn,62,360,B,67.04770173630578,52.15488835075133,3.352385086815289,0.8192470704575813,B,3240,Correct
2,new_learn,62,361,B,65.59474718963492,52.55031294156797,3.2797373594817456,0.8254583854053726,B,671,Correct
2,new_learn,62,362,B,46.953482898140585,21.67271875657532,2.347674144907029,0.3404342701448737,B,636,Correct
2,new_learn,62,363,B,41.78722308955297,22.294768871297602,2.0893611544776487,0.3502054104977548,B,737,Incorrect
2,new_learn,62,364,B,43.05616728346843,14.225055945630558,2.1528083641734215,0.22344665627848387,B,1199,Correct
2,new_learn,62,365,A,54.93456374592642,75.7684933529942,2.7467281872963207,1.1901687104566685,A,992,Correct
2,new_learn,62,366,A,43.12145679940063,75.03627309103756,2.1560728399700313,1.1786670214778052,A,702,Correct
2,new_learn,62,367,B,70.21919707640929,38.913842109341275,3.5109598538204643,0.6112572024682984,B,774,Correct
2,new_learn,62,368,B,58.18844370379001,39.05595003471556,2.9094221851895004,0.6134894285401622,A,672,Incorrect
2,new_learn,62,369,A,18.53992498530595,41.555863466252205,0.9269962492652977,0.652757976895792,A,611,Correct
2,new_learn,62,370,B,64.08918625071829,47.10587740295472,3.2044593125359144,0.73993739195012,B,1587,Correct
2,new_learn,62,371,B,40.65471619843784,26.359395419281093,2.032735809921892,0.4140524150114097,B,1223,Correct
2,new_learn,62,372,B,60.19942365833621,51.50285839657949,3.0099711829168103,0.8090050078878477,B,1278,Incorrect
2,new_learn,62,373,B,63.328484187800925,50.29009640886906,3.1664242093900463,0.7899549871321273,A,805,Correct
2,new_learn,62,374,B,47.93689682644849,18.21159905515228,2.396844841322425,0.2860671290089461,B,630,Incorrect
2,new_learn,62,375,A,67.06817822989937,88.13682611225177,3.353408911494969,1.384450027124856,A,570,Correct
2,new_learn,62,376,A,46.71418998855062,72.08445234020982,2.3357094994275314,1.1322999295502336,A,844,Correct
2,new_learn,62,377,B,47.509445347805496,37.159375939736584,2.3754722673902746,0.5836981123212889,B,1677,Correct
2,new_learn,62,378,B,64.1427933839143,33.11438236678648,3.2071396691957146,0.520159501858299,B,633,Incorrect
2,new_learn,62,379,A,21.724720563957884,47.544237232386514,1.0862360281978942,0.7468231320489789,A,1145,Correct
2,new_learn,62,380,B,37.4278259450883,11.209787420112352,1.871391297254415,0.17608292903664122,B,770,Correct
2,new_learn,62,381,A,31.861351613586244,59.12327175609609,1.5930675806793122,0.9287061810257219,A,714,Correct
2,new_learn,62,382,B,49.525220801328004,26.057996507338018,2.4762610400664,0.40931805197360804,B,809,Correct
2,new_learn,62,383,B,39.3474960419761,19.082681908627414,1.967374802098805,0.29975006647467367,B,1269,Correct
2,new_learn,62,384,A,24.959893102160947,44.439869296899545,1.2479946551080474,0.698059834548151,A,762,Correct
2,new_learn,62,385,A,60.833379624230204,75.51295369525843,3.04166898121151,1.1861547028994506,A,1306,Incorrect
2,new_learn,62,386,B,61.74577550555734,45.80501224461457,3.0872887752778673,0.7195034498263583,B,836,Incorrect
2,new_learn,62,387,B,78.45270668763811,54.98475197307724,3.922635334381906,0.8636984642903817,B,3333,Correct
2,new_learn,62,388,B,79.36365533852188,55.863247314383415,3.968182766926094,0.8774978368426832,A,919,Incorrect
2,new_learn,62,389,B,47.63506704531384,18.576911422593877,2.381753352265692,0.29180544225804617,B,1543,Correct
2,new_learn,62,390,A,61.04340761985665,78.98826074158448,3.0521703809928327,1.2407446983279844,A,642,Incorrect
2,new_learn,62,391,A,29.552344486615915,60.43343625242312,1.4776172243307957,0.9492861968089978,A,1022,Incorrect
2,new_learn,62,392,B,45.68986602994483,25.07643560274459,2.2844933014972413,0.3938997293389997,B,1281,Incorrect
2,new_learn,62,393,A,22.08300172448941,45.12465634391304,1.1041500862244704,0.7088164443290063,A,837,Incorrect
2,new_learn,62,394,A,31.09314750541644,59.60239404062382,1.554657375270822,0.9362322162719393,A,1924,Correct
2,new_learn,62,395,B,84.19577022608702,65.23053126357108,4.2097885113043505,1.0246387890369713,B,2781,Correct
2,new_learn,62,396,A,32.92616648354642,58.036823941067134,1.6463083241773209,0.9116402986547038,A,1888,Correct
2,new_learn,62,397,B,37.44482551386588,27.91853447012057,1.872241275693294,0.438543313951621,B,1162,Incorrect
2,new_learn,62,398,B,40.20414447022202,19.741738288817867,2.010207223511101,0.3101024998862127,A,561,Correct
2,new_learn,62,399,B,65.97024637417812,41.700770279034295,3.298512318708906,0.6550341677882485,B,1403,Incorrect
2,new_learn,62,400,A,48.28934280301742,72.95149304384714,2.4144671401508706,1.1459193730747854,A,841,Correct
2,new_learn,62,401,A,47.33421795813936,64.08494458216622,2.366710897906968,1.006643955525212,A,635,Incorrect
2,new_learn,62,402,B,57.98118774931641,36.29691869345905,2.8990593874658206,0.5701506655765849,B,1009,Correct
2,new_learn,62,403,B,39.26817952162794,15.234468274827123,1.963408976081397,0.2393024680677183,A,1787,Incorrect
2,new_learn,62,404,B,75.67262961687199,57.00471311074149,3.7836314808435993,0.8954279396434962,A,834,Correct
2,new_learn,62,405,B,75.5384682270936,54.60820318647161,3.7769234113546806,0.8577836497817899,B,2569,Correct
2,new_learn,62,406,B,47.70474790041285,34.28405363236786,2.3852373950206425,0.5385326551336266,A,2445,Incorrect
2,new_learn,62,407,A,30.67548655584769,44.64692485479585,1.5337743277923845,0.7013122556460109,A,1519,Incorrect
2,new_learn,62,408,B,72.36290433858665,41.29744702019564,3.6181452169293324,0.6486987808533016,B,879,Incorrect
2,new_learn,62,409,B,63.46196821791132,45.93678825504682,3.173098410895566,0.7215733825578249,A,916,Incorrect
2,new_learn,62,410,A,38.18174135042442,68.49905156748684,1.909087067521221,1.0759805859114253,A,694,Correct
2,new_learn,62,411,A,60.5212903346692,82.06448955392624,3.02606451673346,1.289065987516055,A,611,Correct
2,new_learn,62,412,B,67.4963443699811,48.56457020517702,3.374817218499055,0.7628504849066492,B,909,Incorrect
2,new_learn,62,413,B,84.27522570706942,58.367671655164195,4.213761285353471,0.9168372423950252,B,1372,Incorrect
2,new_learn,62,414,B,75.41940189027085,49.03047969809141,3.770970094513542,0.7701689741075375,A,5969,Incorrect
2,new_learn,62,415,B,60.49380405713083,37.82001330394171,3.0246902028565414,0.5940753797716575,B,1096,Correct
2,new_learn,62,416,A,48.253389508085036,65.57496801419794,2.4126694754042517,1.0300491888639496,A,1118,Correct
2,new_learn,62,417,A,34.31375285627662,66.83312675826224,1.715687642813831,1.0498123002009603,A,595,Incorrect
2,new_learn,62,418,B,48.09221284145902,37.33606124614141,2.404610642072951,0.5864734786242822,B,1826,Correct
2,new_learn,62,419,A,31.258329874620685,63.77456679547377,1.5629164937310345,1.0017685526526596,A,906,Correct
2,new_learn,62,420,A,37.2855306866697,46.30409917604445,1.864276534333485,0.7273430890127722,A,790,Incorrect
2,new_learn,62,421,B,50.660419289545096,37.77466099010006,2.533020964477255,0.5933629872917164,B,883,Correct
2,new_learn,62,422,B,73.43951769866604,42.15683910007853,3.6719758849333015,0.6621980800768682,B,491,Correct
2,new_learn,62,423,B,53.75477492144687,27.574077857890977,2.6877387460723434,0.43313260213931637,B,486,Correct
2,new_learn,62,424,A,35.93227183341987,45.12296847232515,1.7966135916709933,0.7087899313041027,A,961,Incorrect
2,new_learn,62,425,A,32.570755205325405,65.79848182441573,1.6285377602662703,1.03356013558473,A,681,Correct
2,new_learn,62,426,B,67.97140129291138,51.75155591099271,3.3985700646455688,0.8129115393090806,B,3902,Incorrect
2,new_learn,62,427,B,48.075681515593786,22.38270756404422,2.403784075779689,0.3515867482532501,B,744,Correct
2,new_learn,62,428,A,54.40056102991191,78.47013960006635,2.7200280514955955,1.2326060704686697,A,592,Correct
2,new_learn,62,429,B,32.257274683335126,13.311880587099235,1.6128637341667564,0.20910253128947767,B,551,Incorrect
2,new_learn,62,430,A,57.13006707812528,73.85823678856755,2.8565033539062643,1.160162470510296,A,877,Correct
2,new_learn,62,431,A,23.480373906507957,55.511461196447684,1.174018695325398,0.8719719934239745,A,620,Incorrect
2,new_learn,62,432,A,54.888458291307415,75.50602077563607,2.7444229145653707,1.1860458008526829,A,862,Correct
2,new_learn,62,433,A,42.95364507801992,72.80811120659699,2.147682253900996,1.143667136441969,A,671,Correct
2,new_learn,62,434,A,67.380711256423,81.15210774119899,3.36903556282115,1.2747343275153906,A,739,Incorrect
2,new_learn,62,435,A,33.97578244814462,48.93129784640558,1.6987891224072311,0.7686110292244092,A,3221,Correct
2,new_learn,62,436,B,74.9191901673723,49.122614969841905,3.7459595083686157,0.7716162315718765,B,1351,Correct
2,new_learn,62,437,B,51.056939353516,37.83322954246748,2.5528469676757997,0.5942829799609608,B,1097,Incorrect
2,new_learn,62,438,B,46.03013230859111,16.34864174604573,2.301506615429555,0.25680386402774336,B,817,Correct
2,new_learn,62,439,B,50.468856639171364,29.347249992378813,2.523442831958568,0.460985524895602,B,831,Correct
2,new_learn,62,440,A,53.03671419244221,65.90476264267642,2.6518357096221106,1.0352295907740563,A,692,Correct
2,new_learn,62,441,A,16.272195663529203,34.92957316141032,0.8136097831764602,0.5486724521845693,A,930,Incorrect
2,new_learn,62,442,B,83.44794251762522,63.59798267331694,4.172397125881261,0.9989947757481173,A,3454,Correct
2,new_learn,62,443,B,56.53281105089913,32.564844065173894,2.8266405525449563,0.5115273744022374,B,727,Incorrect
2,new_learn,62,444,B,78.87919541401281,63.86884689650125,3.9439597707006406,1.0032495010164981,B,800,Correct
2,new_learn,62,445,A,42.55630118291477,55.54704364980008,2.1278150591457385,0.8725309212942176,A,2979,Correct
2,new_learn,62,446,B,81.27870685481533,57.59235698958584,4.063935342740766,0.9046586281070181,A,2317,Incorrect
2,new_learn,62,447,B,49.41404000271563,21.649906749194017,2.470702000135782,0.34007593997086,B,1280,Correct
2,new_learn,62,448,B,33.229587776724244,10.546396710363723,1.6614793888362123,0.1656624121356112,B,738,Correct
2,new_learn,62,449,B,85.2273445368683,63.75028313311971,4.261367226843415,1.001387105776391,A,937,Incorrect
2,new_learn,62,450,B,66.31700269588973,37.47227792652953,3.3158501347944864,0.5886131652363007,B,683,Correct
2,new_learn,62,451,B,54.52318749281884,24.03015868232812,2.726159374640942,0.377464849904995,B,1314,Correct
2,new_learn,62,452,A,35.815821984005794,51.90277072188536,1.7907910992002898,0.8152868160041523,A,973,Correct
2,new_learn,62,453,A,39.18951803387215,56.61627192880354,1.9594759016936074,0.8893263198258562,A,1484,Correct
2,new_learn,62,454,B,47.76951794319175,25.566985954897152,2.3884758971595876,0.4016052762516916,B,894,Incorrect
2,new_learn,62,455,A,27.61175328858388,37.78602181883383,1.380587664429194,0.59354144277216,A,1409,Correct
2,new_learn,62,456,B,32.09779085324699,18.843638011417834,1.6048895426623495,0.2959951737178782,A,472,Incorrect
2,new_learn,62,457,A,25.617627884873695,37.5213813477808,1.2808813942436847,0.5893844799736463,A,1730,Incorrect
2,new_learn,62,458,A,11.401136629983142,32.403676919713476,0.5700568314991571,0.508995766801345,B,1507,Correct
2,new_learn,62,459,B,32.360771225107996,15.72598115875731,1.6180385612554,0.24702313439421736,B,822,Correct
2,new_learn,62,460,B,54.58336926888729,26.475056080683174,2.7291684634443647,0.41586920843226016,B,589,Incorrect
2,new_learn,62,461,A,30.143947738402126,54.183982294482995,1.5071973869201063,0.8511200035929358,A,864,Correct
2,new_learn,62,462,B,42.368171434733256,22.836133780339765,2.118408571736663,0.35870915060354563,B,786,Incorrect
2,new_learn,62,463,A,22.255089786421358,52.47844476890626,1.112754489321068,0.824329482789068,A,734,Correct
2,new_learn,62,464,B,61.968897945484905,54.736500502756925,3.098444897274245,0.8597989393133758,A,644,Incorrect
2,new_learn,62,465,B,64.22968996049825,47.78170319998233,3.2114844980249124,0.750553238745362,B,874,Correct
2,new_learn,62,466,A,30.474020843971996,63.03977381130757,1.5237010421985997,0.9902264514478304,A,1093,Incorrect
2,new_learn,62,467,B,47.222831077734924,32.36829903988081,2.361141553886746,0.5084400523644355,B,2096,Incorrect
2,new_learn,62,468,A,39.4666417844377,57.13863911032184,1.9733320892218849,0.8975316443255276,A,947,Correct
2,new_learn,62,469,B,35.76862576589004,21.378601896018367,1.7884312882945022,0.3358142933027606,B,1605,Incorrect
2,new_learn,62,470,A,47.13251204518245,79.05001475351368,2.3566256022591228,1.2417147280790166,A,1022,Incorrect
2,new_learn,62,471,B,62.66085604062337,53.149498917077494,3.1330428020311683,0.8348703766993465,B,667,Correct
2,new_learn,62,472,A,36.735722771561996,67.31051690712758,1.8367861385780997,1.0573111271238178,A,905,Incorrect
2,new_learn,62,473,B,44.47497675813749,18.956889472733483,2.223748837906874,0.297774123512266,B,740,Incorrect
2,new_learn,62,474,B,56.54632923444204,30.76474558509438,2.827316461722102,0.48325149359845765,B,3086,Correct
2,new_learn,62,475,B,37.70904846987338,23.720068351720098,1.885452423493669,0.37259396238205805,B,2407,Correct
2,new_learn,62,476,A,38.42141738977418,61.219958200777775,1.9210708694887089,0.9616408546831884,A,680,Incorrect
2,new_learn,62,477,B,82.86950097178763,63.10496293380285,4.143475048589381,0.9912504397894563,B,822,Incorrect
2,new_learn,62,478,A,34.1916318044404,58.80620936390505,1.7095815902220197,0.9237257766155369,A,533,Correct
2,new_learn,62,479,B,70.86798773776799,50.984720510023905,3.5433993868883995,0.8008661169980998,B,1407,Incorrect
2,new_learn,62,480,B,53.895774191285234,22.499476685694287,2.694788709564262,0.35342095332696,B,578,Incorrect
2,new_learn,62,481,B,65.87113733458462,38.8305729403681,3.2935568667292308,0.6099492134207152,B,638,Incorrect
2,new_learn,62,482,B,65.19944516144139,37.52352315207656,3.25997225807207,0.5894181233568511,B,743,Incorrect
2,new_learn,62,483,B,52.52571917687546,32.0243571353553,2.626285958843773,0.5030374255618404,A,1128,Incorrect
2,new_learn,62,484,A,53.28807935125007,60.76717329911675,2.664403967562503,0.954528526079615,A,886,Incorrect
2,new_learn,62,485,A,22.31230718039752,44.28060553404174,1.115615359019876,0.6955581252112654,A,975,Correct
2,new_learn,62,486,B,81.94301737648092,59.30921591561156,4.0971508688240466,0.9316269850532806,B,1495,Correct
2,new_learn,62,487,B,50.867182259332345,43.79961890768869,2.543359112966617,0.688002804952137,A,1120,Incorrect
2,new_learn,62,488,A,17.21326413739503,32.292560859570386,0.8606632068697515,0.5072503598101381,A,853,Correct
2,new_learn,62,489,A,28.369849843329288,40.171921834437,1.4184924921664643,0.6310190725782534,A,702,Correct
2,new_learn,62,490,A,46.8107668067858,74.34343032994364,2.34053834033929,1.1677838728360779,A,879,Correct
2,new_learn,62,491,A,69.40874570738735,87.9306035090863,3.4704372853693677,1.3812106900493117,B,915,Correct
2,new_learn,62,492,B,55.14820560317441,38.66005512381344,2.757410280158721,0.6072707258217437,B,694,Correct
2,new_learn,62,493,A,52.92418313179328,78.86428613089504,2.646209156589664,1.2387973096971163,100,1492,Incorrect
2,new_learn,62,494,A,35.74595065004324,64.26570003589326,1.7872975325021623,1.009483255552838,A,613,Incorrect
2,new_learn,62,495,B,75.71774306455748,59.631700026031496,3.7858871532278737,0.9366925536142541,B,568,Correct
2,new_learn,62,496,B,74.56567946599355,41.950940310095234,3.7282839732996775,0.6589638294468955,B,677,Correct
2,new_learn,62,497,A,13.823315836853272,30.94179475293453,0.6911657918426636,0.48603257542351164,A,581,Correct
2,new_learn,62,498,A,63.50852900276453,74.5101400660123,3.1754264501382266,1.1704025432466536,A,742,Correct
2,new_learn,62,499,A,61.97117443782719,81.99903744129034,3.0985587218913593,1.2880378681349607,A,615,Incorrect
2,new_learn,62,500,B,55.00216851697586,45.480706325930285,2.750108425848793,0.714409264368087,B,565,Incorrect
2,new_learn,62,501,B,82.5255345787775,68.48797163868122,4.126276728938875,1.0758065427967352,B,643,Correct
2,new_learn,62,502,A,34.90758339010506,44.67577301519243,1.745379169505253,0.7017654014898684,A,496,Correct
2,new_learn,62,503,A,65.77020524591704,84.25649022734336,3.288510262295852,1.3234978535774107,A,705,Correct
2,new_learn,62,504,A,20.512657842988197,40.186553560558956,1.02563289214941,0.6312489071947238,A,953,Incorrect
2,new_learn,62,505,B,40.13422779443687,26.553513200010844,2.0067113897218434,0.4171016099807684,A,1052,Incorrect
2,new_learn,62,506,B,61.884717188521414,45.26380806740839,3.0942358594260706,0.711002234490343,B,661,Correct
2,new_learn,62,507,A,46.764728245851686,56.43557478129929,2.3382364122925843,0.8864879356702362,B,1365,Incorrect
2,new_learn,62,508,A,26.026860446632845,57.93357372199348,1.3013430223316422,0.910018448006087,A,530,Correct
2,new_learn,62,509,A,41.425335017484116,73.32113431129531,2.071266750874206,1.1517256845261794,A,596,Correct
2,new_learn,62,510,A,48.51813895070523,78.56853239970087,2.4259069475352617,1.2341516209511594,A,600,Correct
2,new_learn,62,511,B,58.92663565245777,27.866399728221555,2.946331782622888,0.4377243833408872,B,609,Correct
2,new_learn,62,512,A,14.879293530377232,30.714343045760266,0.7439646765188616,0.482459772361986,A,677,Correct
2,new_learn,62,513,A,54.58985629014552,62.745232612215496,2.729492814507276,0.9855998091115945,A,2120,Correct
2,new_learn,62,514,B,52.41573005635839,45.72093319003909,2.6207865028179196,0.7181827391254828,B,741,Correct
2,new_learn,62,515,B,83.26095205069426,56.82184436931025,4.1630476025347125,0.8925554441702382,B,666,Correct
2,new_learn,62,516,A,39.24470507375995,56.9410972234446,1.9622352536879974,0.8944286636225784,A,663,Incorrect
2,new_learn,62,517,B,80.38552490811509,64.08802575790364,4.019276245405754,1.0066923545205175,B,658,Correct
2,new_learn,62,518,A,19.02575918637214,37.88125376454479,0.9512879593186071,0.595037342677323,A,526,Correct
2,new_learn,62,519,A,40.08071170586038,70.54565840574853,2.004035585293019,1.1081286109507729,A,672,Incorrect
2,new_learn,62,520,A,40.23426622041961,54.48269235300271,2.011713311020981,0.8558121302199306,A,653,Correct
2,new_learn,62,521,A,61.78358168091316,71.61416981577588,3.0891790840456577,1.124912748930867,B,561,Incorrect
2,new_learn,62,522,B,42.45208892929795,31.22625684046225,2.1226044464648974,0.49050089544552106,B,610,Correct
2,new_learn,62,523,B,76.42727665636585,54.87518343270692,3.8213638328182924,0.8619773656829219,B,706,Correct
2,new_learn,62,524,A,52.71838775053654,82.3100455522144,2.6359193875268274,1.29292317211739,A,563,Correct
2,new_learn,62,525,B,60.45517110369991,29.188688467791273,3.0227585551849954,0.45849484629167087,B,662,Correct
2,new_learn,62,526,B,45.98902470862123,20.021066418003226,2.2994512354310617,0.3144901758791612,B,1248,Incorrect
2,new_learn,62,527,A,39.50544720811673,57.37335729478352,1.9752723604058362,0.9012185889453713,A,1011,Incorrect
2,new_learn,62,528,A,56.84813100832102,65.9131182730114,2.8424065504160514,1.035360840708439,A,697,Incorrect
2,new_learn,62,529,A,54.95014112762594,84.32240576730925,2.747507056381297,1.3245332524579818,A,592,Correct
2,new_learn,62,530,A,34.388599500540394,42.86816492523214,1.7194299750270199,0.6733715600099247,A,1058,Incorrect
2,new_learn,62,531,A,40.47785347647953,59.732493106178346,2.0238926738239766,0.9382758076148643,A,685,Correct
2,new_learn,62,532,B,76.6742031235417,63.02999603339329,3.833710156177085,0.9900728624715108,B,608,Incorrect
2,new_learn,62,533,A,15.35248721734472,42.78826394487827,0.767624360867236,0.6721164783454529,A,617,Correct
2,new_learn,62,534,B,74.35787231358175,49.176964245316896,3.717893615679088,0.7724699479946774,B,866,Incorrect
2,new_learn,62,535,A,12.398827777782511,39.6931783016242,0.6199413888891256,0.6234989867500619,A,911,Correct
2,new_learn,62,536,A,59.33279526762422,75.92126263430495,2.966639763381211,1.1925684047159684,A,623,Incorrect
2,new_learn,62,537,A,50.741128058346504,80.62766017277158,2.537056402917325,1.2664963243745677,A,601,Incorrect
2,new_learn,62,538,A,67.14751276029283,88.86699404162957,3.3573756380146413,1.3959194781389568,A,874,Correct
2,new_learn,62,539,A,51.5250800669106,65.56603351762313,2.5762540033455297,1.0299088461199348,A,1245,Correct
2,new_learn,62,540,A,45.362797859334535,66.93840383512995,2.268139892966727,1.0514659886573552,A,618,Incorrect
2,new_learn,62,541,B,74.46166714398137,43.65309050757717,3.7230833571990685,0.6857011422254738,B,786,Correct
2,new_learn,62,542,B,84.2454308897285,62.94924743341686,4.212271544486424,0.9888044664291427,B,526,Correct
2,new_learn,62,543,A,64.79568325232414,78.81788274510174,3.239784162616207,1.2380684070175667,A,1477,Correct
2,new_learn,62,544,A,49.14200880931995,62.07550774408133,2.4571004404659975,0.975079795483311,B,3164,Correct
2,new_learn,62,545,A,33.30772060401218,44.19997315125705,1.6653860302006092,0.6942915547042762,B,2176,Incorrect
2,new_learn,62,546,B,84.06367887740626,61.010600931293,4.203183943870313,0.9583522783842434,B,496,Incorrect
2,new_learn,62,547,A,56.43442421754794,73.26945235605854,2.821721210877397,1.1509138662717044,A,621,Correct
2,new_learn,62,548,A,49.64119887231235,66.35677183740894,2.4820599436156177,1.0423297346016902,A,695,Correct
2,new_learn,62,549,B,45.31938097210816,25.057414796715467,2.265969048605408,0.39360095121656746,B,837,Correct
2,new_learn,62,550,A,35.925880388247506,45.665596158278454,1.796294019412375,0.7173135070632294,A,1673,Incorrect
2,new_learn,62,551,B,66.18562709107765,41.99202179363293,3.3092813545538826,0.6596091358812985,B,568,Correct
2,new_learn,62,552,B,54.680054254165,48.04436954202848,2.73400271270825,0.7546791919979494,B,738,Incorrect
2,new_learn,62,553,B,42.05132921597618,15.921955875491886,2.1025664607988093,0.25010149804613074,B,788,Correct
2,new_learn,62,554,A,45.00630225134786,59.72864564632926,2.250315112567393,0.93821537185688,A,934,Correct
2,new_learn,62,555,A,19.5437667052647,48.50782214644147,0.9771883352632351,0.761959088484504,A,603,Correct
2,new_learn,62,556,B,73.68482775163453,43.49914979235377,3.684241387581727,0.6832830471253029,B,891,Correct
2,new_learn,62,557,A,58.54527775788188,69.61302123733759,2.9272638878940938,1.0934787805670503,A,666,Incorrect
2,new_learn,62,558,B,61.55354182884839,37.33763038683401,3.0776770914424194,0.5864981266286438,B,599,Correct
2,new_learn,62,559,A,49.75384308198557,65.47268202500284,2.4876921540992787,1.0284424843028472,A,725,Incorrect
2,new_learn,62,560,B,74.97236346403503,51.93254948748985,3.748618173201751,0.8157545797604325,B,508,Correct
2,new_learn,62,561,A,59.958308791221754,78.5518843586155,2.9979154395610874,1.2338901141333072,A,1073,Correct
2,new_learn,62,562,B,51.89386359576463,39.10146500410021,2.5946931797882313,0.6142043760073981,B,783,Correct
2,new_learn,62,563,A,43.56337764798774,61.44838962938761,2.178168882399387,0.9652290471730369,A,578,Correct
2,new_learn,62,564,A,41.95420184174562,61.196363966580186,2.097710092087281,0.9612702373190772,A,739,Incorrect
2,new_learn,62,565,A,33.50677980135536,52.51064348827352,1.6753389900677678,0.824835259090164,A,653,Incorrect
2,new_learn,62,566,A,68.49189043278687,87.67720352284272,3.4245945216393436,1.377230292373299,B,520,Incorrect
2,new_learn,62,567,B,85.10306291014582,60.4720634154274,4.255153145507291,0.9498929508666141,B,1012,Incorrect
2,new_learn,62,568,B,65.88588732264805,43.27452728671016,3.2942943661324025,0.6797546850574984,B,717,Correct
2,new_learn,62,569,B,84.23940326136831,57.688364402065716,4.211970163068416,0.9061667090157031,B,1445,Correct
2,new_learn,62,570,A,52.77746748498816,60.6179700611739,2.6388733742494077,0.9521848470985497,A,703,Correct
2,new_learn,62,571,B,69.65132122943655,45.09014280949587,3.4825660614718275,0.7082743069981343,B,1875,Correct
2,new_learn,62,572,A,32.004852479688644,58.917324607543215,1.6002426239844323,0.9254711707811146,A,570,Incorrect
2,new_learn,62,573,B,57.75653104554747,40.81704137995992,2.887826552277373,0.6411525867027633,B,848,Correct
2,new_learn,62,574,A,67.76565465555515,85.96984186026393,3.388282732777758,1.3504111180924072,A,739,Correct
2,new_learn,62,575,A,50.71132135433926,69.65095545485494,2.535566067716963,1.0940746498624112,A,553,Incorrect
2,new_learn,62,576,A,26.23352359211112,56.24222417626459,1.3116761796055558,0.8834507914685154,A,599,Correct
2,new_learn,62,577,A,31.312851735003246,51.66647845397976,1.5656425867501622,0.8115751457393906,A,559,Correct
2,new_learn,62,578,A,24.12665926115399,46.436299020928466,1.2063329630576995,0.7294196793202389,A,625,Correct
2,new_learn,62,579,A,54.25307027837651,63.12744568408794,2.7126535139188257,0.9916035980050967,B,1581,Correct
2,new_learn,62,580,A,66.30950042998033,85.24951434691748,3.315475021499017,1.3390962399718682,B,1503,Incorrect
2,new_learn,62,581,B,74.62820445717904,45.215496011658615,3.731410222858952,0.7102433504932265,B,587,Incorrect
2,new_learn,62,582,B,61.54275333221528,53.76008060159568,3.0771376666107635,0.8444613713718407,B,530,Correct
2,new_learn,62,583,B,61.64072362434543,32.256124547225355,3.082036181217272,0.5066780195542028,B,767,Incorrect
2,new_learn,62,584,A,26.5776392896057,41.77168482950488,1.3288819644802852,0.6561480909422037,A,572,Correct
2,new_learn,62,585,A,54.802977376491185,73.32900159324046,2.7401488688245594,1.1518492635019926,A,709,Correct
2,new_learn,62,586,B,59.81455782639597,33.82142508478249,2.9907278913197985,0.531265702901451,B,657,Correct
2,new_learn,62,587,B,42.03292643207587,28.639192988263794,2.1016463216037935,0.4498633914833492,B,1129,Incorrect
2,new_learn,62,588,B,62.78199244860537,38.57262099351265,3.139099622430269,0.6058973137146139,B,1345,Incorrect
2,new_learn,62,589,A,16.116766051561168,41.688268694057555,0.8058383025780584,0.6548377933506428,A,659,Correct
2,new_learn,62,590,A,65.09067694554204,88.03070852438586,3.254533847277102,1.3827831359525748,A,684,Correct
2,new_learn,62,591,A,18.636149967026537,36.0474047052938,0.9318074983513269,0.5662313090156458,A,689,Incorrect
2,new_learn,62,592,A,21.01483523568077,43.578601395873754,1.0507417617840387,0.6845310699949745,A,833,Correct
2,new_learn,62,593,B,57.39149172574907,35.0076930700298,2.8695745862874538,0.5498995568396596,B,962,Incorrect
2,new_learn,62,594,A,65.6868933935333,79.114821429429,3.2843446696766647,1.2427327089638123,A,678,Correct
2,new_learn,62,595,B,71.34939245433122,56.93761890709591,3.567469622716561,0.8943740263571391,B,903,Incorrect
2,new_learn,62,596,B,65.57867797491016,32.599086108564556,3.2789338987455086,0.5120652471620375,B,592,Incorrect
2,new_learn,62,597,B,57.81041160329961,29.37577184029102,2.8905205801649805,0.4614335450349409,A,886,Incorrect
2,new_learn,62,598,A,20.821202531643614,43.738502781987606,1.0410601265821808,0.6870427950945449,A,613,Correct
2,new_learn,62,599,B,77.75121773375307,51.55689193468785,3.887560886687653,0.809853764719691,B,637,Incorrect
2,new_learn,62,600,B,27.6788129184254,50.79546788477498,1.38394064592127,0.7978933437123266,A,558,Incorrect
2,new_learn,62,601,A,55.511461196447684,76.51962609349204,2.775573059822384,1.2019674759537622,A,1222,Correct
2,new_learn,62,602,A,69.61302123733759,41.45472224211812,3.4806510618668796,0.6511692542622184,B,565,Incorrect
2,new_learn,62,603,A,35.33477747047549,75.5271334417834,1.7667388735237746,1.1863774378370135,A,1209,Correct
2,new_learn,62,604,A,48.11203062340461,71.90389771196318,2.4056015311702303,1.1294637840818775,A,772,Correct
2,new_learn,62,605,B,66.36092825177042,17.658956003812648,3.318046412588521,0.2773862322582159,B,671,Correct
2,new_learn,62,606,A,60.76717329911675,46.71192064874993,3.038358664955837,0.7337491337259108,B,1343,Incorrect
2,new_learn,62,607,B,38.913842109341275,29.780802923590713,1.9456921054670635,0.46779575841379006,A,530,Incorrect
2,new_learn,62,608,B,37.26451382666814,46.30752268356258,1.8632256913334073,0.7273968653431145,A,859,Incorrect
2,new_learn,62,609,B,30.575079606892032,48.10475001328427,1.5287539803446015,0.7556276462225368,B,1072,Correct
2,new_learn,62,610,B,38.0867090844736,42.64511542827993,1.90433545422368,0.6698679067048648,B,803,Correct
2,new_learn,62,611,A,79.114821429429,34.313106606466704,3.9557410714714503,0.5389890181835959,A,1566,Correct
2,new_learn,62,612,B,13.699216129905679,63.38451301737196,0.6849608064952839,0.9956416022337117,B,5090,Correct
2,new_learn,62,613,A,72.80811120659699,57.04635492198008,3.6404055603298495,0.8960820476848429,A,1289,Correct
2,new_learn,62,614,B,27.91853447012057,62.55517448613412,1.3959267235060284,0.982614383048333,B,1222,Correct
2,new_learn,62,615,A,67.85657826851912,51.84907159247113,3.392828913425956,0.8144433120517927,A,1211,Correct
2,new_learn,62,616,B,62.94924743341686,15.754569110271504,3.147462371670843,0.24747219288650818,A,1165,Incorrect
2,new_learn,62,617,B,33.73101212480797,53.67308624397887,1.6865506062403983,0.843094867197877,B,1006,Correct
2,new_learn,62,618,A,62.89122180109062,44.92696173463429,3.1445610900545313,0.7057110646681841,A,1112,Correct
2,new_learn,62,619,B,37.78842353410332,32.04210953787039,1.889421176705166,0.5033162796484654,B,998,Correct
2,new_learn,62,620,A,37.5213813477808,74.3823721151263,1.8760690673890401,1.1683955689673153,A,709,Correct
2,new_learn,62,621,B,23.81741891813493,61.22158506653659,1.1908709459067466,0.9616664094307695,B,3361,Correct
2,new_learn,62,622,B,48.12024279505333,20.58023496856802,2.406012139752667,0.3232735749320253,B,2217,Correct
2,new_learn,62,623,B,66.43235550318127,10.07379154990835,3.3216177751590634,0.15823874763493506,B,750,Correct
2,new_learn,62,624,B,54.9370837506168,18.19258737443539,2.7468541875308397,0.28576849422658324,B,647,Correct
2,new_learn,62,625,A,81.37683458743759,31.91474843707975,4.068841729371879,0.5013156961554804,A,902,Correct
2,new_learn,62,626,B,44.926032697651245,24.404152331409875,2.246301634882562,0.3833395284072175,B,1001,Correct
2,new_learn,62,627,B,35.135335723646776,40.19187495712525,1.7567667861823388,0.6313324954965213,A,1564,Incorrect
2,new_learn,62,628,B,20.36939101224398,55.62869008648113,1.018469550612199,0.8738134205225623,B,2170,Correct
2,new_learn,62,629,A,72.19318138415605,38.73429735166347,3.6096590692078023,0.6084369200097427,A,819,Correct
2,new_learn,62,630,B,43.65309050757717,25.538332856018627,2.1826545253788585,0.4011551944269948,B,936,Correct
2,new_learn,62,631,A,64.44634638982664,68.17541489970236,3.2223173194913324,1.0708969130217054,A,855,Correct
2,new_learn,62,632,A,36.354858909586966,81.80360621406649,1.8177429454793483,1.2849680415963183,B,2189,Incorrect
2,new_learn,62,633,B,52.06636139642106,24.617451584286854,2.6033180698210527,0.38669002523649,B,606,Correct
2,new_learn,62,634,A,40.92015553487181,75.65084539294844,2.0460077767435907,1.1883207006217202,A,637,Correct
2,new_learn,62,635,A,59.12327175609609,68.13864838641376,2.956163587804804,1.0703193859814775,A,783,Correct
2,new_learn,62,636,A,48.923312103857505,62.5555669756599,2.4461656051928755,0.9826205482593872,A,715,Correct
2,new_learn,62,637,B,49.186951703617986,20.317564809800302,2.459347585180899,0.31914756172651565,B,852,Correct
2,new_learn,62,638,B,47.63217959461764,28.336857780308932,2.381608979730882,0.4451143211421866,B,720,Correct
2,new_learn,62,639,A,79.40135462882486,33.10738153797159,3.970067731441243,0.5200495330964294,B,3424,Incorrect
2,new_learn,62,640,B,42.552510549455214,28.698326559006205,2.1276255274727607,0.45079225944047363,B,1011,Correct
2,new_learn,62,641,A,59.636405079458456,59.529064204967256,2.9818202539729226,0.9350803539070013,A,1005,Correct
2,new_learn,62,642,B,21.378601896018367,64.23137423410995,1.0689300948009184,1.0089440671192829,B,2445,Correct
2,new_learn,62,643,B,25.268219800481017,44.015495225639825,1.2634109900240509,0.6913937822249334,B,638,Correct
2,new_learn,62,644,A,60.917964346313944,61.85487152676489,3.045898217315697,0.9716140498861252,A,840,Correct
2,new_learn,62,645,A,43.578601395873754,78.98516476431922,2.178930069793688,1.2406960668308233,A,706,Correct
2,new_learn,62,646,B,50.29009640886906,36.671515812199075,2.5145048204434532,0.5760348233580328,B,1482,Correct
2,new_learn,62,647,B,42.41504633402507,34.79920497564055,2.1207523167012536,0.5466246335111886,B,664,Correct
2,new_learn,62,648,A,70.47715038812996,56.99598254802001,3.5238575194064983,0.8952908002849586,A,733,Correct
2,new_learn,62,649,B,37.83322954246748,48.943060646484,1.891661477123374,0.7687957988559693,A,1118,Incorrect
2,new_learn,62,650,A,73.85823678856755,42.86993292187472,3.6929118394283775,0.6733993316362441,A,530,Correct
2,new_learn,62,651,B,65.87800031926916,13.261878461004173,3.2939000159634584,0.2083170997294571,B,503,Correct
2,new_learn,62,652,A,75.7803843148583,51.09230916053702,3.789019215742915,0.8025561155684081,A,700,Correct
2,new_learn,62,653,A,44.439869296899545,75.04010689783905,2.221993464844977,1.17872724277422,A,1025,Correct
2,new_learn,62,654,B,45.09014280949587,30.348678770563453,2.254507140474794,0.47671593135879325,B,1541,Correct
2,new_learn,62,655,A,68.64498399773944,62.94469042336161,3.4322491998869724,0.9887328850825832,A,954,Correct
2,new_learn,62,656,B,40.685549920057554,34.314873825415745,2.0342774960028778,0.539016777593934,B,676,Correct
2,new_learn,62,657,A,36.70789479021441,87.93210465029851,1.8353947395107206,1.3812342699203335,A,649,Correct
2,new_learn,62,658,A,60.31696237573005,71.34241534171832,3.0158481187865025,1.1206440396344701,A,931,Correct
2,new_learn,62,659,A,43.33355630639122,64.30350267283933,2.166677815319561,1.0100770579854184,A,639,Correct
2,new_learn,62,660,A,68.55596307718142,42.76020641695727,3.427798153859071,0.6716757517274803,B,676,Incorrect
2,new_learn,62,661,A,45.12465634391304,77.9169982755106,2.256232817195652,1.2239173468605633,A,553,Correct
2,new_learn,62,662,A,52.06148339043912,74.74247893386755,2.603074169521956,1.1740521136486408,A,514,Correct
2,new_learn,62,663,B,40.55809983025577,30.699964038112398,2.0279049915127887,0.4822339074380237,B,921,Correct
2,new_learn,62,664,B,33.37280856394193,45.634728821146716,1.6686404281970966,0.7168286440653846,B,493,Correct
2,new_learn,62,665,A,61.61578716273927,52.19471370924501,3.080789358136963,0.8198726457259329,A,832,Correct
2,new_learn,62,666,A,87.20104497832457,31.867275090628723,4.3600522489162294,0.500569986573221,A,2549,Correct
2,new_learn,62,667,B,21.102091550628245,66.72561972647082,1.0551045775314123,1.0481235836945346,B,1723,Correct
2,new_learn,62,668,B,55.67790989870584,32.25475496270978,2.783895494935292,0.5066565061709398,B,1751,Correct
2,new_learn,62,669,B,37.338906159929174,36.06622474343111,1.8669453079964586,0.5665269334834079,B,612,Correct
2,new_learn,62,670,A,71.70387132242979,44.45989843790477,3.5851935661214895,0.6983744515593497,A,711,Correct
2,new_learn,62,671,A,37.263903368884925,76.83447030324666,1.8631951684442465,1.2069130372357142,A,1122,Correct
2,new_learn,62,672,B,53.76008060159568,38.45724666778472,2.688004030079784,0.6040850180440152,B,1659,Correct
2,new_learn,62,673,A,63.52311847985171,67.40705311042197,3.1761559239925856,1.0588275142591934,A,987,Correct
2,new_learn,62,674,B,43.99727453690303,40.17401411301373,2.1998637268451513,0.6310519380132831,B,723,Correct
2,new_learn,62,675,B,37.33606124614141,51.90778715854098,1.8668030623070706,0.8153656140068748,A,1045,Incorrect
2,new_learn,62,676,A,37.393458650161854,78.24844438586852,1.8696729325080925,1.2291236901873703,A,792,Correct
2,new_learn,62,677,B,48.090421217727595,37.85124849966851,2.40452106088638,0.5945660210788014,B,539,Correct
2,new_learn,62,678,B,11.209787420112349,62.5721740549117,0.5604893710056175,0.9828814116502623,B,804,Correct
2,new_learn,62,679,A,71.33829117064681,44.05236501816481,3.5669145585323405,0.6919729315716127,B,993,Incorrect
2,new_learn,62,680,A,57.69641039461336,59.905084383569914,2.884820519730668,0.9409868650604993,A,633,Correct
2,new_learn,62,681,B,24.03199521219792,45.75144346183053,1.201599760609896,0.718661993354078,B,1179,Correct
2,new_learn,62,682,B,50.984720510023905,29.13201226223201,2.5492360255011954,0.45760457853657927,A,1002,Incorrect
2,new_learn,62,683,B,29.37577184029102,42.18958839670039,1.468788592014551,0.6627125048252556,B,661,Correct
2,new_learn,62,684,A,78.7659674423754,45.5046892604499,3.93829837211877,0.7147859874225787,A,1384,Correct
2,new_learn,62,685,B,22.499476685694287,46.104225808714766,1.1249738342847144,0.7242034855005163,B,837,Correct
2,new_learn,62,686,B,64.9354963744262,22.763153370297033,3.2467748187213097,0.3575627770033145,B,1485,Correct
2,new_learn,62,687,B,17.59615447681594,66.13769887264971,0.879807723840797,1.0388885445182512,A,1052,Incorrect
2,new_learn,62,688,B,50.11584972733766,33.17998947374841,2.5057924863668832,0.5211900558845732,B,657,Correct
2,new_learn,62,689,A,30.94179475293453,86.17668416314673,1.5470897376467265,1.3536601893883482,A,871,Correct
2,new_learn,62,690,B,21.559985940099413,51.41453391080975,1.0779992970049705,0.807617610109716,B,675,Correct
2,new_learn,62,691,A,56.9410972234446,60.75529492624005,2.8470548611722304,0.9543419410347849,A,900,Correct
2,new_learn,62,692,A,75.52367627336247,50.255993486636974,3.7761838136681236,0.789419299682376,A,800,Correct
2,new_learn,62,693,A,65.79848182441573,67.42924479467459,3.2899240912207866,1.0591761004202875,A,704,Correct
2,new_learn,62,694,B,36.67753844926021,45.08582209020315,1.8338769224630107,0.7082064372981931,B,842,Correct
2,new_learn,62,695,B,33.96996353963869,39.50231833778926,1.6984981769819345,0.6205009654488205,B,716,Correct
2,new_learn,62,696,A,76.65757725572482,49.12791211363596,3.832878862786241,0.7716994389120189,A,786,Correct
2,new_learn,62,697,B,26.012409206241664,53.18935912262225,1.3006204603120832,0.8354964993438965,B,1046,Correct
2,new_learn,62,698,A,77.46708413811072,45.32722023955584,3.8733542069055362,0.7119983105611761,A,607,Correct
2,new_learn,62,699,A,42.86816492523214,65.6114004994596,2.143408246261607,1.0306214690042,A,3105,Correct
2,new_learn,62,700,B,22.294768871297602,58.21277691044703,1.1147384435648802,0.9144041614346097,B,1318,Correct
2,new_learn,62,701,B,46.7162021415203,39.783093922946364,2.3358101070760147,0.6249113780270052,B,658,Correct
2,new_learn,62,702,B,17.541222460307615,65.19851617155014,0.8770611230153808,1.024135897147486,B,1397,Correct
2,new_learn,62,703,B,36.68279320898344,35.33117067440723,1.834139660449172,0.5549807311672245,B,919,Correct
2,new_learn,62,704,B,46.40065907108534,35.66929409140299,2.320032953554267,0.5602919613814272,B,800,Correct
2,new_learn,62,705,A,42.036338108395285,77.9485751392407,2.1018169054197644,1.224413355076153,A,986,Correct
2,new_learn,62,706,B,30.63953939549672,52.30604909920157,1.5319769697748358,0.8216214979417933,B,755,Correct
2,new_learn,62,707,B,61.755538998760414,22.26308816865037,3.0877769499380205,0.3497077711842692,B,986,Correct
2,new_learn,62,708,B,58.27566072937611,18.22403111361588,2.9137830364688058,0.2862624113266373,B,614,Correct
2,new_learn,62,709,B,10.820709377238195,64.92462608501151,0.5410354688619098,1.019833641728682,B,1045,Correct
2,new_learn,62,710,A,36.97578125501613,88.38011786128078,1.8487890627508066,1.388271644981999,A,1281,Correct
2,new_learn,62,711,B,45.79737425801612,43.01716470910388,2.289868712900806,0.6757120431419144,B,1359,Correct
2,new_learn,62,712,A,36.0474047052938,81.36385003297346,1.80237023526469,1.2780603676568552,A,821,Correct
2,new_learn,62,713,B,50.75987762513871,36.93648445128559,2.537993881256935,0.580196941007962,B,1414,Correct
2,new_learn,62,714,B,60.4720634154274,14.896937089854177,3.02360317077137,0.23400054061237593,B,618,Correct
2,new_learn,62,715,B,67.1705026843966,12.860410281905303,3.3585251342198297,0.20201085231892166,B,702,Correct
2,new_learn,62,716,B,50.18837881738187,31.98599158325048,2.5094189408690935,0.5024347808786233,B,904,Correct
2,new_learn,62,717,B,65.03340007098747,13.725872569201712,3.251670003549373,0.2156055021375688,B,611,Correct
2,new_learn,62,718,A,72.68884617195984,40.271462635316595,3.6344423085979916,0.6325826558221322,B,670,Incorrect
2,new_learn,62,719,B,22.38922656651821,52.74051888422508,1.1194613283259105,0.8284461333659765,B,939,Correct
2,new_learn,62,720,B,51.58575461648675,29.213383728227754,2.5792877308243374,0.4588827585354996,B,2101,Correct
2,new_learn,62,721,B,49.122614969841905,25.080809832627693,2.456130748492095,0.3939684395813291,B,558,Correct
2,new_learn,62,722,B,20.728565899127243,48.65530626130248,1.0364282949563621,0.7642757635433466,B,1476,Correct
2,new_learn,62,723,B,48.04436954202848,45.319945745835,2.4022184771014237,0.7118840430810162,A,1286,Incorrect
2,new_learn,62,724,B,67.05957486117671,19.428398621083232,3.3529787430588356,0.30518057189504577,B,701,Correct
2,new_learn,62,725,B,46.276604915174175,42.86548225937117,2.3138302457587088,0.6733294207931203,B,663,Correct
2,new_learn,62,726,A,74.30667103417073,56.789266993436755,3.715333551708537,0.8920437199466511,A,711,Correct
2,new_learn,62,727,B,30.62112326340059,57.65237054264612,1.5310561631700295,0.9056013187940682,A,3572,Incorrect
2,new_learn,62,728,B,59.02583728879169,25.196100536373365,2.9512918644395847,0.39577942172090197,B,640,Correct
2,new_learn,62,729,A,67.53662139957495,46.88373646189577,3.376831069978748,0.7364480102076584,A,1255,Correct
2,new_learn,62,730,A,61.111995041857924,67.12151623689743,3.0555997520928964,1.054342311538225,A,937,Correct
2,new_learn,62,731,B,18.843638011417834,67.90220914675301,0.9421819005708918,1.0666054070897846,B,843,Correct
2,new_learn,62,732,A,82.82117110529914,41.87263463524309,4.141058555264957,0.657733806782646,A,1351,Correct
2,new_learn,62,733,A,51.90277072188536,64.1841780159942,2.595138536094268,1.0082027106587346,B,989,Incorrect
2,new_learn,62,734,A,48.91075173152535,68.62500976745041,2.4455375865762674,1.07795913268975,A,578,Correct
2,new_learn,62,735,B,53.34747864309101,26.39810297465398,2.6673739321545504,0.414660431869399,B,684,Correct
2,new_learn,62,736,A,33.583467249935964,84.54202747195573,1.6791733624967982,1.327983062127413,B,865,Incorrect
2,new_learn,62,737,A,45.12296847232515,64.06772816658014,2.2561484236162572,1.0063735207015803,B,2060,Incorrect
2,new_learn,62,738,B,66.29213321175406,16.469349915006106,3.314606660587703,0.25869994351191433,B,841,Correct
2,new_learn,62,739,A,44.19997315125705,66.69227939598781,2.2099986575628523,1.047599875007966,A,928,Correct
2,new_learn,62,740,B,65.93082337969958,11.170016423332783,3.296541168984979,0.17545820768009804,B,696,Correct
2,new_learn,62,741,B,56.048276671593754,18.976684880873336,2.8024138335796875,0.29808506905620086,B,814,Correct
2,new_learn,62,742,A,60.7645415989781,46.775953829165765,3.038227079948905,0.7347549645718126,A,662,Correct
2,new_learn,62,743,A,85.35964465745187,31.757480946070643,4.267982232872594,0.4988453441834669,A,879,Correct
2,new_learn,62,744,A,35.00580630845165,88.98329074499141,1.7502903154225828,1.397746262483548,A,1007,Correct
2,new_learn,62,745,B,29.913264116955872,59.92630018431834,1.4956632058477937,0.9413201220793558,A,1730,Incorrect
2,new_learn,62,746,B,32.36829903988081,52.777168922265076,1.6184149519940405,0.8290218308172773,B,1467,Correct
2,new_learn,62,747,A,81.15210774119899,32.619288743577,4.057605387059949,0.5123825894107288,A,877,Correct
2,new_learn,62,748,A,40.009030612816446,80.0175993739668,2.0004515306408224,1.2569135117557266,A,789,Correct
2,new_learn,62,749,A,79.93564409222822,41.991703865892816,3.996782204611411,0.6596041418840349,A,650,Correct
2,new_learn,62,750,B,54.91670800697976,18.05929237869404,2.745835400348988,0.2836747013296767,B,712,Correct
2,new_learn,62,751,A,87.71470588111055,38.99747418488327,4.385735294055527,0.6125708920389344,A,889,Correct
2,new_learn,62,752,A,63.858190531951536,69.00034722695776,3.192909526597577,1.0838549197167768,A,572,Correct
2,new_learn,62,753,A,66.93840383512995,54.637202140665465,3.3469201917564977,0.8582391642890757,A,806,Correct
2,new_learn,62,754,A,46.436299020928466,75.87334073884601,2.321814951046423,1.1918156493423688,A,573,Correct
2,new_learn,62,755,B,41.29744702019564,27.637095661413355,2.064872351009782,0.43412248348227267,B,538,Correct
2,new_learn,62,756,A,74.34343032994364,53.1892331932142,3.7171715164971824,0.8354945212493806,A,987,Correct
2,new_learn,62,757,A,32.35198724585925,88.39958092788851,1.6175993622929625,1.3885773701173547,A,628,Correct
2,new_learn,62,758,B,16.073643845257408,63.79362941796148,0.8036821922628704,1.0020679876264875,B,651,Correct
2,new_learn,62,759,B,46.307739257995365,32.87238048472503,2.315386962899768,0.5163581451841032,B,751,Correct
2,new_learn,62,760,A,65.56716030066161,42.64030359592766,3.2783580150330804,0.669792322619024,A,807,Correct
2,new_learn,62,761,A,85.24951434691748,33.69049957001967,4.262475717345874,0.5292091297247193,A,798,Correct
2,new_learn,62,762,A,65.57496801419794,51.746610491914964,3.2787484007098966,0.8128338568478628,A,1309,Correct
2,new_learn,62,763,A,82.75242306874851,34.782500834149374,4.137621153437426,0.5463622454702226,A,1128,Correct
2,new_learn,62,764,A,75.7684933529942,45.06543625407358,3.7884246676497098,0.7078862173330834,A,805,Correct
2,new_learn,62,765,B,20.021066418003226,54.01097529137877,1.0010533209001613,0.848402415943077,B,756,Correct
2,new_learn,62,766,A,37.5846884628032,74.87843587904828,1.87923442314016,1.1761877203495625,A,913,Correct
2,new_learn,62,767,B,36.35549379207848,51.180660701181445,1.8177746896039237,0.8039439383235174,B,921,Correct
2,new_learn,62,768,A,47.57154698301341,61.72522894518674,2.3785773491506705,0.9695776289767336,A,814,Correct
2,new_learn,62,769,A,64.64818720606644,64.05627014378082,3.232409360303322,1.0061935385003253,A,545,Correct
2,new_learn,62,770,A,61.219958200777775,61.57858261022582,3.0609979100388887,0.9672741137337881,A,892,Correct
2,new_learn,62,771,B,49.30592051845402,24.87572946543797,2.4652960259227013,0.39074704470653543,B,734,Correct
2,new_learn,62,772,A,62.745232612215496,45.41014370985448,3.137261630610775,0.713300869386678,A,903,Correct
2,new_learn,62,773,A,85.51122357836888,31.180297673483054,4.275561178918444,0.48977897053878644,B,978,Incorrect
2,new_learn,62,774,B,34.51720458646575,35.76255538795486,1.7258602293232876,0.5617569064019853,B,765,Correct
2,new_learn,62,775,A,32.315486844519846,81.20096100050216,1.6157743422259925,1.2755017127180444,A,775,Correct
2,new_learn,62,776,B,42.96287592773576,33.35613266887344,2.1481437963867878,0.5239569067234966,B,705,Correct
2,new_learn,62,777,B,26.07611065400402,42.94377274965546,1.303805532700201,0.6745592049387357,B,937,Correct
2,new_learn,62,778,B,55.863247314383415,20.63634466147812,2.793162365719171,0.32415494392723304,B,1113,Correct
2,new_learn,62,779,B,32.292388192249774,56.88319126043479,1.6146194096124886,0.8935190788826254,B,1269,Correct
2,new_learn,62,780,A,73.79881561819023,36.87447215455353,3.6899407809095117,0.5792228541287339,A,834,Correct
2,new_learn,62,781,A,63.34820691754215,59.45281856658057,3.1674103458771077,0.9338826902198818,A,763,Correct
2,new_learn,62,782,A,75.03627309103756,56.87854320059937,3.751813654551878,0.8934460673294631,A,623,Correct
2,new_learn,62,783,B,48.47926009934252,35.210528572314544,2.423963004967126,0.5530856894589844,B,2150,Correct
2,new_learn,62,784,B,46.86043694363106,23.039064149067812,2.3430218471815527,0.36189677338147713,B,695,Correct
2,new_learn,62,785,A,40.186553560558956,79.4873421570118,2.009327678027948,1.2485842508692326,A,871,Correct
2,new_learn,62,786,B,22.38270756404422,51.924318484406214,1.119135378202211,0.8156252874663363,B,956,Correct
2,new_learn,62,787,A,62.57118737031226,44.749081906190874,3.128559368515613,0.7029169348568859,A,4379,Correct
2,new_learn,62,788,B,25.562715456908627,55.11696785103757,1.2781357728454312,0.8657753064448221,B,1648,Correct
2,new_learn,62,789,B,51.2046518856723,21.150458820238626,2.560232594283615,0.3322306302485755,B,775,Correct
2,new_learn,62,790,A,67.31051690712758,63.264277228438004,3.365525845356379,0.9937529428776444,A,553,Correct
2,new_learn,62,791,A,61.68548613238664,59.71611756091389,3.0842743066193323,0.9380185811513576,A,698,Correct
2,new_learn,62,792,B,57.59235698958584,18.721293145184674,2.879617849479292,0.29407338505306563,B,942,Correct
2,new_learn,62,793,B,63.02999603339329,23.3257968764583,3.1514998016696643,0.3664007605310457,B,722,Correct
2,new_learn,62,794,A,64.17453551517899,59.684091070648165,3.2087267757589495,0.9375155102186623,A,689,Correct
2,new_learn,62,795,A,30.714343045760266,85.12070646962277,1.5357171522880133,1.3370729305667004,A,758,Correct
2,new_learn,62,796,A,59.60239404062382,68.90685249458356,2.980119702031191,1.0823863078948963,A,781,Correct
2,new_learn,62,797,A,86.41164576397155,41.70995765064817,4.320582288198577,0.6551784826840884,A,1279,Correct
2,new_learn,62,798,B,21.609659106485882,63.72756733170981,1.080482955324294,1.001030286802242,B,961,Correct
2,new_learn,62,799,B,24.85322564172352,48.87926848202558,1.242661282086176,0.7677937538798734,B,804,Correct
2,new_learn,62,800,A,54.032092391560624,75.00422155082944,2.701604619578031,1.178163557061535,A,802,Correct
2,new_learn,62,801,A,73.45198366336794,38.74682891062658,3.6725991831683973,0.6086337652776255,A,798,Correct
2,new_learn,62,802,B,44.2912452996152,29.40226586435105,2.21456226498076,0.46184971219169607,B,1463,Correct
2,new_learn,62,803,A,45.94960714919521,73.53831337483574,2.29748035745976,1.15513712527884,A,638,Correct
2,new_learn,62,804,A,66.34061730390091,57.57335766806532,3.3170308651950453,0.904360187462458,A,549,Correct
2,new_learn,62,805,A,70.51021415094012,52.219717454032626,3.5255107075470056,0.8202654036306181,A,564,Correct
2,new_learn,62,806,A,42.3797116125251,83.92820140026211,2.118985580626255,1.3183411047403402,A,653,Correct
2,new_learn,62,807,B,59.66541449219642,27.7939876910673,2.983270724609821,0.4365869377211108,A,3978,Incorrect
2,new_learn,62,808,A,78.56853239970087,51.48186104929477,3.9284266199850437,0.8086751823279749,A,637,Correct
2,new_learn,62,809,B,14.225055945630558,56.94383271653157,0.7112527972815279,0.8944716326475084,B,740,Correct
2,new_learn,62,810,B,48.06768285294467,44.6817266154755,2.4033841426472335,0.7018589204244268,A,1518,Incorrect
2,new_learn,62,811,A,45.32036046216979,78.23854981818693,2.266018023108489,1.2289682666816757,A,593,Correct
2,new_learn,62,812,B,56.93761890709591,28.650607545668777,2.8468809453547954,0.45004269093178656,B,813,Correct
2,new_learn,62,813,A,79.98036882666122,32.56049356903283,3.999018441333061,0.5114590369686561,A,931,Correct
2,new_learn,62,814,B,34.74188788668419,41.391811077416115,1.7370943943342096,0.6501810479979354,B,899,Correct
2,new_learn,62,815,A,61.99301256754341,54.42428966557311,3.0996506283771703,0.854894742951037,A,773,Correct
2,new_learn,62,816,A,73.07963683005661,57.835602508026426,3.653981841502831,0.9084795197757761,A,708,Correct
2,new_learn,62,817,B,38.33134115230075,36.12334350018349,1.9165670576150375,0.5674241528163851,B,1081,Correct
2,new_learn,62,818,B,15.92195587549189,57.94867078402382,0.7960977937745944,0.9102555921019136,B,715,Correct
2,new_learn,62,819,A,73.61887067462477,52.24481028429479,3.6809435337312384,0.8206595608866651,A,850,Correct
2,new_learn,62,820,B,36.24569919378306,33.72222420004806,1.812284959689153,0.5297074590478946,B,774,Correct
2,new_learn,62,821,B,58.00013844783096,30.294146372992856,2.9000069223915483,0.47585933846084116,B,834,Correct
2,new_learn,62,822,A,67.45461734398269,60.555737678562075,3.3727308671991345,0.9512073031184064,A,3562,Correct
2,new_learn,62,823,B,33.391686973839185,48.71031273155636,1.669584348691959,0.765139803157594,B,887,Correct
2,new_learn,62,824,B,12.65780778955024,60.62654016150176,0.632890389477512,0.9523194659197023,B,655,Correct
2,new_learn,62,825,A,61.600921867343004,70.43807189816685,3.0800460933671503,1.1064386460415532,A,904,Correct
2,new_learn,62,826,A,73.32900159324046,45.197022623508815,3.6664500796620234,0.709953171190735,A,673,Correct
2,new_learn,62,827,A,76.15727773354475,53.559866696088115,3.807863886677237,0.8413164186983954,A,551,Correct
2,new_learn,62,828,B,36.76666512172399,46.46061726193359,1.8383332560861994,0.7298016693566887,B,573,Correct
2,new_learn,62,829,B,62.265253329873175,13.314872937718206,3.113262666493659,0.2091495350230853,B,700,Correct
2,new_learn,62,830,B,23.718918468186523,63.44485440384189,1.1859459234093261,0.9965894425159185,B,1003,Correct
2,new_learn,62,831,A,46.928427055525425,75.00728787233746,2.346421352776271,1.1782117227271505,B,1955,Incorrect
2,new_learn,62,832,B,15.072193236111403,57.82286074663146,0.7536096618055701,0.9082793726558152,B,661,Correct
2,new_learn,62,833,A,66.35677183740894,50.35880112768765,3.317838591870447,0.7910341983316644,A,879,Correct
2,new_learn,62,834,B,49.37459575985959,27.021968653723874,2.468729787992979,0.424460091040363,B,730,Correct
2,new_learn,62,835,A,64.20438379049746,63.23759185258619,3.2102191895248726,0.9933337699739725,A,561,Correct
2,new_learn,62,836,A,75.37587475145767,50.87925714374187,3.7687937375728837,0.7992095023144273,A,2607,Correct
2,new_learn,62,837,B,17.825203721559454,63.90988641744372,0.8912601860779727,1.0038941483039965,B,640,Correct
2,new_learn,62,838,A,65.62706677611389,49.28641727501727,3.281353338805695,0.7741892321647768,A,496,Correct
2,new_learn,62,839,A,48.93129784640558,66.02421755185537,2.446564892320279,1.0371059840996155,A,1135,Correct
2,new_learn,62,840,B,38.84550425995584,37.26837861828937,1.942275212997792,0.585410322392104,B,715,Correct
2,new_learn,62,841,A,70.72119421030379,45.18097323991678,3.5360597105151896,0.7097010680627979,A,762,Correct
2,new_learn,62,842,A,74.33485315380112,40.805342163207,3.716742657690056,0.6409688158357447,A,633,Correct
2,new_learn,62,843,B,27.866399728221555,41.07336434754223,1.393319986411078,0.6451788984622779,B,678,Correct
2,new_learn,62,844,A,62.287243021316556,64.01025810194236,3.1143621510658277,1.0054707830372431,A,705,Correct
2,new_learn,62,845,A,43.50912112665105,81.65028886723297,2.1754560563325525,1.2825597383439178,A,627,Correct
2,new_learn,62,846,A,59.30148979158173,61.57487856455525,2.9650744895790866,0.9672159307204519,A,809,Correct
2,new_learn,62,847,A,52.79269087749278,59.796911521120656,2.639634543874639,0.9392876897105578,A,652,Correct
2,new_learn,62,848,A,81.99903744129034,38.02882556217281,4.099951872064517,0.5973553950538493,A,2225,Correct
2,new_learn,62,849,B,45.72093319003909,47.58426994364161,2.2860466595019546,0.7474519644068904,B,944,Correct
2,new_learn,62,850,B,46.171150326767965,37.15206300675544,2.3085575163383982,0.5835832410386401,B,613,Correct
2,new_learn,62,851,A,76.26221955032435,39.35494158374706,3.8131109775162173,0.6181859768097762,A,703,Correct
2,new_learn,62,852,B,63.63457436484717,16.382911585814284,3.181728718242358,0.2573421734120263,B,1140,Correct
2,new_learn,62,853,A,74.88931993819664,56.3646984817394,3.744465996909832,0.8853746133601812,A,724,Correct
2,new_learn,62,854,A,45.74137905054145,83.09836021507863,2.2870689525270724,1.3053059898852468,A,672,Correct
2,new_learn,62,855,B,32.74708844308903,41.206943077142945,1.6373544221544512,0.6472771482402253,B,719,Correct
2,new_learn,62,856,B,36.25593755826934,30.910677318697694,1.812796877913467,0.48554378390952657,B,486,Correct
2,new_learn,62,857,B,48.22673459344851,27.09418981357163,2.4113367296724255,0.4255945383664202,B,700,Correct
2,new_learn,62,858,B,33.82142508478249,40.18544217360403,1.6910712542391246,0.6312314495692594,B,655,Correct
2,new_learn,62,859,B,31.354198384757872,38.958088126934506,1.5677099192378936,0.6119522172874059,B,718,Correct
2,new_learn,62,860,B,19.082681908627414,60.6525039580239,0.9541340954313707,0.9527273042817688,B,1564,Correct
2,new_learn,62,861,B,55.79532954029691,22.64411801035166,2.7897664770148456,0.3556929739417055,B,725,Correct
2,new_learn,62,862,A,39.712584663065066,70.56085923151903,1.9856292331532532,1.1083673849636186,A,856,Correct
2,new_learn,62,863,A,35.058281067593974,76.77859789935422,1.7529140533796987,1.2060353955676797,A,672,Correct
2,new_learn,62,864,A,75.77142418052452,36.011927303357275,3.788571209026226,0.5656740312891845,A,794,Correct
2,new_learn,62,865,B,50.51635333409047,19.015778015141265,2.5258176667045236,0.2986991425733105,B,579,Correct
2,new_learn,62,866,A,60.6179700611739,47.22253251501184,3.0308985030586952,0.7417698061653316,A,779,Correct
2,new_learn,62,867,B,22.721950171419792,49.54296890453152,1.1360975085709897,0.7782191357375188,B,520,Correct
2,new_learn,62,868,B,51.802565403081104,21.80823111853735,2.590128270154055,0.3425628933489263,B,669,Correct
2,new_learn,62,869,A,36.20522105505219,78.48925264132602,1.8102610527526095,1.2329062974187155,A,890,Correct
2,new_learn,62,870,B,52.68480726290461,29.30728885477089,2.6342403631452305,0.4603578168139112,A,2231,Incorrect
2,new_learn,62,871,B,40.98531134288956,42.71603592460677,2.049265567144478,0.6709819232561116,B,701,Correct
2,new_learn,62,872,A,88.56588894344972,31.064815550767264,4.428294447172487,0.48796498159706203,A,721,Correct
2,new_learn,62,873,A,69.79038198603394,63.3900647819252,3.4895190993016967,0.9957288091473864,A,760,Correct
2,new_learn,62,874,B,34.28405363236786,52.29525209958715,1.7142026816183928,0.8214518990684462,B,564,Correct
2,new_learn,62,875,A,69.73673323253854,52.199225712860496,3.486836661626927,0.8199435201129899,A,1153,Correct
2,new_learn,62,876,A,54.92190889664319,63.56933796702012,2.746095444832159,0.9985448257537856,A,912,Correct
2,new_learn,62,877,A,66.124227196855,64.93998813682748,3.3062113598427505,1.0200749482743277,A,481,Correct
2,new_learn,62,878,A,48.17957290316419,73.27663397245632,2.40897864515821,1.1510266748382854,A,747,Correct
2,new_learn,62,879,B,55.35396697292951,18.787232889753327,2.767698348646476,0.29510916413864796,B,591,Correct
2,new_learn,62,880,B,61.948547845331795,27.734160031776682,3.0974273922665896,0.4356471670465665,B,2002,Correct
2,new_learn,62,881,B,66.36923782765292,17.146423603852583,3.318461891382646,0.2693353921460095,B,1553,Correct
2,new_learn,62,882,A,40.171921834437,71.63015015667071,2.00859609172185,1.1251637675386523,A,656,Correct
2,new_learn,62,883,B,66.98398563138218,11.21485413258624,3.3491992815691094,0.1761625167700703,B,853,Correct
2,new_learn,62,884,B,37.419714716786764,38.1450547123588,1.870985735839338,0.5991811182756357,B,597,Correct
2,new_learn,62,885,B,45.60814379895223,27.06945876955575,2.2804071899476113,0.4252060640354407,B,593,Correct
2,new_learn,62,886,A,73.47671163309526,39.91072798802303,3.673835581654763,0.6269162492329685,A,1275,Correct
2,new_learn,62,887,A,44.308548215955774,70.46698146801958,2.2154274107977887,1.106892756502892,A,802,Correct
2,new_learn,62,888,B,45.215496011658615,25.371795542820962,2.2607748005829307,0.398539232428543,B,1163,Correct
2,new_learn,62,889,A,82.06448955392624,39.4787096653308,4.103224477696312,0.6201301212890379,A,764,Correct
2,new_learn,62,890,A,48.52231843846096,79.98668545333614,2.426115921923048,1.2564279170259918,A,647,Correct
2,new_learn,62,891,A,78.5518843586155,40.041691208778246,3.927594217930775,0.6289734146940437,A,845,Correct
2,new_learn,62,892,A,51.33268054475062,66.18435236251108,2.566634027237531,1.0396213758233155,A,631,Correct
2,new_learn,62,893,A,35.0142328042831,77.86286563209869,1.750711640214155,1.223067033286252,A,531,Correct
2,new_learn,62,894,B,22.386979581526294,55.914969760368024,1.1193489790763147,0.8783102911243381,B,819,Correct
2,new_learn,62,895,A,49.32714521187557,78.86102426890906,2.4663572605937785,1.2387460724888555,A,694,Correct
2,new_learn,62,896,A,42.14728576988635,84.30884258521917,2.107364288494318,1.3243202024919143,A,606,Correct
2,new_learn,62,897,B,46.88649857640584,42.18170612873458,2.344324928820292,0.6625886904495806,B,1122,Correct
2,new_learn,62,898,B,27.918116537101763,48.988492209264066,1.3959058268550881,0.7695094361753241,B,597,Correct
