experiment,condition,subject,trial,cat,x,y,xt,yt,resp,rt,fb
2,relearn,63,0,B,84.42249761973645,60.02950756330711,4.221124880986822,0.9429412997974926,A,1849,Incorrect
2,relearn,63,1,A,31.03823607397571,45.73368173943432,1.5519118036987856,0.7183829928711026,B,1168,Incorrect
2,relearn,63,2,A,43.161112594085196,64.33078386393,2.1580556297042595,1.0105055899329765,B,1431,Incorrect
2,relearn,63,3,A,17.965714071199297,35.18913063495634,0.898285703559965,0.5527495714449518,A,1009,Correct
2,relearn,63,4,A,44.95071055146823,70.51482271120389,2.2475355275734112,1.1076442449935242,A,1006,Correct
2,relearn,63,5,B,39.81626419282265,13.98862105702758,1.9908132096411324,0.2197327457330466,A,795,Incorrect
2,relearn,63,6,A,16.43465333693283,45.57813771464036,0.8217326668466414,0.7159397130430902,A,880,Correct
2,relearn,63,7,A,51.83213117540928,65.70967406491825,2.5916065587704638,1.0321651465606345,B,1039,Incorrect
2,relearn,63,8,A,57.52171524503709,69.14239140949425,2.8760857622518547,1.0860861445184857,B,1117,Incorrect
2,relearn,63,9,B,32.64201802041073,11.513263781205179,1.6321009010205365,0.1808499245693782,A,978,Incorrect
2,relearn,63,10,B,67.75910087813045,38.97285837101242,3.3879550439065222,0.6121842277388406,B,2002,Correct
2,relearn,63,11,A,38.99515422133245,46.357950039894114,1.9497577110666224,0.72818897640407,B,586,Incorrect
2,relearn,63,12,B,72.4003767719183,51.139638413062976,3.6200188385959153,0.8032995617285852,B,840,Correct
2,relearn,63,13,B,80.05944157420039,62.78488735038954,4.00297207871002,0.9862227042822325,B,991,Correct
2,relearn,63,14,A,42.90388682224328,61.53062808380069,2.1451943411121643,0.9665208457941704,A,1044,Correct
2,relearn,63,15,A,58.42625297156934,70.41525024661576,2.921312648578467,1.1060801643772746,A,1479,Correct
2,relearn,63,16,A,25.905752565367365,41.16250984519533,1.2952876282683683,0.6465791926649159,A,1226,Correct
2,relearn,63,17,A,44.42277884128217,70.45570584592004,2.2211389420641083,1.1067156394451292,A,1096,Correct
2,relearn,63,18,B,71.50893714206062,48.055120685510744,3.575446857103031,0.7548480705648573,B,968,Correct
2,relearn,63,19,A,62.211181773802224,77.774712189443,3.110559088690111,1.2216823222470732,B,673,Incorrect
2,relearn,63,20,B,65.69950079837298,55.712791613906276,3.284975039918649,0.8751344842261348,B,724,Correct
2,relearn,63,21,B,56.018057241694436,33.643837333632426,2.800902862084722,0.5284761610295482,A,1595,Incorrect
2,relearn,63,22,B,63.143840583641875,32.922681641096055,3.1571920291820934,0.5171482739007146,B,993,Correct
2,relearn,63,23,B,49.84958295051756,40.79664320821532,2.492479147525878,0.6408321729702658,B,999,Correct
2,relearn,63,24,A,53.53879896564296,73.09204351421218,2.676939948282148,1.1481271347005724,A,961,Correct
2,relearn,63,25,B,57.24874272584366,30.345254071125254,2.8624371362921828,0.47666213630581433,B,976,Correct
2,relearn,63,26,A,46.72099194638361,71.8437228332225,2.3360495973191804,1.1285185592969653,B,1053,Incorrect
2,relearn,63,27,B,49.23134370116371,30.30780287407751,2.4615671850581857,0.4760738542782476,B,713,Correct
2,relearn,63,28,A,40.065410704889864,58.40254084525813,2.0032705352444933,0.9173849663522038,A,614,Correct
2,relearn,63,29,B,44.568262304374336,17.378338917856723,2.228413115218717,0.2729783093796614,B,782,Correct
2,relearn,63,30,B,33.17374613197204,18.71831275829539,1.658687306598602,0.2940265692452845,A,788,Incorrect
2,relearn,63,31,B,74.23865269902304,42.58453598629792,3.7119326349511517,0.6689163270554186,B,647,Correct
2,relearn,63,32,A,50.05623707685635,57.15960520310402,2.5028118538428172,0.8978609789408225,B,739,Incorrect
2,relearn,63,33,A,59.50418017917488,79.21075901674806,2.9752090089587444,1.2442396930614357,B,625,Incorrect
2,relearn,63,34,B,66.10130029762233,51.82825653015901,3.3050650148811167,0.8141163498175739,B,592,Correct
2,relearn,63,35,B,83.31896139871145,68.28950983585813,4.165948069935572,1.072689112087899,B,1109,Correct
2,relearn,63,36,B,64.45136641876393,51.54624262055531,3.2225683209381963,0.8096864856844683,B,1613,Correct
2,relearn,63,37,A,47.915969440680556,67.38741922340557,2.395798472034028,1.058519105883133,A,731,Correct
2,relearn,63,38,B,41.83598012704367,28.625519660528266,2.0917990063521836,0.44964861135352896,A,651,Incorrect
2,relearn,63,39,A,48.42303569238045,67.30957325336387,2.4211517846190223,1.0572963042451597,B,707,Incorrect
2,relearn,63,40,A,30.241762345223982,56.830095644121926,1.512088117261199,0.8926850548918939,A,691,Correct
2,relearn,63,41,B,50.889965253991875,40.85679332068514,2.5444982626995936,0.6417770087275048,A,2033,Incorrect
2,relearn,63,42,B,57.508691762897456,39.57461983589119,2.8754345881448726,0.6216366747252233,B,868,Correct
2,relearn,63,43,B,38.980263439659126,29.282233689775808,1.9490131719829562,0.45996425120249607,A,743,Incorrect
2,relearn,63,44,A,29.554427206456488,46.03152876932026,1.4777213603228245,0.7230615630760187,A,761,Correct
2,relearn,63,45,B,78.75982404559163,53.49601718876497,3.9379912022795818,0.8403134729826864,B,1612,Correct
2,relearn,63,46,B,63.38660630761909,50.540514155212165,3.1693303153809547,0.7938885398933274,B,703,Correct
2,relearn,63,47,B,55.308830081434564,48.42087864865729,2.7654415040717284,0.760593383214923,B,628,Correct
2,relearn,63,48,A,49.70706284827485,70.21748463149034,2.4853531424137425,1.1029736693592211,B,715,Incorrect
2,relearn,63,49,A,60.087458264599164,81.02728762101925,3.004372913229958,1.2727736576525062,B,1116,Incorrect
2,relearn,63,50,A,32.759367450676486,43.414602639101346,1.637968372533824,0.6819549835476041,B,649,Incorrect
2,relearn,63,51,B,49.75625658442477,39.518884804158894,2.4878128292212383,0.6207611908940345,B,1202,Correct
2,relearn,63,52,A,63.550871180906995,76.06190668580325,3.1775435590453496,1.1947776363107594,B,761,Incorrect
2,relearn,63,53,A,65.74489626624958,87.00079261631396,3.2872448133124794,1.3666052546995053,B,1259,Incorrect
2,relearn,63,54,A,10.579710227924512,31.89799613857146,0.5289855113962255,0.5010525516658585,A,1079,Correct
2,relearn,63,55,B,78.78291928150384,50.95825628769299,3.939145964075192,0.800450417965811,B,914,Correct
2,relearn,63,56,B,72.8628761868421,63.218101442909806,3.6431438093421047,0.9930276153346986,B,667,Correct
2,relearn,63,57,A,18.624527367812274,38.42391542862502,0.9312263683906137,0.6035614521636194,A,718,Correct
2,relearn,63,58,A,42.31031850162201,72.5425264641733,2.1155159250811004,1.13949534106345,B,1398,Incorrect
2,relearn,63,59,A,55.10704353063913,84.22837432778562,2.755352176531957,1.3230562100599121,B,891,Incorrect
2,relearn,63,60,A,11.234326976388466,34.177804195779046,0.5617163488194233,0.5368636928864493,A,690,Correct
2,relearn,63,61,B,52.743047334861814,31.10401526373228,2.6371523667430905,0.4885807292484306,B,865,Correct
2,relearn,63,62,B,77.71654603051542,57.94763929389331,3.885827301525771,0.9102393894928321,B,958,Correct
2,relearn,63,63,B,52.17778684992198,44.64446505990552,2.608889342496099,0.701273617278227,A,1075,Incorrect
2,relearn,63,64,B,81.03869672837237,64.40023589969036,4.051934836418619,1.0115965399595845,B,510,Correct
2,relearn,63,65,B,66.03027755406858,54.84289973263439,3.3015138777034285,0.8614702545080293,B,632,Correct
2,relearn,63,66,A,18.40983292163233,38.407308688096,0.9204916460816165,0.6033005940933892,A,754,Correct
2,relearn,63,67,A,53.01384171346869,71.55660879718361,2.650692085673435,1.1240085825651542,B,749,Incorrect
2,relearn,63,68,A,55.533088770517026,68.43409361553266,2.776654438525851,1.0749602287881679,B,868,Incorrect
2,relearn,63,69,B,69.85142361298952,52.53369848747637,3.4925711806494757,0.825197406170785,B,625,Correct
2,relearn,63,70,B,70.97847989139554,58.45792955465178,3.5489239945697766,0.9182550101648184,B,761,Correct
2,relearn,63,71,B,51.317896523681284,24.802979373689972,2.565894826184064,0.389604288937618,B,789,Correct
2,relearn,63,72,B,51.112177170502626,21.46028638582558,2.5556088585251313,0.3370973902682134,B,850,Correct
2,relearn,63,73,A,22.362690095265105,54.261574104298994,1.1181345047632554,0.8523388128914193,A,700,Correct
2,relearn,63,74,A,51.278384089891816,78.35528454534114,2.5639192044945904,1.230801931487908,B,1090,Incorrect
2,relearn,63,75,A,26.523419736502863,56.60327460688037,1.3261709868251432,0.8891221583705051,B,598,Incorrect
2,relearn,63,76,B,47.6454285037659,16.997707081486723,2.382271425188295,0.26699935847534945,B,1705,Correct
2,relearn,63,77,B,67.35058570308465,51.50641776434004,3.3675292851542324,0.8090609183058873,B,567,Correct
2,relearn,63,78,A,22.193259962042603,40.59608997386484,1.1096629981021302,0.6376818901318202,A,501,Correct
2,relearn,63,79,B,78.00081058457101,62.04945019991818,3.9000405292285505,0.9746704845367432,B,659,Correct
2,relearn,63,80,A,24.488035710869063,37.70879112646139,1.2244017855434532,0.5923283058932154,A,653,Correct
2,relearn,63,81,B,76.63949908846025,47.027062633682405,3.8319749544230124,0.7386993724494185,B,698,Correct
2,relearn,63,82,B,54.4489031672103,40.12231272758991,2.722445158360515,0.6302398145501436,B,839,Correct
2,relearn,63,83,B,43.19984430079137,26.25615916980064,2.1599922150395683,0.4124307837966499,A,989,Incorrect
2,relearn,63,84,A,38.51689069977352,65.48849686197137,1.925844534988676,1.0286909031810374,A,1025,Correct
2,relearn,63,85,A,49.31266285210722,78.7326695950446,2.4656331426053613,1.236729881986523,B,841,Incorrect
2,relearn,63,86,A,56.78688189117203,76.48755732610451,2.8393440945586015,1.2014637409335904,B,677,Incorrect
2,relearn,63,87,A,39.29843938239421,61.87799947269495,1.9649219691197104,0.9719773428112579,A,958,Correct
2,relearn,63,88,A,43.526379522945675,51.05290828383554,2.1763189761472836,0.8019372080444562,A,838,Correct
2,relearn,63,89,B,80.71856717745878,64.87119831963288,4.0359283588729395,1.0189944003526261,B,727,Correct
2,relearn,63,90,B,76.87173274973136,58.42951435505236,3.843586637486568,0.9178086652532593,B,792,Correct
2,relearn,63,91,A,38.84259941737194,61.50724708672119,1.9421299708685973,0.9661535779508775,A,1276,Correct
2,relearn,63,92,B,75.83253613268438,50.036513727417656,3.791626806634219,0.7859717196865007,B,766,Correct
2,relearn,63,93,A,27.49214428651343,52.032464350484666,1.3746072143256713,0.8173240387582772,A,728,Correct
2,relearn,63,94,A,45.60560901625186,66.68898975553684,2.280280450812593,1.0475482014565975,A,768,Correct
2,relearn,63,95,A,51.34421342712694,80.05255641845721,2.567210671356347,1.2574626157265383,A,763,Correct
2,relearn,63,96,A,48.8480964819059,57.86241306647463,2.442404824095295,0.9089006590430737,A,897,Correct
2,relearn,63,97,A,14.723823297159239,33.58905222045088,0.736191164857962,0.527615598484062,A,586,Correct
2,relearn,63,98,B,36.28900338516662,22.454806559346494,1.814450169258331,0.35271927662311425,A,841,Incorrect
2,relearn,63,99,A,12.174380105862152,32.75117145882375,0.6087190052931076,0.5144541982575019,A,577,Correct
2,relearn,63,100,A,46.681069123004846,73.78926363842805,2.3340534561502424,1.15907904280143,B,829,Incorrect
2,relearn,63,101,A,45.30710934615885,63.038996378918384,2.2653554673079426,0.9902142395684178,B,523,Incorrect
2,relearn,63,102,B,80.21416722498,52.147765843130465,4.010708361249,0.819135190369497,B,598,Correct
2,relearn,63,103,A,64.88631372020986,79.02649904005679,3.2443156860104927,1.2413453441158162,B,480,Incorrect
2,relearn,63,104,B,50.38700527420328,25.190249685051235,2.519350263710164,0.3956875167632478,B,628,Correct
2,relearn,63,105,A,24.050728581523728,46.8414590583433,1.2025364290761864,0.7357839183055919,A,648,Correct
2,relearn,63,106,A,60.0605321036669,70.22100632039924,3.003026605183345,1.1030289879192434,B,692,Incorrect
2,relearn,63,107,B,42.46391262694185,20.16683832433509,2.1231956313470928,0.31677995562932104,B,823,Correct
2,relearn,63,108,B,73.61460835271507,41.44822192239533,3.6807304176357536,0.6510671474787829,B,594,Correct
2,relearn,63,109,A,23.832054267210296,45.18782099572174,1.1916027133605147,0.7098086323594501,A,1037,Correct
2,relearn,63,110,B,30.343931884757744,12.514027827720653,1.5171965942378873,0.19656988945192724,A,1142,Incorrect
2,relearn,63,111,B,58.58308499247677,49.56279257837958,2.9291542496238385,0.7785305252781599,B,933,Correct
2,relearn,63,112,A,38.746930104627936,71.80519401429933,1.937346505231397,1.1279133500245628,A,1322,Correct
2,relearn,63,113,A,33.486248896417436,44.83409455177671,1.6743124448208717,0.7042523103710594,B,926,Incorrect
2,relearn,63,114,B,32.08540807207392,15.591972104274667,1.6042704036036957,0.24491812508883137,A,1326,Incorrect
2,relearn,63,115,B,69.53315982503096,42.38762830943716,3.4766579912515483,0.6658233085001126,B,832,Correct
2,relearn,63,116,B,53.30225400790503,42.501957567705766,2.6651127003952513,0.6676191882894478,B,1249,Correct
2,relearn,63,117,A,51.07739466319089,59.62612303481899,2.5538697331595444,0.9366049504411424,B,1092,Incorrect
2,relearn,63,118,B,63.44242357379371,52.0912684262571,3.1721211786896855,0.8182477310205163,B,891,Correct
2,relearn,63,119,B,73.31153235006879,45.160641052150886,3.665576617503439,0.7093816908042143,B,664,Correct
2,relearn,63,120,B,57.84704640408991,41.54083507037291,2.892352320204495,0.6525219114053438,B,761,Correct
2,relearn,63,121,B,82.79208244363535,62.99143747971124,4.139604122181768,0.9894671861266078,B,952,Correct
2,relearn,63,122,A,43.160409486583724,60.65443704779534,2.158020474329186,0.9527576691848921,A,1064,Correct
2,relearn,63,123,A,58.9481985233451,79.88964224264475,2.9474099261672553,1.2549035658370478,B,959,Incorrect
2,relearn,63,124,A,40.148298884987476,71.56702499036665,2.0074149442493736,1.1241721997450649,A,837,Correct
2,relearn,63,125,A,66.52630982316508,89.39659387052602,3.326315491158254,1.4042384127979743,B,733,Incorrect
2,relearn,63,126,A,41.685642687017385,50.451534444594856,2.084282134350869,0.792490849867358,B,566,Incorrect
2,relearn,63,127,B,62.33259659665069,44.76694458735601,3.1166298298325343,0.7031975211964949,B,379,Correct
2,relearn,63,128,A,31.72253108507806,45.65241302836561,1.586126554253903,0.7171064269428018,A,1034,Correct
2,relearn,63,129,A,54.47657738638948,70.50954980162075,2.723828869319474,1.107561418323477,B,581,Incorrect
2,relearn,63,130,A,35.733460274594435,54.668829029754555,1.786673013729722,0.8587359583011668,A,633,Correct
2,relearn,63,131,B,51.46732946570723,25.960495692019194,2.5733664732853616,0.40778651274798494,B,1084,Correct
2,relearn,63,132,A,25.249347233508878,40.58633274303355,1.2624673616754438,0.6375286239083254,A,581,Correct
2,relearn,63,133,A,19.535994510605754,49.312253939636776,0.9767997255302876,0.7745950735435861,A,790,Correct
2,relearn,63,134,A,55.065826564007494,74.87991493616909,2.7532913282003744,1.1762109533244873,B,3213,Incorrect
2,relearn,63,135,A,44.62333371328822,66.50366545065336,2.231166685664411,1.0446371340828298,B,802,Incorrect
2,relearn,63,136,B,32.91470245248131,19.469716122103396,1.6457351226240655,0.30582958568339397,A,984,Incorrect
2,relearn,63,137,A,26.150628074168104,42.30304686833712,1.3075314037084054,0.6644947063301629,A,1446,Correct
2,relearn,63,138,B,81.36236727708874,50.86857760338891,4.068118363854437,0.7990417484868443,B,628,Correct
2,relearn,63,139,B,70.58619229947934,41.020514686449715,3.5293096149739664,0.6443487379271132,B,581,Correct
2,relearn,63,140,A,33.25752485186649,65.42657520396061,1.6628762425933246,1.027718240051514,A,765,Correct
2,relearn,63,141,B,65.67457557556517,45.77210768355184,3.2837287787782588,0.7189865861898369,B,683,Correct
2,relearn,63,142,A,60.59514024896444,69.18319159696678,3.0297570124482216,1.0867270323646299,B,1013,Incorrect
2,relearn,63,143,A,41.78843883098653,63.450129534980704,2.0894219415493267,0.9966723040820806,A,2180,Correct
2,relearn,63,144,B,63.17764485140028,52.821310290649436,3.158882242570014,0.8297152018104561,B,1362,Correct
2,relearn,63,145,B,70.44766108175784,56.72421167213346,3.522383054087892,0.8910218333492342,B,829,Correct
2,relearn,63,146,A,14.9017257483716,40.8509720130707,0.7450862874185801,0.6416855678413258,A,741,Correct
2,relearn,63,147,A,48.91883589756108,75.64522573916304,2.445941794878054,1.1882324273064806,B,1232,Incorrect
2,relearn,63,148,A,29.07542060112632,54.407861994834214,1.453771030056316,0.8546366977024923,A,607,Correct
2,relearn,63,149,A,49.540911601185556,72.5173689020276,2.4770455800592774,1.139100167001354,B,2188,Incorrect
2,relearn,63,150,B,48.504593725857646,19.15547744183789,2.4252296862928824,0.30089353603641456,B,1055,Correct
2,relearn,63,151,A,28.041360578810057,43.5028683403598,1.4020680289405028,0.6833414579407917,A,689,Correct
2,relearn,63,152,B,58.04753142251587,50.18197375856587,2.902376571125793,0.7882566005127316,B,1090,Correct
2,relearn,63,153,A,20.979622770063003,39.40011523088041,1.0489811385031502,0.6188955627996261,A,590,Correct
2,relearn,63,154,A,24.12343476899182,41.15684456462713,1.206171738449591,0.646490202645848,A,969,Correct
2,relearn,63,155,A,39.59865637824597,72.14773559788911,1.9799328189122987,1.1332939806373363,A,1583,Correct
2,relearn,63,156,B,41.32995687630917,20.71852563961546,2.0664978438154584,0.3254458397131385,A,2004,Incorrect
2,relearn,63,157,A,55.595371702918186,81.2894031023849,2.7797685851459097,1.2768909580057586,B,747,Incorrect
2,relearn,63,158,B,70.32762411832063,55.7960250105304,3.5163812059160313,0.8764419113629732,B,694,Correct
2,relearn,63,159,B,75.77841588909666,63.342061966151604,3.788920794454833,0.9949747826804567,B,590,Correct
2,relearn,63,160,A,50.714554559045965,76.42761020144127,2.535727727952298,1.2005220937013612,B,1473,Incorrect
2,relearn,63,161,B,48.5515152726016,20.6510356639431,2.4275757636300797,0.32438570965432234,B,1737,Correct
2,relearn,63,162,B,34.844688448408476,12.576657133783044,1.7422344224204238,0.1975536682910524,A,1357,Incorrect
2,relearn,63,163,A,45.585661201274775,54.9636573929558,2.279283060063739,0.8633671114006815,B,1487,Incorrect
2,relearn,63,164,A,45.39577041601392,74.01226119639911,2.269788520800696,1.1625818802508818,A,953,Correct
2,relearn,63,165,B,51.60424764796554,43.32240871977701,2.580212382398277,0.6805068048493292,A,1161,Incorrect
2,relearn,63,166,B,53.39599667389265,22.947154178048013,2.6697998336946323,0.3604530549327398,A,1278,Incorrect
2,relearn,63,167,A,32.25663315971964,61.46332400884688,1.6128316579859818,0.9654636358570126,A,1237,Correct
2,relearn,63,168,B,66.60299520961433,33.24001736592747,3.3301497604807166,0.5221329718099744,B,912,Correct
2,relearn,63,169,A,57.84971777936731,77.45950008555712,2.892485888968366,1.216730982097621,B,1517,Incorrect
2,relearn,63,170,B,53.2873548134731,46.52128635600558,2.664367740673655,0.730754657257871,B,887,Correct
2,relearn,63,171,B,63.505081120436046,44.08410209683626,3.175254056021802,0.6924714564376159,B,1382,Correct
2,relearn,63,172,A,36.03785103093358,43.976444117471786,1.801892551546679,0.6907803688522571,B,1143,Incorrect
2,relearn,63,173,A,38.2543172824554,56.31347404045349,1.9127158641227704,0.8845699817180412,B,990,Incorrect
2,relearn,63,174,A,49.10601242277562,75.27582862103519,2.455300621138781,1.1824299509436422,B,1194,Incorrect
2,relearn,63,175,A,41.984190144468265,65.81857636434965,2.099209507223413,1.0338757798798983,A,763,Correct
2,relearn,63,176,A,26.110047515135875,43.746957460037365,1.3055023757567938,0.6871756008667929,A,545,Correct
2,relearn,63,177,B,56.21389270873428,36.88614755802825,2.810694635436714,0.5794062509376532,B,707,Correct
2,relearn,63,178,B,40.29623863950012,21.56133660627775,2.014811931975006,0.3386846834192943,A,1836,Incorrect
2,relearn,63,179,B,62.15453038089737,33.641736288201756,3.1077265190448684,0.5284431578850989,B,613,Correct
2,relearn,63,180,A,44.505157397682225,65.60116128867442,2.2252578698841115,1.0304606318572935,B,981,Incorrect
2,relearn,63,181,A,39.339736876045066,64.19567699124849,1.9669868438022533,1.0083833361396477,A,1184,Correct
2,relearn,63,182,A,32.64833901159454,51.98969632694528,1.632416950579727,0.8166522402154777,A,724,Correct
2,relearn,63,183,B,85.03992260546333,56.91701907142006,4.251996130273167,0.894050444895017,B,704,Correct
2,relearn,63,184,A,52.337216030133206,63.96765575496809,2.6168608015066606,1.0048015869358429,B,1089,Incorrect
2,relearn,63,185,A,56.62528248433175,84.38790239473624,2.8312641242165877,1.3255620710757796,B,1269,Incorrect
2,relearn,63,186,A,32.05887224355678,46.38338425336349,1.6029436121778389,0.7285884960949962,A,668,Correct
2,relearn,63,187,B,63.28723114825595,52.63515103656313,3.1643615574127972,0.8267910190852796,B,763,Correct
2,relearn,63,188,B,51.27745180651803,37.14733080486527,2.5638725903259014,0.5835089077851727,A,1015,Incorrect
2,relearn,63,189,B,35.71626141375755,21.658679213388314,1.7858130706878774,0.34021373751619344,A,1677,Incorrect
2,relearn,63,190,A,23.672542318531267,44.32314586698991,1.1836271159265634,0.6962263471986216,A,1076,Correct
2,relearn,63,191,B,77.40389064284284,48.27492445482826,3.870194532142142,0.7583007400994534,B,594,Correct
2,relearn,63,192,A,34.30477249321912,59.19456532896335,1.715238624660956,0.9298260578495616,A,711,Correct
2,relearn,63,193,B,53.150517602176095,34.20358530661586,2.6575258801088046,0.5372686616284809,B,921,Correct
2,relearn,63,194,B,54.556233707529664,38.5352241331289,2.7278116853764836,0.6053098852053693,B,643,Correct
2,relearn,63,195,B,72.58521793691955,40.09585285276085,3.6292608968459774,0.6298241838082542,B,1145,Correct
2,relearn,63,196,A,56.723936451398394,71.7870530100227,2.8361968225699195,1.127628391795742,B,854,Incorrect
2,relearn,63,197,A,36.428420537471574,65.03340567439608,1.8214210268735787,1.0215423475230374,A,957,Correct
2,relearn,63,198,B,83.27145654424547,67.01624898442665,4.163572827212273,1.052688777403096,B,612,Correct
2,relearn,63,199,B,47.83467576403762,27.367997855522166,2.391733788201881,0.4298955050318483,B,1063,Correct
2,relearn,63,200,A,30.35675464958954,59.32380445922095,1.517837732479477,0.9318561413604298,A,764,Correct
2,relearn,63,201,A,30.571411493928288,43.21964097728534,1.5285705746964142,0.67889253292514,A,789,Correct
2,relearn,63,202,A,30.03982424772024,63.30374473045702,1.5019912123860122,0.9943728969496367,A,906,Correct
2,relearn,63,203,B,50.23128785343883,32.09621393054975,2.5115643926719415,0.5041661494613073,B,866,Correct
2,relearn,63,204,B,41.12875132429291,27.626290102909042,2.0564375662146457,0.43395275016619733,B,1134,Correct
2,relearn,63,205,B,84.73057825128306,59.331046011260575,4.236528912564153,0.931969891393871,B,1170,Correct
2,relearn,63,206,A,29.085405842838124,42.71236887457124,1.4542702921419062,0.6709243213688518,A,601,Correct
2,relearn,63,207,B,50.14428754043787,34.84205557696205,2.5072143770218935,0.5472977291827563,B,562,Correct
2,relearn,63,208,A,11.482919727804312,30.8091397947608,0.5741459863902156,0.4839488362132073,A,767,Correct
2,relearn,63,209,B,76.07632938297522,47.84644043001194,3.803816469148761,0.7515701287767358,B,552,Correct
2,relearn,63,210,B,88.62605929386811,64.0934226732609,4.431302964693406,1.0067771290687095,B,995,Correct
2,relearn,63,211,A,47.67641174994818,76.14609854022791,2.383820587497409,1.1961001188675224,A,1497,Correct
2,relearn,63,212,A,45.8523694969607,67.15954848692397,2.292618474848035,1.0549397207246392,B,1092,Incorrect
2,relearn,63,213,B,80.27722178766258,53.682991526973034,4.01386108938313,0.843250459019308,B,658,Correct
2,relearn,63,214,B,40.14903738913726,15.986291453310876,2.0074518694568635,0.2511120789393337,B,1598,Correct
2,relearn,63,215,B,84.7428025911596,66.31948828203704,4.2371401295579805,1.0417440858834097,B,678,Correct
2,relearn,63,216,B,54.356589300911715,34.966529414205425,2.717829465045586,0.5492529596459959,B,1417,Correct
2,relearn,63,217,B,55.49611540479594,43.76679780069919,2.7748057702397966,0.6874872522091325,B,1092,Correct
2,relearn,63,218,A,17.941459599578845,35.83743195583877,0.8970729799789423,0.5629330647799358,A,586,Correct
2,relearn,63,219,B,77.83443127012252,62.64118770239103,3.891721563506126,0.9839654754898547,B,809,Correct
2,relearn,63,220,B,34.2764817828768,16.246665680167883,1.71382408914384,0.2552020277307242,B,886,Correct
2,relearn,63,221,A,49.38364918556813,73.25349178433233,2.4691824592784064,1.1506631581972937,B,2136,Incorrect
2,relearn,63,222,A,26.68226959213586,44.98711009137835,1.334113479606793,0.7066558728465473,B,473,Incorrect
2,relearn,63,223,B,69.95013216794214,41.6850727191886,3.497506608397107,0.6547875910947959,B,583,Correct
2,relearn,63,224,B,41.90385765525073,24.08824625905605,2.095192882762537,0.3783772874265615,B,777,Correct
2,relearn,63,225,B,36.25188385238492,12.334736390084803,1.8125941926192461,0.1937535861352855,B,826,Correct
2,relearn,63,226,A,61.414094215571595,70.6820761398746,3.0707047107785796,1.1102714557075222,A,1091,Correct
2,relearn,63,227,B,51.082191633382564,24.310008257474095,2.5541095816691284,0.38186071675193917,B,833,Correct
2,relearn,63,228,A,34.75138931581175,49.32707915361267,1.7375694657905876,0.7748279474601591,A,1962,Correct
2,relearn,63,229,B,66.05108622468451,55.44220546252957,3.3025543112342257,0.870884126899494,B,749,Correct
2,relearn,63,230,B,39.11479202624225,21.060694329123166,1.9557396013121124,0.33082061291936776,B,1185,Correct
2,relearn,63,231,B,62.364979345798595,32.828990929714124,3.11824896728993,0.5156765836477792,B,1050,Correct
2,relearn,63,232,A,44.76063333118099,56.1827677584436,2.2380316665590496,0.8825168522413396,B,1596,Incorrect
2,relearn,63,233,B,51.72963726387852,21.489887876608535,2.586481863193926,0.33756236939810863,B,810,Correct
2,relearn,63,234,B,74.42255876602104,45.073857916588274,3.721127938301052,0.7080185044985193,B,786,Correct
2,relearn,63,235,B,34.05852811591415,16.733039602114786,1.7029264057957076,0.2628419714311544,B,1676,Correct
2,relearn,63,236,B,41.22115920342622,33.152168064012386,2.061057960171311,0.5207530382023773,B,1150,Correct
2,relearn,63,237,B,85.4734232798009,61.1019249523936,4.273671163990045,0.9597867927531731,B,1114,Correct
2,relearn,63,238,A,39.140402158141406,50.909346968812585,1.9570201079070701,0.7996821521813772,B,1039,Incorrect
2,relearn,63,239,A,60.91501144660083,81.95412097858329,3.0457505723300415,1.2873323219886321,B,1344,Incorrect
2,relearn,63,240,B,40.018751424229016,31.650980574253644,2.0009375712114505,0.4971724402549425,B,812,Correct
2,relearn,63,241,A,33.611846180766165,66.27223894490362,1.6805923090383084,1.041001895031283,A,661,Correct
2,relearn,63,242,A,66.0278910323607,77.64453299912438,3.301394551618035,1.219637472307297,B,660,Incorrect
2,relearn,63,243,B,72.65725222025168,59.35809992979955,3.632862611012584,0.9323948533525354,B,888,Correct
2,relearn,63,244,B,36.7697175191615,24.898692086342756,1.838485875958075,0.39110774071224363,A,1053,Incorrect
2,relearn,63,245,B,60.37177331778717,39.60130352041448,3.018588665889358,0.6220558210615688,B,725,Correct
2,relearn,63,246,A,55.17180988826224,69.10872141035215,2.7585904944131117,1.0855572574087298,A,1566,Correct
2,relearn,63,247,A,29.2386747758664,55.224190562833684,1.46193373879332,0.8674595568632054,A,1367,Correct
2,relearn,63,248,B,51.193681736130685,34.30193298767324,2.5596840868065343,0.5388135033900182,B,1211,Correct
2,relearn,63,249,A,58.519409542970706,80.79314076726511,2.9259704771485353,1.2690956874744304,A,1060,Correct
2,relearn,63,250,B,82.68477584020906,52.74817359790745,4.134238792010453,0.8285663733273256,B,827,Correct
2,relearn,63,251,B,57.560851322134695,45.11095728064318,2.8780425661067346,0.7086012599463579,B,691,Correct
2,relearn,63,252,B,69.65968633219383,50.192132923205875,3.4829843166096914,0.7884161802977299,B,741,Correct
2,relearn,63,253,B,82.21582021306438,53.281897939490015,4.110791010653219,0.8369500956801149,B,717,Correct
2,relearn,63,254,B,79.12441086840565,65.24465935097442,3.9562205434202826,1.0248607125149491,B,771,Correct
2,relearn,63,255,B,59.74821272166009,32.193338631046444,2.9874106360830046,0.5056917806891199,B,800,Correct
2,relearn,63,256,B,50.084640031167815,36.795469525528944,2.5042320015583908,0.5779818837339442,B,2753,Correct
2,relearn,63,257,A,40.07758321438232,50.967872725417564,2.003879160719116,0.800601472616357,B,2625,Incorrect
2,relearn,63,258,A,43.292133566523304,52.795009015748164,2.1646066783261655,0.8293020623504066,B,699,Incorrect
2,relearn,63,259,B,37.65462853320011,18.26016104741793,1.8827314266600055,0.28682993899967335,A,679,Incorrect
2,relearn,63,260,B,81.03558875707361,66.07386535837865,4.05177943785368,1.0378858500208175,B,578,Correct
2,relearn,63,261,B,43.50801881918295,17.808776899841885,2.1754009409591477,0.2797396133898144,B,956,Correct
2,relearn,63,262,A,57.84870894972559,82.7840643011001,2.89243544748628,1.3003690412132056,A,1564,Correct
2,relearn,63,263,B,73.32770972831148,45.3761092114429,3.6663854864155736,0.7127662567357858,B,810,Correct
2,relearn,63,264,A,59.324538173734396,86.93278168792439,2.9662269086867195,1.3655369415345426,B,1280,Incorrect
2,relearn,63,265,B,45.17592876336804,19.11103604779427,2.258796438168402,0.300195452251201,A,869,Incorrect
2,relearn,63,266,B,79.94045035356505,62.488742941591155,3.9970225176782526,0.981570878786819,B,566,Correct
2,relearn,63,267,B,37.6688073148124,27.478802718778194,1.8834403657406198,0.43163602375378407,B,1022,Correct
2,relearn,63,268,B,67.58501203247971,36.5184826503712,3.3792506016239856,0.5736309840732624,B,731,Correct
2,relearn,63,269,A,32.7983707846421,56.86704402763029,1.639918539232105,0.8932654387428532,A,878,Correct
2,relearn,63,270,B,56.14579707672889,27.011702785965817,2.8072898538364446,0.4242988351667058,B,894,Correct
2,relearn,63,271,A,56.41249838973356,63.92067066476658,2.820624919486678,1.0040635468648165,B,2913,Incorrect
2,relearn,63,272,A,50.65955547788506,74.525032192414,2.532977773894253,1.1706364682211534,B,634,Incorrect
2,relearn,63,273,B,38.32404456345793,13.924244987153614,1.9162022281728965,0.21872152879213147,B,726,Correct
2,relearn,63,274,B,51.84294855934683,39.51511922227839,2.5921474279673413,0.6207020412721731,B,978,Correct
2,relearn,63,275,B,67.3608315931171,55.18045890794436,3.3680415796558547,0.8667726216345574,B,2021,Correct
2,relearn,63,276,B,70.36098943954401,52.97339163131832,3.518049471977201,0.8321040899234233,A,1763,Incorrect
2,relearn,63,277,A,35.969697430102315,64.86948160493161,1.7984848715051158,1.018967434261157,B,1063,Incorrect
2,relearn,63,278,A,44.072381932145056,59.10830490994971,2.2036190966072526,0.9284710823562174,B,503,Incorrect
2,relearn,63,279,A,41.09379242657859,65.84793613404277,2.0546896213289294,1.0343369620637932,B,1324,Incorrect
2,relearn,63,280,A,56.16685527222661,67.05874471963496,2.8083427636113303,1.0533562988507925,B,5526,Incorrect
2,relearn,63,281,B,64.40186502508452,51.447588336142346,3.220093251254226,0.8081368278086836,B,633,Correct
2,relearn,63,282,A,52.64184502033798,65.32359715560031,2.6320922510168994,1.0261006646504651,B,841,Incorrect
2,relearn,63,283,B,42.98634147822416,26.947606389731156,2.149317073911208,0.42329201132904387,B,341,Correct
2,relearn,63,284,A,12.865521817798438,40.85867596638877,0.6432760908899219,0.641806581257064,A,606,Correct
2,relearn,63,285,A,49.69991141605889,57.694161327878575,2.4849955708029445,0.9062577669134383,B,795,Incorrect
2,relearn,63,286,B,62.07535875291985,53.50474862286089,3.1037679376459923,0.8404506260287418,B,722,Correct
2,relearn,63,287,B,50.03462077571939,32.82589416193141,2.5017310387859695,0.515627939733199,B,1018,Correct
2,relearn,63,288,B,59.17604968757079,30.77924034777891,2.9588024843785394,0.4834791767982838,B,688,Correct
2,relearn,63,289,B,73.66146345724543,54.68866561092069,3.6830731728622714,0.8590475505894858,B,2125,Correct
2,relearn,63,290,A,32.277407854867434,59.12401533584281,1.6138703927433715,0.9287178611490703,A,639,Correct
2,relearn,63,291,A,63.31501680682091,77.8305644304848,3.1657508403410453,1.2225596471977906,A,927,Correct
2,relearn,63,292,A,45.9516629378024,56.23787027767643,2.2975831468901204,0.8833824005894202,B,783,Incorrect
2,relearn,63,293,A,59.1997860080867,82.9707972308156,2.959989300404335,1.3033022352140933,A,1544,Correct
2,relearn,63,294,B,87.55597947415514,69.0002195698163,4.377798973707757,1.0838529144830877,B,1063,Correct
2,relearn,63,295,B,65.35681714698133,53.29585985643897,3.267840857349066,0.8371694089586992,B,1105,Correct
2,relearn,63,296,A,27.032240677360928,52.3484157944131,1.3516120338680464,0.8222869924339603,B,1891,Incorrect
2,relearn,63,297,B,56.17824393510011,33.74098964170005,2.8089121967550055,0.5300022259160708,B,760,Correct
2,relearn,63,298,B,78.66215020594947,63.356770525939,3.9331075102974737,0.9952058241973215,B,758,Correct
2,relearn,63,299,A,57.20343237688255,86.02473250394777,2.8601716188441277,1.351273338307147,A,951,Correct
2,relearn,63,300,A,33.169625117814554,54.08235950969368,1.6584812558907276,0.8495237166222787,A,1150,Correct
2,relearn,63,301,A,53.39318875027145,75.65594770734846,2.6696594375135727,1.1884008475888972,B,961,Incorrect
2,relearn,63,302,B,61.021330444376254,50.047632632816615,3.0510665222188127,0.7861463750440875,B,820,Incorrect
2,relearn,63,303,A,19.398094726096236,44.867883524098374,0.9699047363048118,0.7047830663071499,A,719,Correct
2,relearn,63,304,A,48.65823379131001,80.30473381724198,2.4329116895655005,1.261423809043656,B,855,Correct
2,relearn,63,305,B,84.9435544874897,59.300508300309524,4.247177724374485,0.9314902061519648,B,549,Incorrect
2,relearn,63,306,A,40.80677698979473,48.50704366410392,2.0403388494897365,0.761946860112541,B,539,Incorrect
2,relearn,63,307,A,16.2857034524131,34.71816336534833,0.814285172620655,0.5453516348735431,A,699,Correct
2,relearn,63,308,A,25.615647677738977,42.260151877520514,1.280782383886949,0.6638209133900367,A,1201,Incorrect
2,relearn,63,309,A,56.57733624994896,76.28200101723634,2.828866812497448,1.198234869984394,B,790,Incorrect
2,relearn,63,310,A,53.67153391295922,80.49298730070467,2.683576695647961,1.2643808878469516,A,842,Correct
2,relearn,63,311,A,48.665738163236796,61.59021519662157,2.43328690816184,0.9674568379736038,A,824,Incorrect
2,relearn,63,312,B,82.40627641516684,67.39100641269306,4.1203138207583425,1.058575453320696,B,875,Correct
2,relearn,63,313,A,39.76824967084163,59.982918812807895,1.988412483542081,0.9422094854159515,B,1245,Incorrect
2,relearn,63,314,B,43.156179353285204,28.342488502790538,2.1578089676642604,0.44520276832409966,B,915,Correct
2,relearn,63,315,B,55.74492216579676,30.054798176145333,2.7872461082898377,0.4720996657765105,B,714,Correct
2,relearn,63,316,B,70.37494848286559,38.414510740695924,3.5187474241432795,0.6034137236710826,B,647,Incorrect
2,relearn,63,317,A,36.982078217886254,54.541987739567524,1.8491039108943128,0.8567435399740494,B,723,Correct
2,relearn,63,318,A,54.803502953122425,81.30434122551138,2.7401751476561214,1.2771256054951214,B,786,Incorrect
2,relearn,63,319,B,69.10889606945973,35.974113058283464,3.4554448034729863,0.56508004651656,B,541,Correct
2,relearn,63,320,B,53.93034298672315,21.87233915101915,2.6965171493361573,0.34356989996833087,B,679,Correct
2,relearn,63,321,B,65.72727941159519,33.00348685475551,3.2863639705797594,0.518417559228736,B,817,Correct
2,relearn,63,322,A,31.333843166432573,59.068704521180216,1.5666921583216287,0.9278490409040299,A,905,Incorrect
2,relearn,63,323,A,25.755063414135776,58.403991574202124,1.2877531707067889,0.9174077543491679,A,479,Correct
2,relearn,63,324,A,51.2389878004256,73.77260016972039,2.5619493900212795,1.1588172936470533,B,729,Incorrect
2,relearn,63,325,A,39.23615964287938,52.615907468964735,1.9618079821439691,0.8264887418322998,A,915,Incorrect
2,relearn,63,326,A,29.503725634516982,57.658235354061894,1.475186281725849,0.9056934430363607,A,991,Correct
2,relearn,63,327,B,74.29411340822413,48.84411222789662,3.7147056704112065,0.7672415207313771,B,673,Incorrect
2,relearn,63,328,A,12.37190344865066,35.163004904042666,0.6185951724325329,0.5523391894234115,A,581,Correct
2,relearn,63,329,B,48.81613737236728,35.63540810878043,2.440806868618364,0.5597596816110938,B,657,Correct
2,relearn,63,330,B,33.011208039293976,19.147146716048628,1.6505604019646989,0.3007626773017215,B,13428,Correct
2,relearn,63,331,B,33.55455151230336,17.261473367135753,1.6777275756151682,0.2711425896016477,B,897,Correct
2,relearn,63,332,B,83.16209565253324,62.23133307985293,4.158104782626662,0.9775274941338272,B,992,Correct
2,relearn,63,333,B,84.99820937074024,60.62336924086982,4.249910468537013,0.9522696572148904,B,661,Correct
2,relearn,63,334,A,50.53924830292777,60.286793283220696,2.5269624151463885,0.9469827344352632,A,1639,Correct
2,relearn,63,335,B,57.67787995625446,49.92859430484576,2.8838939978127227,0.7842765253608432,B,1598,Correct
2,relearn,63,336,A,49.25799850700304,63.206442974526574,2.462899925350152,0.9928444845415743,B,2019,Incorrect
2,relearn,63,337,B,65.95081437293581,41.65657237178197,3.2975407186467907,0.6543399086846089,B,617,Correct
2,relearn,63,338,B,31.958069978029126,12.489142823233646,1.5979034989014562,0.19617899671552258,A,586,Correct
2,relearn,63,339,B,79.68098199832858,57.792155260480534,3.9840490999164286,0.9077970520072319,B,547,Correct
2,relearn,63,340,A,21.35348977969129,39.07205422398523,1.0676744889845644,0.6137423925536702,A,897,Correct
2,relearn,63,341,B,66.3315067006825,40.263363882826006,3.3165753350341247,0.632455440915494,B,757,Correct
2,relearn,63,342,B,75.48631208163174,60.129493007030376,3.774315604081587,0.9445118674748274,B,826,Incorrect
2,relearn,63,343,B,56.146828231441894,37.04765548120598,2.8073414115720947,0.5819432114624117,B,1133,Incorrect
2,relearn,63,344,B,77.79359721857622,50.68007477031652,3.889679860928811,0.7960807529090391,B,531,Correct
2,relearn,63,345,A,15.737942794182022,43.55180775333818,0.786897139709101,0.6841101964422112,A,630,Incorrect
2,relearn,63,346,A,27.647493474423797,53.412685051466475,1.38237467372119,0.8390044948309621,B,2136,Incorrect
2,relearn,63,347,A,28.34947464176824,39.63923946990354,1.4174737320884119,0.6226517175626777,B,709,Incorrect
2,relearn,63,348,B,89.3344121762413,68.80826707116907,4.466720608812065,1.080837731685146,B,604,Correct
2,relearn,63,349,A,17.210925603625654,40.806912475323685,0.8605462801812827,0.6409934822407928,A,572,Incorrect
2,relearn,63,350,A,65.53013619957093,79.9446771707972,3.276506809978547,1.2557680524669208,B,828,Correct
2,relearn,63,351,B,56.94041799967211,46.361141668721245,2.847020899983605,0.7282391103924515,B,1064,Incorrect
2,relearn,63,352,A,54.49580771292341,73.77068617164113,2.7247903856461706,1.1587872286355296,A,2385,Correct
2,relearn,63,353,B,51.13422780593887,25.62079149535564,2.5567113902969436,0.40245045170482563,B,1128,Correct
2,relearn,63,354,B,86.68208919162312,69.07564092315789,4.334104459581156,1.0850376303309965,A,1606,Correct
2,relearn,63,355,B,40.31392224794426,26.276510114986174,2.0156961123972135,0.41275045569609226,A,936,Correct
2,relearn,63,356,A,57.03939407499254,75.75374543696356,2.851969703749627,1.1899370507333802,A,811,Incorrect
2,relearn,63,357,A,45.746540872602814,72.02686649223264,2.2873270436301407,1.1313953731654545,B,825,Incorrect
2,relearn,63,358,A,18.28666822067168,46.926881309628996,0.914333411033584,0.7371257278910532,A,980,Incorrect
2,relearn,63,359,A,26.165191796474303,57.47795617822834,1.308259589823715,0.902861624364391,B,926,Incorrect
2,relearn,63,360,A,22.60254913611631,38.19355991717149,1.1301274568058155,0.5999430362511379,A,646,Incorrect
2,relearn,63,361,A,55.22940103746576,77.19607296759037,2.7614700518732884,1.2125930786048176,B,682,Correct
2,relearn,63,362,A,32.97747638718472,50.80353055217366,1.648873819359236,0.798019991795667,B,803,Incorrect
2,relearn,63,363,A,49.97603056574308,80.63374869600865,2.4988015282871543,1.2665919626739317,B,6097,Correct
2,relearn,63,364,B,73.42358121225183,55.69375425853519,3.671179060612592,0.8748354461472472,A,5025,Incorrect
2,relearn,63,365,B,75.0156235779753,44.84231842444067,3.750781178898765,0.7043814906607851,B,1574,Correct
2,relearn,63,366,A,39.05773482006855,59.130026401362116,1.9528867410034279,0.9288122827454487,B,1942,Correct
2,relearn,63,367,A,52.70961303800726,67.8109934982372,2.6354806519003633,1.065172595033436,B,1500,Incorrect
2,relearn,63,368,A,13.282357462401606,41.678270413098666,0.6641178731200803,0.654680740720598,A,984,Correct
2,relearn,63,369,B,73.4873718365255,42.002607323256186,3.6743685918262745,0.6597754129917924,B,1539,Incorrect
2,relearn,63,370,A,42.72556451606172,71.0610276921924,2.1362782258030864,1.1162240127716625,B,1970,Incorrect
2,relearn,63,371,A,39.70533581946193,50.9107739633164,1.9852667909730966,0.7997045673586266,B,946,Incorrect
2,relearn,63,372,B,69.73088375597341,37.1631363562855,3.4865441877986707,0.5837571808063114,B,518,Correct
2,relearn,63,373,A,27.438202654372496,48.29851798502642,1.371910132718625,0.7586713464051674,A,453,Incorrect
2,relearn,63,374,B,68.60272307465428,40.385742161044924,3.4301361537327137,0.6343777544145515,B,570,Correct
2,relearn,63,375,B,65.91557594588082,55.299049204247034,3.2957787972940413,0.8686354336528149,B,610,Correct
2,relearn,63,376,B,33.17136754563124,18.863881789301974,1.6585683772815623,0.2963131622372868,A,1078,Correct
2,relearn,63,377,B,64.37675273986189,50.40454048440059,3.2188376369930944,0.7917526704668112,B,864,Correct
2,relearn,63,378,A,61.24403791238433,74.47104762904931,3.0622018956192165,1.1697884806827845,B,1091,Incorrect
2,relearn,63,379,A,41.42204942164292,55.59298201548017,2.071102471082146,0.8732525194549099,B,840,Correct
2,relearn,63,380,B,38.56596635448983,16.187446371927233,1.9282983177244915,0.2542718130121267,A,1376,Correct
2,relearn,63,381,B,83.3816315193845,63.73125969581929,4.169081575969225,1.0010882863220456,B,652,Correct
2,relearn,63,382,B,70.78609076715036,58.13382397491088,3.539304538357518,0.9131639716233112,B,1231,Correct
2,relearn,63,383,A,22.239185053569937,34.34346202014302,1.111959252678497,0.539465839906607,A,579,Incorrect
2,relearn,63,384,B,55.33524081524824,23.63851289618046,2.766762040762412,0.3713128922821406,B,816,Correct
2,relearn,63,385,B,34.876594800977806,17.312364975395177,1.7438297400488905,0.27194199311483364,B,740,Correct
2,relearn,63,386,A,55.174533761113594,80.04221387354934,2.7587266880556798,1.2573001554110281,B,637,Incorrect
2,relearn,63,387,A,32.771517904261856,65.60720854929508,1.6385758952130929,1.0305556220049943,B,817,Correct
2,relearn,63,388,B,63.803061684195825,55.252376624466265,3.190153084209791,0.8679023024839981,B,808,Correct
2,relearn,63,389,B,66.28561395668234,46.81309149241849,3.3142806978341173,0.7353383216220439,B,1351,Correct
2,relearn,63,390,A,59.995414281582825,70.2879743520325,2.9997707140791414,1.1040809193002656,B,911,Incorrect
2,relearn,63,391,A,38.54426900626697,52.99243483457354,1.9272134503133487,0.8324032198606603,A,1120,Correct
2,relearn,63,392,A,37.07069884315956,52.83027089805026,1.853534942157978,0.8298559547023665,A,1016,Correct
2,relearn,63,393,B,84.97052123343205,59.53665001078922,4.248526061671603,0.9351995114662104,B,590,Correct
2,relearn,63,394,A,33.46123651540413,63.452534042547455,1.6730618257702066,0.9967100739986168,A,778,Correct
2,relearn,63,395,A,31.365054629180868,56.545377883247355,1.5682527314590433,0.8882127187623433,A,1288,Correct
2,relearn,63,396,B,47.36683382385483,39.340808488938116,2.3683416911927417,0.6179639746756548,B,1085,Correct
2,relearn,63,397,B,47.75422861852371,19.51944603325851,2.3877114309261858,0.30661074130113686,B,762,Correct
2,relearn,63,398,B,47.82226847250284,30.06884309261283,2.3911134236251423,0.47232028280848326,B,758,Correct
2,relearn,63,399,A,47.226320981391964,72.76969554634232,2.361316049069598,1.1430637046617744,A,1130,Incorrect
2,relearn,63,400,B,60.88122996811272,39.603988200835836,3.044061498405636,0.6220979919230136,B,501,Correct
2,relearn,63,401,A,47.60860342319785,62.7530251404472,2.3804301711598925,0.9857222138588225,B,684,Incorrect
2,relearn,63,402,A,61.247457413206675,87.88338800321091,3.062372870660334,1.3804690306173437,B,576,Incorrect
2,relearn,63,403,B,44.797496913688505,26.855194030633953,2.2398748456844255,0.4218404013868404,B,707,Incorrect
2,relearn,63,404,B,71.90569784444064,49.957181757705555,3.5952848922220317,0.784725576020289,B,894,Incorrect
2,relearn,63,405,B,81.49746362242934,54.93133309274877,4.0748731811214665,0.8628593624803671,B,767,Incorrect
2,relearn,63,406,B,84.2458264557962,69.34386873000619,4.21229132278981,1.089250942868412,B,717,Correct
2,relearn,63,407,A,65.63604840221737,84.13128401140187,3.2818024201108686,1.3215311189364827,A,1764,Correct
2,relearn,63,408,B,74.73897632178536,53.94736923351921,3.7369488160892677,0.8474032943225999,B,724,Correct
2,relearn,63,409,A,30.310889872941715,48.16289396796341,1.5155444936470857,0.7565409693268901,A,1004,Incorrect
2,relearn,63,410,A,60.26750858656765,70.94844781702068,3.0133754293283825,1.1144556122277547,B,500,Incorrect
2,relearn,63,411,A,32.380052418999526,53.88153978215331,1.6190026209499764,0.8463692477185952,B,2167,Incorrect
2,relearn,63,412,B,69.97182308927466,39.57653747139646,3.498591154463733,0.6216667968733015,B,609,Incorrect
2,relearn,63,413,B,65.65539851716144,54.966238703891385,3.282769925858072,0.8634076585380407,B,625,Correct
2,relearn,63,414,A,36.20461376188584,62.182065297296944,1.810230688094292,0.9767535976151446,A,1470,Correct
2,relearn,63,415,B,45.99043536601657,21.746581137024865,2.2995217683008287,0.34159449770385847,B,930,Correct
2,relearn,63,416,A,44.617622359318986,56.319905196682605,2.2308811179659496,0.8846710020838584,B,1206,Incorrect
2,relearn,63,417,B,61.1494564320329,39.30842785398338,3.057472821601645,0.6174553408511929,B,1033,Incorrect
2,relearn,63,418,A,37.21281185120235,60.42871680080123,1.8606405925601177,0.9492120638362762,A,859,Correct
2,relearn,63,419,B,52.17569045931511,41.41600711563737,2.6087845229657556,0.6505611184775447,B,801,Correct
2,relearn,63,420,A,64.88479529011958,85.60229284133227,3.2442397645059793,1.344637671603858,A,470,Correct
2,relearn,63,421,A,48.90615677332436,73.0006522318574,2.4453078386662184,1.1466915637943327,B,735,Incorrect
2,relearn,63,422,B,54.35515233141467,43.19636019758586,2.717757616570734,0.6785268392927714,B,405,Correct
2,relearn,63,423,B,67.64685572075908,59.37094926769001,3.382342786037954,0.9325966902801363,A,422,Incorrect
2,relearn,63,424,A,56.51971455414339,66.43903052782824,2.8259857277071694,1.0436218510892659,B,346,Incorrect
2,relearn,63,425,B,48.150808371456826,38.226510756197136,2.4075404185728413,0.6004606268202006,B,532,Incorrect
2,relearn,63,426,B,85.46546615073102,68.47826944516609,4.2732733075365505,1.0756541410973808,B,556,Correct
2,relearn,63,427,A,64.580023174238,80.73751790486551,3.2290011587119,1.2682219655949993,B,943,Incorrect
2,relearn,63,428,A,33.36771395325116,46.350439189569485,1.668385697662558,0.7280709962430597,A,929,Incorrect
2,relearn,63,429,A,24.24559507089785,40.930798733733596,1.2122797535448924,0.6429394830372994,A,1121,Incorrect
2,relearn,63,430,B,49.86000862887384,38.58784599744322,2.493000431443692,0.6061364675171096,B,856,Incorrect
2,relearn,63,431,A,53.037825430674815,79.21207889792052,2.651891271533741,1.2442604257064112,120,2920,Correct
2,relearn,63,432,B,77.76695743780948,53.69038205316729,3.888347871890474,0.843366549133298,A,1202,Correct
2,relearn,63,433,A,46.8670997415678,68.59405038761668,2.3433549870783903,1.0774728238885234,A,855,Incorrect
2,relearn,63,434,A,19.90189600815774,34.39759012070233,0.9950948004078869,0.5403160821219565,B,1793,Correct
2,relearn,63,435,B,33.458398029712754,14.419841725816784,1.6729199014856377,0.22650634415876789,A,1039,Correct
2,relearn,63,436,B,69.76473802471132,56.12462541425035,3.4882369012355663,0.8816035544344396,B,1878,Correct
2,relearn,63,437,A,20.151900910099766,34.12507093580447,1.0075950455049882,0.5360353607757695,B,1009,Correct
2,relearn,63,438,B,47.01034959942208,39.69700641569413,2.350517479971104,0.6235591186252579,B,1354,Correct
2,relearn,63,439,B,72.75599404422825,61.90828294198458,3.6377997022114124,0.9724530344344853,B,1386,Correct
2,relearn,63,440,B,49.22208293702635,21.21896704818045,2.4611041468513175,0.333306754976638,A,1270,Correct
2,relearn,63,441,B,46.49007690493196,24.962988257856683,2.324503845246598,0.3921177026126542,A,1048,Incorrect
2,relearn,63,442,B,79.97591181755479,53.19097136203901,3.9987955908777395,0.8355218243414341,B,1561,Correct
2,relearn,63,443,B,44.7393155943816,34.14673180927397,2.23696577971908,0.5363756089805801,B,1252,Correct
2,relearn,63,444,B,62.78081059299471,50.811770769379436,3.1390405296497357,0.7981494288248551,B,1140,Correct
2,relearn,63,445,A,12.14231628148633,34.95833011849752,0.6071158140743165,0.549124165410193,A,610,Correct
2,relearn,63,446,A,54.08753130416186,81.08380314249487,2.704376565208093,1.2736614013879144,B,593,Incorrect
2,relearn,63,447,A,23.46502558828114,48.80505929891307,1.173251279414057,0.7666280787573977,B,577,Incorrect
2,relearn,63,448,A,64.46470497064622,86.9000898073955,3.223235248532311,1.3650234186760348,A,674,Incorrect
2,relearn,63,449,B,62.04232297954018,41.045333762082,3.102116148977009,0.6447385950554897,B,718,Incorrect
2,relearn,63,450,A,11.170654910479612,33.432890540895706,0.5585327455239806,0.5251626165577482,A,675,Incorrect
2,relearn,63,451,B,43.18007328987099,26.197178444905923,2.1590036644935493,0.41150431673648663,B,566,Incorrect
2,relearn,63,452,B,81.76362247000343,61.772214204621335,4.0881811235001715,0.9703156717060673,B,565,Correct
2,relearn,63,453,A,32.42658653921615,57.24509348597575,1.6213293269608076,0.8992038257480116,A,1132,Incorrect
2,relearn,63,454,A,64.18495761926528,85.05152373946262,3.2092478809632636,1.3359862107825684,B,614,Correct
2,relearn,63,455,A,26.456182376315752,59.44511943355199,1.3228091188157876,0.933761752521074,A,798,Correct
2,relearn,63,456,B,89.54226013808403,66.76379553582133,4.477113006904202,1.0487232479055366,B,663,Correct
2,relearn,63,457,B,45.55493009577728,34.522657419249015,2.277746504788864,0.5422806346535494,B,998,Correct
2,relearn,63,458,A,27.803381188630922,60.54612685411967,1.390169059431546,0.9510563366410901,B,1434,Incorrect
2,relearn,63,459,A,63.80462124893441,81.10576959806778,3.19023106244672,1.2740064496651806,B,691,Correct
2,relearn,63,460,B,41.294156220205394,16.66100243899837,2.06470781101027,0.2617104143189945,B,652,Correct
2,relearn,63,461,A,30.990085647407277,53.57145300754033,1.549504282370364,0.8414984160530976,B,852,Incorrect
2,relearn,63,462,B,33.48878975525749,20.608773437814932,1.6744394877628748,0.3237218561586793,A,852,Incorrect
2,relearn,63,463,A,25.686740707401047,51.88077751287862,1.2843370353700525,0.8149413474849302,B,551,Incorrect
2,relearn,63,464,A,47.43993072373597,68.18705156428669,2.3719965361867987,1.0710797013215574,B,563,Incorrect
2,relearn,63,465,A,42.94324993654344,59.41294972959537,2.147162496827172,0.9332564319929825,A,794,Correct
2,relearn,63,466,B,71.11891109301868,50.1001077968121,3.5559455546509344,0.786970652992608,B,725,Correct
2,relearn,63,467,A,38.38189346027117,66.71319089995654,1.9190946730135585,1.0479283521441847,A,673,Correct
2,relearn,63,468,B,59.2311043680636,30.685655075880202,2.9615552184031797,0.48200914278487794,B,535,Correct
2,relearn,63,469,A,40.57217804982716,58.421960053250324,2.028608902491358,0.9176900025580379,B,757,Incorrect
2,relearn,63,470,B,46.75688846030964,36.934945097285606,2.3378444230154822,0.5801727608918741,B,2441,Correct
2,relearn,63,471,A,22.904314068535786,34.236633316570035,1.1452157034267894,0.5377877785549199,A,1020,Incorrect
2,relearn,63,472,B,38.810815935849625,26.738291325747433,1.9405407967924813,0.42000409799255917,B,629,Correct
2,relearn,63,473,A,41.46911465219965,68.82195000542971,2.0734557326099825,1.0810526627139099,B,647,Incorrect
2,relearn,63,474,B,69.74015033957039,38.4834574470449,3.4870075169785197,0.6044967360018584,B,539,Incorrect
2,relearn,63,475,A,50.92089288356305,67.17962622710643,2.5460446441781523,1.0552551011299287,A,372,Correct
2,relearn,63,476,A,14.256935262427248,39.194718807164946,0.7128467631213624,0.6156692033205355,B,806,Incorrect
2,relearn,63,477,A,66.76243055933196,86.08609331415701,3.338121527966598,1.3522371916600056,A,407,Correct
2,relearn,63,478,A,67.71970199046216,81.98087586935111,3.3859850995231078,1.287752586830051,A,799,Correct
2,relearn,63,479,B,39.937375464113416,25.791927573615318,1.9968687732056707,0.40513865093594953,B,1025,Correct
2,relearn,63,480,B,79.48560059424537,58.156460347739035,3.974280029712269,0.9135195429362153,A,914,Incorrect
2,relearn,63,481,B,33.38187949892032,12.035745597182888,1.6690939749460159,0.18905704974292728,B,809,Correct
2,relearn,63,482,B,85.02107764866928,63.340543136638004,4.251053882433464,0.9949509249622467,B,759,Correct
2,relearn,63,483,A,50.188960726450546,75.42496341303458,2.509448036322527,1.1847725547783416,B,1409,Correct
2,relearn,63,484,B,76.56865938598317,55.88407506502948,3.828432969299158,0.8778249983847857,B,1152,Correct
2,relearn,63,485,A,52.50465021990424,68.3107446550244,2.625232510995212,1.0730226678473644,A,1621,Incorrect
2,relearn,63,486,A,48.72379160231383,68.51611347458166,2.4361895801156916,1.076248593721352,A,785,Correct
2,relearn,63,487,B,43.6198359203311,34.279174462568825,2.180991796016555,0.5384560133136453,B,823,Correct
2,relearn,63,488,B,59.13926762914579,45.82363284665588,2.9569633814572898,0.7197959415592502,A,2095,Incorrect
2,relearn,63,489,A,36.70118932592372,54.73483970528166,1.835059466296186,0.8597728515676388,B,3795,Incorrect
2,relearn,63,490,A,15.59493804578921,33.71907087639289,0.7797469022894604,0.5296579267557473,A,631,Incorrect
2,relearn,63,491,B,63.11381589543435,37.494174936941505,3.155690794771717,0.5889571226715298,B,852,Correct
2,relearn,63,492,B,70.829893359875,46.24457994044393,3.54149466799375,0.7264081630462226,B,552,Correct
2,relearn,63,493,A,51.28983109390052,81.56768212059465,2.5644915546950258,1.2812621546020382,B,903,Incorrect
2,relearn,63,494,A,33.25262735832863,48.79074414286577,1.6626313679164315,0.7664032168120316,B,2304,Incorrect
2,relearn,63,495,B,80.84672672347122,53.59286604666307,4.042336336173561,0.8418347712850928,B,1096,Correct
2,relearn,63,496,B,55.597748770751025,25.850584752908844,2.779887438537551,0.40606003575369365,B,691,Correct
2,relearn,63,497,B,77.01746710694985,48.566908146761506,3.8508733553474928,0.7628872092071811,B,438,Correct
2,relearn,63,498,A,31.490582137485283,59.10000585079206,1.5745291068742642,0.9283407210398107,A,880,Correct
2,relearn,63,499,A,15.081812332291324,34.467648843629405,0.7540906166145662,0.5414165619682944,A,748,Correct
2,relearn,63,500,A,55.97323790009829,74.49822955965722,2.7986618950049142,1.1702154534503255,B,770,Incorrect
2,relearn,63,501,A,42.10131996865034,58.86587907408144,2.105065998432517,0.9246630662311969,B,1047,Incorrect
2,relearn,63,502,B,60.63206596554048,29.447222125893383,3.031603298277024,0.4625558834966674,B,736,Correct
2,relearn,63,503,A,54.706559987402,74.34829499443504,2.7353279993701,1.1678602868072194,B,3975,Incorrect
2,relearn,63,504,A,44.86338885112251,52.973424377458485,2.2431694425561255,0.8321046042985901,B,1224,Correct
2,relearn,63,505,A,38.088288337089246,50.77040556351239,1.904414416854462,0.7974996656905244,B,747,Incorrect
2,relearn,63,506,B,63.91910017854568,55.75898271380794,3.195955008927284,0.8758600523266965,B,1625,Correct
2,relearn,63,507,A,48.0492249051617,71.93537952016925,2.402461245258085,1.1299582991687869,A,712,Correct
2,relearn,63,508,B,72.34450560120092,57.231098573559166,3.617225280060046,0.8989839941778339,B,546,Correct
2,relearn,63,509,B,76.08384688618354,62.87421362706826,3.804192344309177,0.9876258381551645,B,562,Incorrect
2,relearn,63,510,A,57.574050950720604,71.47746469371873,2.8787025475360304,1.1227653898950527,B,435,Incorrect
2,relearn,63,511,B,76.63366876320097,56.60627394827199,3.831683438160048,0.8891692719149129,B,673,Incorrect
2,relearn,63,512,A,51.977735423061084,60.87789785732815,2.598886771153054,0.9562677833728597,A,509,Correct
2,relearn,63,513,B,48.992229624033826,22.734145953200635,2.4496114812016914,0.35710712956106616,B,310,Correct
2,relearn,63,514,B,43.41960863978029,19.52634726671454,2.1709804319890145,0.3067191456227677,B,482,Correct
2,relearn,63,515,A,47.43760947779721,61.945219297851196,2.3718804738898602,0.97303322935569,B,617,Incorrect
2,relearn,63,516,B,47.44100270978642,39.147127468159084,2.372050135489321,0.6149216403155588,B,9977,Incorrect
2,relearn,63,517,B,86.58572858789299,63.402682039266,4.329286429394649,0.9959270005622378,B,434,Correct
2,relearn,63,518,A,51.7227282213759,61.03281161189516,2.586136411068795,0.9587011629392982,B,576,Incorrect
2,relearn,63,519,A,23.07829918264493,41.08104908559157,1.1539149591322464,0.6452996100452809,A,592,Incorrect
2,relearn,63,520,B,59.47926246255296,28.71231959554691,2.973963123127648,0.4510120615444621,B,416,Incorrect
2,relearn,63,521,B,80.97588015674413,55.978520821854474,4.0487940078372056,0.8793085488638064,B,1352,Correct
2,relearn,63,522,B,79.86326555557062,67.67333938916548,3.993163277778531,1.0630103293444553,B,613,Correct
2,relearn,63,523,B,75.39813908165834,42.72543537899306,3.769906954082917,0.6711295695403503,B,692,Correct
2,relearn,63,524,A,10.520198961791102,35.43560709423461,0.5260099480895551,0.5566212146137091,A,530,Correct
2,relearn,63,525,A,16.587868674227355,37.1986221402276,0.8293934337113678,0.5843145901970083,A,702,Correct
2,relearn,63,526,A,48.255530172468696,70.19670946177573,2.412776508623435,1.1026473337564586,B,660,Incorrect
2,relearn,63,527,B,58.5336170813499,44.410434045437434,2.926680854067495,0.6975974666994015,B,673,Correct
2,relearn,63,528,B,39.93425344061569,13.447886014974145,1.9967126720307846,0.21123889955477845,A,1068,Incorrect
2,relearn,63,529,B,69.28299186624989,49.514912043232954,3.464149593312494,0.777778419590827,B,696,Incorrect
2,relearn,63,530,A,63.71418980519064,77.36856509190902,3.185709490259532,1.2153025785576255,B,915,Correct
2,relearn,63,531,A,32.30416900103863,51.73849664738057,1.6152084500519317,0.8127064048759547,A,876,Correct
2,relearn,63,532,A,39.83295689918659,66.14194904808953,1.9916478449593296,1.0389553061179424,B,1081,Incorrect
2,relearn,63,533,A,25.12211718957675,55.95241923518657,1.2561058594788375,0.8788985460991918,B,554,Incorrect
2,relearn,63,534,A,60.753882322095706,84.62000644761396,3.0376941161047855,1.3292079530127248,B,519,Incorrect
2,relearn,63,535,B,74.79671702532313,52.90900217699838,3.7398358512661565,0.8310926627401224,B,702,Correct
2,relearn,63,536,B,87.6405203818012,64.99823265554016,4.38202601909006,1.0209898510348259,B,856,Correct
2,relearn,63,537,A,61.135514897602214,71.13360744855243,3.056775744880111,1.1173640929185624,A,875,Incorrect
2,relearn,63,538,A,21.36539526878752,49.71345552285357,1.068269763439376,0.7808971332757986,B,511,Incorrect
2,relearn,63,539,B,40.86583062848534,15.885994745570887,2.0432915314242672,0.24953662193825776,A,675,Correct
2,relearn,63,540,A,45.855763849049666,75.34688804729278,2.292788192452483,1.1835461498011381,A,831,Incorrect
2,relearn,63,541,B,62.39216604221013,52.07755405249255,3.1196083021105063,0.8180323061411798,B,645,Correct
2,relearn,63,542,B,79.97700638954791,55.22846090639093,3.9988503194773957,0.867526635262944,B,721,Correct
2,relearn,63,543,B,82.4343114481457,64.68530344830828,4.121715572407285,1.0160743705421589,B,627,Incorrect
2,relearn,63,544,A,58.49400475919509,68.70535668061108,2.9247002379597546,1.0792212190503707,B,694,Correct
2,relearn,63,545,B,80.29384776573954,54.56478624053874,4.014692388286977,0.8571016579898696,A,896,Correct
2,relearn,63,546,A,43.340845829094874,53.061776391941834,2.1670422914547434,0.8334924344967438,B,799,Correct
2,relearn,63,547,B,59.872491835742515,39.571289434297555,2.993624591787126,0.6215843608993229,B,684,Correct
2,relearn,63,548,A,49.07525144202136,64.66048555745132,2.453762572101068,1.0156845320241898,B,685,Incorrect
2,relearn,63,549,B,80.21570038586812,51.299951591684035,4.010785019293405,0.8058177552497329,A,381,Incorrect
2,relearn,63,550,B,82.03232293466858,51.32844759310092,4.101616146733429,0.8062653693932728,B,86,Correct
2,relearn,63,551,B,88.69735977997965,68.65395038115057,4.434867988998983,1.0784137307867039,B,8609,Correct
2,relearn,63,552,B,65.55694481661001,40.0224302560996,3.2778472408305004,0.6286708643568618,B,655,Correct
2,relearn,63,553,B,63.93946480375226,47.087489554000214,3.1969732401876128,0.7396485562941658,B,619,Incorrect
2,relearn,63,554,A,16.73475772655193,40.26119880913103,0.8367378863275965,0.6324214320174208,A,550,Incorrect
2,relearn,63,555,B,57.503549756407814,27.253032542396966,2.8751774878203906,0.42808963411618933,B,519,Incorrect
2,relearn,63,556,B,56.86218477488954,40.7320173666738,2.843109238744477,0.6398170326251714,B,607,Incorrect
2,relearn,63,557,A,44.87389066867787,53.85608380954946,2.2436945334338936,0.845969386235984,B,873,Incorrect
2,relearn,63,558,A,19.222742304339135,37.70454960267831,0.9611371152169568,0.5922616801934307,A,604,Correct
2,relearn,63,559,A,57.94942116133414,77.15914568406566,2.8974710580667074,1.2120130261916264,B,695,Incorrect
2,relearn,63,560,A,24.415150612885732,47.78208586352358,1.2207575306442866,0.7505592496102118,B,3864,Incorrect
2,relearn,63,561,A,67.0801514903647,83.02454885563162,3.354007574518235,1.3041465637622958,B,411,Correct
2,relearn,63,562,A,16.044939361432654,40.897763786810536,0.8022469680716326,0.6424205713044734,A,593,Correct
2,relearn,63,563,B,44.22248273471122,22.570688478283873,2.211124136735561,0.3545395455492021,B,503,Incorrect
2,relearn,63,564,A,17.320908387885172,32.76485912533529,0.8660454193942586,0.5146692036202892,A,620,Correct
2,relearn,63,565,A,65.59399207130946,79.51949927770566,3.279699603565473,1.2490893737398947,B,726,Incorrect
2,relearn,63,566,A,21.795756281988584,38.67463431342854,1.0897878140994293,0.6074997351966942,A,617,Correct
2,relearn,63,567,B,45.03081740370517,25.0942948372032,2.2515408701852584,0.3941802615378693,B,719,Incorrect
2,relearn,63,568,A,64.43883448423855,88.72108786965384,3.221941724211928,1.393627589348995,B,843,Incorrect
2,relearn,63,569,A,53.93167742560688,77.18709281762409,2.6965838712803443,1.2124520187390067,A,2549,Correct
2,relearn,63,570,A,18.397558808178232,37.782919740465466,0.9198779404089116,0.5934927154390954,A,899,Incorrect
2,relearn,63,571,B,74.20695071332547,43.72630208922534,3.710347535666273,0.6868511470607919,B,810,Correct
2,relearn,63,572,B,38.1761464489283,29.214538754293393,1.908807322446415,0.4589009016425122,B,7134,Correct
2,relearn,63,573,B,61.69907305328257,42.73308728471726,3.084953652664128,0.6712497653943956,B,535,Correct
2,relearn,63,574,B,56.460113747416926,28.111013473399506,2.8230056873708462,0.44156676706497794,B,778,Correct
2,relearn,63,575,B,50.112950360696715,31.387559379401466,2.5056475180348357,0.49303462980220525,B,982,Correct
2,relearn,63,576,B,76.80199438980178,63.536639127536205,3.840099719490089,0.9980311935842677,B,3980,Incorrect
2,relearn,63,577,A,55.73269372030962,72.30204497004554,2.786634686015481,1.1357178665870697,B,553,Correct
2,relearn,63,578,A,30.557862510004767,60.34879301878957,1.5278931255002386,0.9479566240042016,A,722,Correct
2,relearn,63,579,A,12.475197291264053,34.60701212518679,0.6237598645632026,0.5436056752758985,A,630,Correct
2,relearn,63,580,A,58.16810099051919,84.7859280110431,2.9084050495259595,1.3318142428364306,B,535,Incorrect
2,relearn,63,581,A,47.791019711517485,79.4997680975032,2.3895509855758745,1.2487794370860414,B,412,Correct
2,relearn,63,582,A,56.07471575074766,66.22561148406699,2.803735787537383,1.0402694725891835,B,633,Correct
2,relearn,63,583,B,67.42319783230035,36.63212506177418,3.371159891615017,0.5754160748972615,B,6789,Incorrect
2,relearn,63,584,B,62.69409485568203,36.58703691207633,3.1347047427841015,0.5747078318979879,B,1065,Correct
2,relearn,63,585,A,25.922427059995997,50.04709939382056,1.2961213529997997,0.7861379989455243,A,574,Incorrect
2,relearn,63,586,B,70.00177834796045,36.812314258873506,3.5000889173980227,0.578246480186579,B,885,Correct
2,relearn,63,587,A,50.581466935966844,71.72113010236866,2.529073346798342,1.126592877183796,B,1338,Incorrect
2,relearn,63,588,B,65.43890650389785,33.28278487536965,3.2719453251948925,0.5228047622773538,B,666,Correct
2,relearn,63,589,A,32.97137542216249,58.692156586370665,1.6485687711081243,0.9219342397754193,A,1320,Correct
2,relearn,63,590,A,43.547698287341554,69.30440229826766,2.1773849143670776,1.0886310056083464,B,854,Incorrect
2,relearn,63,591,B,77.68370161117592,50.3392864853207,3.884185080558796,0.7907276630461773,B,1161,Correct
2,relearn,63,592,B,73.23555342705343,49.26179709153092,3.661777671352672,0.773802499226923,B,551,Incorrect
2,relearn,63,593,A,50.42603616878892,63.71525847658843,2.521301808439446,1.0008369397581252,B,461,Incorrect
2,relearn,63,594,B,79.38701822857739,63.1637656000227,3.9693509114288696,0.9921741099104949,A,320,Incorrect
2,relearn,63,595,B,32.903135475886145,14.701610539392465,1.6451567737943071,0.23093235833246825,B,7798,Correct
2,relearn,63,596,A,61.47048205998417,75.05194728468871,3.0735241029992086,1.178913231135932,B,723,Correct
2,relearn,63,597,B,59.619497533088975,51.9283967456046,2.980974876654449,0.8156893486434377,B,726,Correct
2,relearn,63,598,A,47.77342970036703,61.38891567959835,2.3886714850183517,0.964294832554347,B,552,Incorrect
2,relearn,63,599,A,54.465100572319315,70.39940423525715,2.723255028615966,1.1058312558129102,B,591,Incorrect
2,relearn,63,600,B,69.07721277857692,40.434204860576514,3.4538606389288464,0.6351390047186594,B,707,Correct
2,relearn,63,601,A,38.73706165162921,58.7384767396171,1.9368530825814605,0.9226618350411803,A,2421,Correct
2,relearn,63,602,B,74.53660043295332,48.03491564206738,3.726830021647666,0.7545306904846217,B,511,Correct
2,relearn,63,603,B,63.961997531479426,53.47717755829709,3.198099876573971,0.8400175407593155,B,552,Correct
2,relearn,63,604,A,47.71983227394905,78.07168471601543,2.3859916136974526,1.226347155786063,B,1186,Incorrect
2,relearn,63,605,A,33.95107205406798,51.363845430934916,1.697553602703399,0.8068213973297339,A,776,Correct
2,relearn,63,606,B,67.06951333419924,55.55679753515116,3.3534756667099623,0.8726841349670321,B,531,Correct
2,relearn,63,607,B,65.81924908733724,33.62461735835314,3.2909624543668623,0.5281742543638502,B,739,Correct
2,relearn,63,608,B,73.3169883328079,50.10655596460119,3.6658494166403948,0.7870719405753848,B,528,Correct
2,relearn,63,609,A,49.294014957742384,79.96591794905103,2.464700747887119,1.2561017018315146,B,1119,Incorrect
2,relearn,63,610,A,33.04692099266063,58.13400148450448,1.6523460496330316,0.9131667599374871,A,648,Correct
2,relearn,63,611,A,24.75866553588711,48.47053842837033,1.2379332767943554,0.76137343721055,A,509,Correct
2,relearn,63,612,B,59.92390515070587,47.84812085554779,2.9961952575352933,0.7515965248393275,B,564,Correct
2,relearn,63,613,A,38.032693478057304,53.436603676462454,1.9016346739028651,0.8393802077138188,B,689,Incorrect
2,relearn,63,614,B,74.30915630590879,53.24199299931832,3.7154578152954394,0.8363232703456881,B,1206,Correct
2,relearn,63,615,A,43.15634332042643,62.81375805197696,2.1578171660213217,0.9866762042022876,A,878,Correct
2,relearn,63,616,A,36.97567693432029,53.77220511986906,1.8487838467160145,0.8446518228595205,A,1929,Correct
2,relearn,63,617,A,43.70774350246286,53.21240183343709,2.185387175123143,0.8358584533989699,A,1067,Correct
2,relearn,63,618,A,18.58904156529998,32.98148771489607,0.929452078264999,0.5180719975478976,A,1103,Correct
2,relearn,63,619,A,37.70734057131365,61.154792326389526,1.8853670285656825,0.9606172315219739,A,733,Correct
2,relearn,63,620,A,35.666640426934556,63.26761016044758,1.7833320213467276,0.9938052964512254,A,795,Correct
2,relearn,63,621,B,46.804282171071634,16.745257720906846,2.3402141085535817,0.2630338931923435,B,770,Correct
2,relearn,63,622,B,84.96748163749993,64.93858202777693,4.248374081874997,1.0200528611650108,B,730,Correct
2,relearn,63,623,B,48.57707386061505,31.02996883860301,2.4288536930307525,0.4874176107223772,A,1029,Incorrect
2,relearn,63,624,B,66.1340724621856,40.40991350012503,3.30670362310928,0.634757436920959,B,613,Correct
2,relearn,63,625,A,47.83215575942767,75.40085910887183,2.3916077879713837,1.1843939252539537,B,1116,Incorrect
2,relearn,63,626,B,79.36471942579975,51.21052433268988,3.9682359712899875,0.8044130351502992,B,987,Correct
2,relearn,63,627,B,78.60133388483621,53.834088759780116,3.9300666942418103,0.8456238888021304,B,979,Correct
2,relearn,63,628,B,39.75691574457258,30.76100539541907,1.987845787228629,0.48319274283642266,A,1603,Incorrect
2,relearn,63,629,B,46.131052952209174,24.506281271246216,2.306552647610459,0.3849437660427612,A,2067,Incorrect
2,relearn,63,630,A,42.789460685037675,56.17093867930377,2.1394730342518837,0.8823310415007174,B,898,Incorrect
2,relearn,63,631,B,74.75734191002539,44.89656813161105,3.7378670955012696,0.7052336430683144,B,664,Correct
2,relearn,63,632,B,39.37893185385961,17.72694999078399,1.9689465926929808,0.27845427930800315,A,7211,Incorrect
2,relearn,63,633,A,34.085407136739974,61.618857595979485,1.7042703568369988,0.9679067517306238,A,728,Correct
2,relearn,63,634,B,87.61630362706313,61.325207518013755,4.380815181353157,0.9632941070923078,B,606,Correct
2,relearn,63,635,B,40.34026698744074,27.647574183172154,2.017013349372037,0.4342870797171623,B,1195,Correct
2,relearn,63,636,A,47.16049973954491,74.64299036020188,2.3580249869772456,1.1724893507879197,B,908,Incorrect
2,relearn,63,637,B,40.45048196036082,20.73839887894453,2.022524098018041,0.32575800782653463,A,695,Incorrect
2,relearn,63,638,A,39.22858854327268,71.83420713509862,1.9614294271636339,1.1283690870603666,B,6347,Incorrect
2,relearn,63,639,B,40.912460798615754,20.119818205275916,2.045623039930788,0.31604136532628496,B,845,Correct
2,relearn,63,640,B,54.98991117453711,46.06756701471428,2.7494955587268555,0.7236276505109092,B,661,Correct
2,relearn,63,641,B,70.47203026565646,45.24694014725843,3.523601513282823,0.7107372738202209,B,1313,Correct
2,relearn,63,642,A,41.854018643301956,71.88204474379755,2.092700932165098,1.1291205184606359,A,955,Correct
2,relearn,63,643,B,77.286589983343,45.98365745488223,3.86432949916715,0.7223096022272375,B,1231,Correct
2,relearn,63,644,B,85.07034745134791,69.22042120192313,4.253517372567396,1.0873118336317642,B,1825,Correct
2,relearn,63,645,B,65.22019879313673,40.21531473854119,3.2610099396568364,0.6317006867220117,A,1269,Incorrect
2,relearn,63,646,B,58.10282840933536,35.90357723471963,2.905141420466768,0.5639720723909446,B,1079,Correct
2,relearn,63,647,B,57.558285464625925,26.805483364414975,2.877914273231296,0.4210595480678475,B,1131,Correct
2,relearn,63,648,B,72.57738874342628,61.85028181291966,3.628869437171314,0.9715419548296339,B,874,Correct
2,relearn,63,649,B,73.45122906339846,62.329610840209696,3.672561453169923,0.9790712375835675,B,898,Correct
2,relearn,63,650,A,27.59588591989673,55.50518511831245,1.3797942959948364,0.8718734090191596,A,686,Correct
2,relearn,63,651,A,59.30796781447958,84.14329419933217,2.965398390723979,1.321719774527333,A,1007,Correct
2,relearn,63,652,A,43.89392800627399,56.01062172977923,2.1946964003136995,0.8798127887463564,B,1384,Incorrect
2,relearn,63,653,B,75.28884670364413,58.80740611742035,3.7644423351822063,0.923744575175796,B,415,Correct
2,relearn,63,654,A,24.664747456474124,57.29462571280557,1.233237372823706,0.899981876147634,A,731,Correct
2,relearn,63,655,A,35.95844989235262,66.6097785006528,1.797922494617631,1.0463039539744707,B,1400,Incorrect
2,relearn,63,656,B,76.45285298062839,50.56648078437431,3.82264264903142,0.7942964227503989,B,3072,Correct
2,relearn,63,657,B,62.79075869193732,53.68342455959894,3.139537934596866,0.8432572610798895,B,552,Correct
2,relearn,63,658,A,29.56656615577659,42.878038147538575,1.4783283077888296,0.6735266482232505,A,2678,Correct
2,relearn,63,659,B,75.22110482085378,47.667613485152785,3.761055241042689,0.7487611216955686,B,641,Correct
2,relearn,63,660,A,53.79529844626844,79.17169464677502,2.689764922313422,1.243626071372814,B,1205,Incorrect
2,relearn,63,661,A,42.35567088912502,67.53034655785218,2.117783544456251,1.0607642032026061,B,509,Incorrect
2,relearn,63,662,B,67.31173495999472,41.45844515758927,3.3655867479997363,0.6512277336816888,B,584,Correct
2,relearn,63,663,A,48.636729580308426,65.97847844764571,2.4318364790154217,1.0363875159307814,A,830,Correct
2,relearn,63,664,A,31.34357602302709,63.16666412272836,1.5671788011513543,0.9922196397986869,A,624,Correct
2,relearn,63,665,B,81.05297354420237,68.11425015385586,4.052648677210119,1.0699361394406552,B,732,Correct
2,relearn,63,666,A,38.062369400290066,68.79614994000384,1.9031184700145034,1.0806473962338898,A,807,Correct
2,relearn,63,667,A,46.329355175784706,77.70378514953237,2.3164677587892353,1.2205682029094527,B,5755,Incorrect
2,relearn,63,668,B,56.49956400336618,46.30000637822204,2.8249782001683093,0.7272787994949146,B,2077,Correct
2,relearn,63,669,A,33.61145362882865,49.96800379460645,1.6805726814414326,0.7848955681784127,A,595,Correct
2,relearn,63,670,B,53.67623055964178,43.00305973074542,2.683811527982089,0.6754904826599644,B,563,Correct
2,relearn,63,671,A,14.739803808862924,40.53986426484995,0.7369901904431461,0.6367986987598999,A,629,Correct
2,relearn,63,672,A,47.315498218350506,58.852519785722805,2.3657749109175255,0.9244532190203736,B,490,Incorrect
2,relearn,63,673,B,63.21415746193156,52.135834089870116,3.160707873096578,0.8189477668275613,B,437,Correct
2,relearn,63,674,A,31.129903396715417,42.68517627927082,1.556495169835771,0.6704971810807125,A,690,Correct
2,relearn,63,675,A,46.00163971776964,75.07105117710493,2.300081985888482,1.1792133143762813,B,716,Incorrect
2,relearn,63,676,B,48.997480318594256,21.330926575811535,2.449874015929713,0.335065411124164,A,1101,Incorrect
2,relearn,63,677,A,40.1507597809871,49.83705194219317,2.007537989049355,0.7828385812908352,B,527,Incorrect
2,relearn,63,678,B,36.28166608415371,22.52730974271288,1.8140833042076856,0.3538581539642428,B,697,Correct
2,relearn,63,679,A,25.391525246959063,56.046628202562474,1.2695762623479532,0.8803783770982437,A,974,Correct
2,relearn,63,680,B,50.846814644505535,24.811393400099078,2.5423407322252767,0.3897364561553877,B,641,Correct
2,relearn,63,681,B,80.62140007161378,59.71922334415087,4.031070003580689,0.9380673666803623,B,675,Correct
2,relearn,63,682,B,75.79902739200037,47.7577729138949,3.7899513696000184,0.7501773426905091,B,698,Correct
2,relearn,63,683,A,57.98713832077024,69.3057918069379,2.8993569160385118,1.088652831959499,B,816,Incorrect
2,relearn,63,684,A,51.24408197438366,60.86301648931351,2.5622040987191834,0.9560340273907088,B,5885,Incorrect
2,relearn,63,685,B,73.69929268140685,61.19251054337161,3.6849646340703424,0.9612097078888612,B,986,Correct
2,relearn,63,686,B,41.80761273467782,16.996998958658292,2.090380636733891,0.2669882353079713,B,6296,Correct
2,relearn,63,687,B,70.1132831800082,47.38437684509159,3.5056641590004096,0.7443120509573502,B,544,Correct
2,relearn,63,688,A,12.294654329678483,31.773556727125754,0.6147327164839241,0.4990978619617841,A,493,Correct
2,relearn,63,689,B,76.37143350400046,52.01801065592417,3.8185716752000234,0.8170970006550347,B,460,Correct
2,relearn,63,690,B,75.80623811794152,63.52463221140259,3.790311905897076,0.9978425893866796,B,417,Correct
2,relearn,63,691,A,60.74175998222749,77.26050805737907,3.0370879991113746,1.2136052226283855,B,754,Incorrect
2,relearn,63,692,A,50.97058068840242,60.4781563837749,2.5485290344201212,0.9499886589896095,B,709,Incorrect
2,relearn,63,693,A,32.271837152014356,46.45485687736295,1.613591857600718,0.7297111854474435,A,807,Correct
2,relearn,63,694,A,30.47108741507123,49.93255368880516,1.5235543707535615,0.784338719218641,A,648,Correct
2,relearn,63,695,B,55.86693488537212,45.69125546622406,2.793346744268606,0.7177165625299198,B,756,Correct
2,relearn,63,696,B,61.841553063084255,35.61185261859279,3.0920776531542127,0.5593896728364678,B,576,Correct
2,relearn,63,697,B,61.32751866269096,40.828396514990324,3.066375933134548,0.6413309527467237,B,618,Correct
2,relearn,63,698,B,53.93811220819691,45.6359355035281,2.6969056104098454,0.7168475985879075,B,1236,Correct
2,relearn,63,699,B,40.38161381625109,20.650024430537876,2.0190806908125545,0.3243698252371377,B,1443,Correct
2,relearn,63,700,B,36.83277073789938,12.947053872347873,1.841638536894969,0.20337184665499677,B,1873,Correct
2,relearn,63,701,B,58.13980065178924,34.333838696175505,2.9069900325894618,0.5393146770872096,B,1226,Correct
2,relearn,63,702,A,35.257432126406066,62.22872841378069,1.7628716063203032,0.9774865801348392,B,9218,Incorrect
2,relearn,63,703,A,51.10270714289654,72.84744314865075,2.555135357144827,1.1442849611430064,B,494,Incorrect
2,relearn,63,704,A,68.32803600440502,86.86395218984504,3.416401800220251,1.364455770306961,B,997,Incorrect
2,relearn,63,705,B,71.39776791078978,50.4698166345908,3.569888395539489,0.7927780258362718,B,469,Correct
2,relearn,63,706,A,28.723209136315138,55.135004286369025,1.4361604568157569,0.8660586221084935,A,642,Correct
2,relearn,63,707,A,21.3639337048554,41.26103226087818,1.06819668524277,0.6481267791515317,A,555,Correct
2,relearn,63,708,A,41.75138162898796,50.22693508086452,2.0875690814493977,0.7889628513118774,B,693,Incorrect
2,relearn,63,709,A,61.63647652272786,87.43715595785274,3.0818238261363935,1.373459634039876,B,437,Incorrect
2,relearn,63,710,A,17.9532725730082,34.902602151193136,0.89766362865041,0.5482487925467784,A,489,Correct
2,relearn,63,711,A,49.849267806357,65.60355480749548,2.49246339031785,1.0304982291630158,B,373,Incorrect
2,relearn,63,712,B,71.92301329381517,61.861926597794536,3.596150664690759,0.9717248706827117,B,445,Correct
2,relearn,63,713,A,39.98774361957596,50.84209060597358,1.9993871809787978,0.7986256917043661,B,950,Incorrect
2,relearn,63,714,A,29.819877247994807,50.77475125551419,1.4909938623997403,0.7975679276608626,A,614,Correct
2,relearn,63,715,A,29.390027574977715,57.927797869073565,1.4695013787488858,0.9099277211205798,A,779,Correct
2,relearn,63,716,B,51.16167212211129,31.645149185670178,2.5580836061055647,0.49708084101727223,B,9412,Correct
2,relearn,63,717,B,35.76202713632726,23.544365937549554,1.7881013568163633,0.36983403531417713,B,858,Correct
2,relearn,63,718,B,54.81942268210879,36.15413519770322,2.7409711341054397,0.567907827669983,B,1390,Correct
2,relearn,63,719,B,46.73272777650319,34.74631263255472,2.3366363888251596,0.5457938025288407,B,1764,Correct
2,relearn,63,720,A,21.123563708234187,37.226875770638806,1.0561781854117094,0.5847583971856937,A,546,Correct
2,relearn,63,721,A,44.62589855875482,66.96502990637921,2.231294927937741,1.0518842300065088,B,1116,Incorrect
2,relearn,63,722,A,55.62469585973649,83.36449562617284,2.7812347929868246,1.3094864351470152,B,5414,Incorrect
2,relearn,63,723,B,37.89158332313579,24.07258587230745,1.8945791661567895,0.37813129464675266,B,484,Correct
2,relearn,63,724,B,73.21172821909099,51.46902225287394,3.6605864109545494,0.8084735109853918,B,564,Correct
2,relearn,63,725,B,54.01934038084999,37.078476311347686,2.7009670190424995,0.5824273439301653,B,419,Correct
2,relearn,63,726,B,81.64005839704588,51.55893452709815,4.082002919852294,0.8098858496862436,B,424,Correct
2,relearn,63,727,B,60.411851687928895,40.82892414598607,3.0205925843964447,0.6413392407550239,B,858,Correct
2,relearn,63,728,B,65.88226549038318,39.87614870542198,3.294113274519159,0.6263730791320393,B,519,Correct
2,relearn,63,729,B,66.19788757249847,40.65638289952899,3.3098943786249237,0.6386289691934699,B,516,Correct
2,relearn,63,730,B,85.91085621382676,60.598410718985065,4.295542810691338,0.9518776096699023,B,970,Correct
2,relearn,63,731,A,49.370542913848745,57.76263163320752,2.468527145692437,0.9073332959544905,B,620,Incorrect
2,relearn,63,732,A,44.897093129600314,55.45876803791564,2.244854656480016,0.8711442912252809,B,811,Incorrect
2,relearn,63,733,B,36.710660090095686,19.901157416848196,1.8355330045047844,0.31260664969352153,A,804,Incorrect
2,relearn,63,734,B,40.55312586885866,25.595053060031567,2.027656293442933,0.40204615330818066,B,1100,Correct
2,relearn,63,735,A,44.20472708247047,65.4259120110852,2.2102363541235235,1.0277078226421874,B,1080,Incorrect
2,relearn,63,736,B,48.03867261964465,27.969927098304144,2.4019336309822323,0.4393505874673719,B,364,Correct
2,relearn,63,737,A,39.053960032620914,53.96864821941667,1.9526980016310458,0.8477375438514565,A,957,Correct
2,relearn,63,738,A,28.434301315823543,45.73761139170642,1.421715065791177,0.7184447197046485,A,1015,Correct
2,relearn,63,739,A,41.0425034809869,65.28393261088874,2.0521251740493454,1.0254776154390959,A,914,Correct
2,relearn,63,740,B,57.06546975748884,25.423842951665506,2.853273487874442,0.39935679121486495,B,837,Correct
2,relearn,63,741,A,52.62586161072664,62.38746383277878,2.6312930805363317,0.9799799902657836,B,1513,Incorrect
2,relearn,63,742,A,60.876761028178976,80.18247207017504,3.0438380514089487,1.2595033260116533,A,318,Correct
2,relearn,63,743,B,73.32514811066045,48.192598682604114,3.6662574055330226,0.757007569893351,B,592,Correct
2,relearn,63,744,A,66.78245368547917,84.99539336994866,3.339122684273958,1.3351045170000264,B,379,Incorrect
2,relearn,63,745,B,41.053763540094934,17.32781778488602,2.0526881770047467,0.2721847252787024,A,726,Incorrect
2,relearn,63,746,A,46.00068851709504,62.309690895374885,2.3000344258547525,0.9787583358218027,B,7175,Incorrect
2,relearn,63,747,A,44.904719113767875,63.23646032597831,2.245235955688394,0.9933159959955794,B,495,Incorrect
2,relearn,63,748,B,74.89181285022441,55.58640913675874,3.7445906425112208,0.8731492729173891,B,660,Correct
2,relearn,63,749,A,26.211646946609797,57.87677637347297,1.3105823473304898,0.90912627734181,A,632,Correct
2,relearn,63,750,B,49.00994530869167,30.1312739339345,2.4504972654345836,0.4733009441707513,B,874,Correct
2,relearn,63,751,B,33.5754264992335,15.676018537054716,1.6787713249616751,0.24623832336774254,A,1014,Incorrect
2,relearn,63,752,A,11.64523368634147,37.18157395692712,0.5822616843170735,0.5840467979599391,A,652,Correct
2,relearn,63,753,A,41.48923508608663,73.6213433364471,2.0744617543043318,1.1564413568659704,B,1708,Incorrect
2,relearn,63,754,B,49.562188081218984,36.30383916080304,2.478109404060949,0.5702593720234213,B,713,Correct
2,relearn,63,755,B,52.786671622984656,39.26694413647204,2.639333581149233,0.6168037161403068,B,1131,Correct
2,relearn,63,756,A,50.19432273229183,64.80717889304763,2.5097161366145913,1.0179887855513896,B,890,Incorrect
2,relearn,63,757,A,48.34407195054155,60.47435740459007,2.4172035975270774,0.9499289847641186,B,3346,Incorrect
2,relearn,63,758,B,34.02235134972845,13.251676727391366,1.7011175674864227,0.20815685127259773,A,914,Incorrect
2,relearn,63,759,B,86.73764735510522,59.84326706567943,4.336882367755261,0.9400158409017526,B,5567,Correct
2,relearn,63,760,B,63.33651362559285,52.188505375735765,3.1668256812796427,0.8197751254512144,B,613,Correct
2,relearn,63,761,A,33.0776135487432,51.73965520134786,1.6538806774371602,0.8127246033991169,A,510,Correct
2,relearn,63,762,A,42.86329330511575,65.27063151893388,2.1431646652557874,1.0252686823752453,B,4245,Incorrect
2,relearn,63,763,B,71.06753405100795,41.817561258554136,3.5533767025503975,0.656868716204574,B,4320,Correct
2,relearn,63,764,A,36.02301062955113,50.46316964765265,1.8011505314775564,0.7926736152096049,A,689,Correct
2,relearn,63,765,A,17.714331399801036,37.73848809065889,0.8857165699900519,0.5927947847159993,A,1257,Correct
2,relearn,63,766,A,51.381577150403416,67.94151956950142,2.5690788575201706,1.0672228937663641,B,661,Incorrect
2,relearn,63,767,A,24.487538423905352,49.55729877242571,1.2243769211952675,0.7784442287760354,A,567,Correct
2,relearn,63,768,A,17.442919334140957,33.890564508673876,0.8721459667070478,0.5323517424323041,A,492,Correct
2,relearn,63,769,A,54.57437690468905,67.62102540231976,2.7287188452344524,1.0621885831606825,B,728,Incorrect
2,relearn,63,770,B,82.0557050033282,54.66607350349525,4.102785250166409,0.8586926745959016,B,445,Correct
2,relearn,63,771,B,40.105707449996196,16.32187911580199,2.00528537249981,0.25638347761492103,B,5699,Correct
2,relearn,63,772,A,11.386433016977094,34.26991025340588,0.5693216508488547,0.5383104914564073,A,675,Correct
2,relearn,63,773,A,28.414962184140165,55.592706598238635,1.4207481092070082,0.8732481932109966,A,3236,Correct
2,relearn,63,774,A,45.90650003157152,55.66506483400487,2.295325001578576,0.8743847937205463,B,519,Incorrect
2,relearn,63,775,B,47.42849340920809,25.499668572735107,2.3714246704604047,0.40054785728539566,B,789,Correct
2,relearn,63,776,A,59.190661687505255,79.93029885364112,2.9595330843752627,1.2555421983891781,B,478,Incorrect
2,relearn,63,777,B,56.376036900457855,25.58852382962776,2.818801845022893,0.4019435923968297,B,542,Correct
2,relearn,63,778,A,41.34224887648696,52.73722833572923,2.0671124438243482,0.8283944455510721,A,694,Correct
2,relearn,63,779,B,64.41955649927243,49.576743875774866,3.2209778249636214,0.7787496717451856,B,872,Correct
2,relearn,63,780,B,80.35700147448071,60.951062936301994,4.017850073724036,0.9574170577458775,B,1054,Correct
2,relearn,63,781,A,56.04482129840079,63.42224990798813,2.8022410649200395,0.9962343719253572,B,4471,Incorrect
2,relearn,63,782,A,30.50830168197399,49.33506691416918,1.5254150840986995,0.7749534189095739,B,5359,Incorrect
2,relearn,63,783,A,68.68206597732967,85.33217991118147,3.4341032988664835,1.3403947476188511,B,396,Incorrect
2,relearn,63,784,A,29.04310971453502,58.975004233925105,1.4521554857267511,0.9263772002336303,A,731,Correct
2,relearn,63,785,A,36.698659141747434,67.5985985189198,1.8349329570873718,1.0618363025000217,A,581,Correct
2,relearn,63,786,B,47.26719829138317,32.17589339789001,2.3633599145691586,0.5054177516074978,B,14030,Correct
2,relearn,63,787,A,67.32558507480356,80.10525070209536,3.366279253740178,1.258290335598357,B,535,Incorrect
2,relearn,63,788,B,64.08942125526929,42.63226943399881,3.204471062763464,0.6696661222985567,B,616,Correct
2,relearn,63,789,A,11.344608208253568,37.560537687175895,0.5672304104126784,0.5899995463145716,A,12549,Correct
2,relearn,63,790,A,15.56968384906629,31.545835318580462,0.7784841924533146,0.495520822441029,A,430,Correct
2,relearn,63,791,B,71.56863476293746,45.9290246664148,3.578431738146873,0.7214514323927657,B,504,Correct
2,relearn,63,792,B,37.74956308618748,25.710657999905713,1.8874781543093742,0.4038620714573172,B,471,Correct
2,relearn,63,793,B,72.96239400384047,41.767237619224915,3.648119700192024,0.656078234326481,B,954,Correct
2,relearn,63,794,A,32.80423420805762,54.0223252190308,1.640211710402881,0.8485807001897289,B,8893,Incorrect
2,relearn,63,795,A,42.73725726482977,68.14803309195258,2.1368628632414883,1.0704668005913618,B,641,Incorrect
2,relearn,63,796,A,68.25352280339754,82.17124286315443,3.4126761401698773,1.2907428645761436,B,724,Incorrect
2,relearn,63,797,B,61.09825718678493,47.39486178978484,3.0549128593392463,0.7444767480834583,B,552,Correct
2,relearn,63,798,B,80.82455428509341,67.983594071701,4.041227714254671,1.0678837985014327,B,776,Correct
2,relearn,63,799,B,51.627836855348974,32.63941082508562,2.5813918427674487,0.5126986663279407,B,777,Correct
2,relearn,63,800,B,45.09444768382312,31.078961906765613,2.254722384191156,0.48818719203745936,A,992,Incorrect
2,relearn,63,801,B,51.44373467375125,23.94675581748733,2.5721867336875626,0.37615476076763416,B,5456,Correct
2,relearn,63,802,A,24.47870006925625,50.37949748794242,1.2239350034628125,0.7913592959983269,A,550,Correct
2,relearn,63,803,B,32.72773560130041,19.436756833946493,1.6363867800650207,0.3053118623956876,A,519,Incorrect
2,relearn,63,804,A,17.278828719732715,44.235500828090984,0.8639414359866358,0.6948496221469793,A,559,Correct
2,relearn,63,805,A,23.471028352676484,48.04936536421803,1.1735514176338242,0.7547576661893961,A,751,Correct
2,relearn,63,806,A,61.14254013373599,79.98953361597243,3.0571270066868,1.256472655860064,B,1065,Incorrect
2,relearn,63,807,A,34.715096455255754,64.51119703325215,1.7357548227627877,1.0133395133697432,A,6017,Correct
2,relearn,63,808,A,48.26736545191767,67.02769482419058,2.4133682725958834,1.0528685682336787,B,901,Incorrect
2,relearn,63,809,A,38.85963079279783,59.69408347855447,1.9429815396398913,0.9376724705950129,B,757,Incorrect
2,relearn,63,810,A,41.2243814212684,64.77342526602399,2.06121907106342,1.0174585848179423,B,1555,Incorrect
2,relearn,63,811,B,46.04868726813609,37.5296950823131,2.3024343634068045,0.589515071810299,B,567,Correct
2,relearn,63,812,A,55.707269465300826,77.60584423539137,2.7853634732650416,1.2190297506276968,B,514,Incorrect
2,relearn,63,813,B,47.8592005445283,19.018556086872184,2.392960027226415,0.2987427804220155,B,484,Correct
2,relearn,63,814,B,55.435473342005785,24.7731262367746,2.7717736671002893,0.38913535695951823,B,481,Correct
2,relearn,63,815,A,33.897534309995436,66.36418645786024,1.6948767154997717,1.042446203187385,A,691,Correct
2,relearn,63,816,B,81.52272395725316,53.89364704506312,4.076136197862658,0.8465594281596579,B,1408,Correct
2,relearn,63,817,A,46.88534253474832,64.40108525972364,2.3442671267374156,1.0116098816757886,B,1167,Incorrect
2,relearn,63,818,B,36.7878920846166,13.477888050120853,1.83939460423083,0.21171017042082668,A,1063,Incorrect
2,relearn,63,819,A,27.50068256524583,57.18466703487846,1.3750341282622915,0.8982546492737629,A,5244,Correct
2,relearn,63,820,A,38.38305266393395,51.3726387381427,1.9191526331966975,0.8069595222763575,B,541,Incorrect
2,relearn,63,821,B,75.9325456486139,45.40281379074909,3.796627282430695,0.7131857312866134,B,557,Correct
2,relearn,63,822,A,62.80745689312107,79.0867421558622,3.1403728446560537,1.2422916407660345,B,635,Incorrect
2,relearn,63,823,B,35.327392506947106,13.648191307325266,1.766369625347355,0.21438528772940565,B,480,Correct
2,relearn,63,824,A,24.132246808593212,48.25329037974036,1.2066123404296605,0.757960912842637,B,507,Incorrect
2,relearn,63,825,A,64.88905944436287,77.80930844650653,3.2444529722181437,1.2222257589822358,B,526,Incorrect
2,relearn,63,826,A,25.594510491635564,56.60177895526019,1.2797255245817782,0.8890986647297937,A,977,Correct
2,relearn,63,827,A,52.6989115988833,76.0958995719874,2.634945579944165,1.1953115953183118,B,824,Incorrect
2,relearn,63,828,A,35.004227488477305,56.20785861100051,1.7502113744238654,0.8829109784316651,B,770,Incorrect
2,relearn,63,829,B,57.113336348302745,41.07026534827864,2.855666817415137,0.6451302194956781,B,715,Correct
2,relearn,63,830,A,39.86289376124667,47.03849075778192,1.9931446880623331,0.7388788850029953,B,455,Incorrect
2,relearn,63,831,A,34.61542183058818,57.74075480497915,1.7307710915294092,0.9069896555402601,120,646,Correct
2,relearn,63,832,B,51.08217277963061,37.378126390153106,2.5541086389815306,0.5871342363612788,B,1281,Correct
2,relearn,63,833,B,58.39658778329236,41.28561927742254,2.9198293891646183,0.648512991104279,B,1331,Correct
2,relearn,63,834,A,56.33053821767061,70.55454424800874,2.8165269108835305,1.1082681894346014,B,3355,Incorrect
2,relearn,63,835,A,45.22480698116994,58.50124986566426,2.261240349058497,0.9189354840189586,A,690,Correct
2,relearn,63,836,B,68.93947558033905,36.77991401067186,3.446973779016952,0.577737538277955,B,567,Correct
2,relearn,63,837,B,36.47089542437911,13.276482244213621,1.8235447712189554,0.20854649541968423,B,4951,Correct
2,relearn,63,838,B,38.49527359677903,24.809850593301494,1.9247636798389516,0.38971222180288173,B,677,Correct
2,relearn,63,839,B,49.509399526677036,35.08075288147025,2.475469976333852,0.5510471776741295,B,507,Correct
2,relearn,63,840,A,21.332363236648064,50.295083130488365,1.066618161832403,0.790033318372151,A,525,Correct
2,relearn,63,841,A,26.73053907183895,46.29885599560321,1.3365269535919475,0.7272607293269939,A,587,Correct
2,relearn,63,842,A,40.113005414679144,50.030887655544255,2.005650270733957,0.7858833455561703,B,915,Incorrect
2,relearn,63,843,A,17.12802947723932,44.38805591376622,0.8564014738619661,0.6972459518291048,A,529,Correct
2,relearn,63,844,B,58.3374197324888,29.317699501881677,2.9168709866244398,0.460521346876323,B,871,Correct
2,relearn,63,845,A,35.5229344704229,63.396433939695136,1.7761467235211452,0.9958288556436844,B,720,Incorrect
2,relearn,63,846,B,48.22348553196363,19.95486224506748,2.4111742765981816,0.3134502431625016,A,916,Incorrect
2,relearn,63,847,B,55.82011195988705,43.48317851923987,2.7910055979943524,0.6830321709538875,B,441,Correct
2,relearn,63,848,B,37.55918841004528,11.179271982443229,1.877959420502264,0.17560359366262923,A,737,Incorrect
2,relearn,63,849,B,40.53260549662072,17.802378625383557,2.0266302748310356,0.2796391095296447,B,766,Correct
2,relearn,63,850,A,37.88182177137903,56.880426837225386,1.8940910885689517,0.8934756554243949,B,823,Incorrect
2,relearn,63,851,A,50.97116101989567,69.93433926504903,2.5485580509947834,1.0985260323436712,B,785,Incorrect
2,relearn,63,852,B,44.07661010541949,19.70463930976488,2.2038305052709743,0.3095197504859699,A,659,Incorrect
2,relearn,63,853,B,50.23547582306648,19.698462568084434,2.511773791153324,0.30942272645453794,B,410,Correct
2,relearn,63,854,B,83.8921001943337,66.55012239437136,4.1946050097166845,1.045366878048293,B,767,Correct
2,relearn,63,855,B,50.58276709865239,26.23351273877404,2.5291383549326194,0.41207505448993387,B,888,Correct
2,relearn,63,856,A,39.79732175380935,65.57372211510575,1.9898660876904675,1.0300296183267739,A,1115,Correct
2,relearn,63,857,A,56.934789047010625,82.83320837587956,2.846739452350531,1.3011409945346786,B,702,Incorrect
2,relearn,63,858,A,21.858463382133817,49.71449244225545,1.092923169106691,0.780913421167675,A,609,Correct
2,relearn,63,859,B,70.65527254095853,51.86776900447105,3.532763627047927,0.8147370103126932,B,930,Correct
2,relearn,63,860,A,55.74443484035706,80.26754314885149,2.7872217420178527,1.2608396193906677,B,1323,Incorrect
2,relearn,63,861,B,60.514691479389214,30.675867895056157,3.0257345739694608,0.4818554061079971,A,557,Incorrect
2,relearn,63,862,A,21.484933930059007,47.45165891399722,1.0742466965029505,0.7453689152243115,A,560,Correct
2,relearn,63,863,B,35.485318378345646,12.43981473555511,1.7742659189172825,0.19540415292618996,A,598,Incorrect
2,relearn,63,864,B,33.88068907226523,12.972763350031418,1.6940344536132614,0.20377569018608807,A,997,Incorrect
2,relearn,63,865,B,66.57496916613465,44.29471268942553,3.3287484583067326,0.6957797198898491,B,458,Correct
2,relearn,63,866,B,83.78761392781477,56.086068296310685,4.189380696390739,0.8809979006421252,B,618,Correct
2,relearn,63,867,A,21.43059720067555,39.32399121089482,1.0715298600337775,0.6176998094898838,A,650,Correct
2,relearn,63,868,B,67.56214767489058,56.99534669673172,3.378107383744529,0.8952808123562781,B,1365,Correct
2,relearn,63,869,B,79.05549262918043,51.138228330870284,3.9527746314590217,0.8032774122092975,B,476,Correct
2,relearn,63,870,A,26.934465208879484,49.87618868047173,1.346723260443974,0.7834533397381419,A,534,Correct
2,relearn,63,871,B,60.39283750447974,40.907525376438045,3.0196418752239875,0.642573905995779,B,699,Correct
2,relearn,63,872,A,52.081356005012715,69.41579723698355,2.604067800250636,1.0903807932139309,B,617,Incorrect
2,relearn,63,873,B,76.94462927618223,62.81023711748746,3.8472314638091114,0.9866208974926576,B,615,Correct
2,relearn,63,874,B,70.26536091558316,52.64184896758145,3.5132680457791583,0.8268962299396867,B,917,Correct
2,relearn,63,875,B,68.48686117685193,55.44463529178999,3.4243430588425965,0.870922294568264,A,738,Incorrect
2,relearn,63,876,B,75.73630804603572,63.62364837239191,3.786815402301786,0.9993979316064332,B,4835,Correct
2,relearn,63,877,A,31.30977647041869,60.49496181340048,1.5654888235209343,0.9502526380608701,A,954,Correct
2,relearn,63,878,A,61.980897353869594,75.19445272849873,3.0990448676934794,1.1811517014127828,B,481,Incorrect
2,relearn,63,879,B,74.75227920967019,49.085109951277325,3.7376139604835092,0.7710271041179004,B,767,Correct
2,relearn,63,880,B,62.88750251473769,37.92968205059413,3.144375125736884,0.5957980524157158,B,902,Correct
2,relearn,63,881,A,31.41836379026319,43.82726451679402,1.5709181895131596,0.6884370611644834,A,702,Correct
2,relearn,63,882,A,28.3367420929466,55.862146494520324,1.41683710464733,0.8774805452047093,A,401,Correct
2,relearn,63,883,A,39.63493142832533,71.2103987391963,1.9817465714162665,1.1185703276912948,A,769,Correct
2,relearn,63,884,B,45.865163180435786,37.89006377686336,2.2932581590217893,0.5951757300272132,B,709,Correct
2,relearn,63,885,B,60.316910199820526,39.14722863794208,3.0158455099910264,0.614923229486794,B,1481,Correct
2,relearn,63,886,A,39.90985024720326,66.00261709573029,1.9954925123601628,1.0367666849282318,A,822,Correct
2,relearn,63,887,A,56.02399633359026,66.15419415849361,2.8011998166795133,1.0391476518623814,B,637,Incorrect
2,relearn,63,888,B,85.1909122443941,65.51396966062882,4.259545612219705,1.0290910289666804,B,502,Correct
2,relearn,63,889,A,20.097864289967266,33.05945760136578,1.0048932144983633,0.5192967456605698,A,3136,Correct
2,relearn,63,890,B,46.17057254925184,17.32177950949199,2.3085286274625916,0.2720898762706112,B,550,Correct
2,relearn,63,891,B,39.097954015966614,13.446450321835137,1.9548977007983308,0.21121634773968687,B,579,Correct
2,relearn,63,892,B,51.02179140254428,28.81382811431586,2.551089570127214,0.4526065536286688,B,468,Correct
2,relearn,63,893,A,29.962530459801435,49.313005772074796,1.4981265229900718,0.7746068832999062,A,568,Correct
2,relearn,63,894,B,52.77047842124249,28.953078627822705,2.6385239210621245,0.4547938955798773,B,564,Correct
2,relearn,63,895,B,79.61166779684449,63.30522189708405,3.980583389842224,0.9943961002287548,B,495,Correct
2,relearn,63,896,A,17.103267372733704,44.60011567306007,0.8551633686366853,0.7005769787387025,A,540,Correct
2,relearn,63,897,A,17.01195351793466,35.90856834583401,0.850597675896733,0.5640504725809957,B,380,Incorrect
2,relearn,63,898,B,74.37503482411924,50.25270068632752,3.7187517412059616,0.7893675764960665,B,429,Correct
