experiment,condition,subject,trial,cat,x,y,xt,yt,resp,rt,fb
2,new_learn,78,0,B,46.846201818501264,32.40595511766358,2.3423100909250634,0.5090315526510623,A,782,Incorrect
2,new_learn,78,1,A,56.73888371312557,73.96026064484579,2.8369441856562783,1.161765057497169,B,846,Incorrect
2,new_learn,78,2,A,29.478379965472747,54.62700313183246,1.4739189982736374,0.8580789586329572,B,1947,Incorrect
2,new_learn,78,3,A,59.2374857955722,85.23735899370946,2.96187428977861,1.3389053041301675,A,1089,Correct
2,new_learn,78,4,B,72.94629791182233,57.78952421029527,3.6473148955911165,0.9077557235675655,A,1604,Incorrect
2,new_learn,78,5,A,35.11214049048243,66.41643709287496,1.7556070245241215,1.043266954242923,B,1923,Incorrect
2,new_learn,78,6,A,43.128975035205556,63.4864667812014,2.1564487517602777,0.9972430882109738,A,1242,Correct
2,new_learn,78,7,B,58.81636387476017,40.25373837435407,2.9408181937380085,0.6323042437819815,A,1401,Incorrect
2,new_learn,78,8,A,57.41240474417572,85.59424924854235,2.8706202372087857,1.3445113231437715,B,1076,Incorrect
2,new_learn,78,9,B,67.05881912266705,53.25201683225512,3.3529409561333523,0.8364807243452634,A,9542,Incorrect
2,new_learn,78,10,A,45.397984590896044,76.24351337269229,2.2698992295448024,1.1976303074776262,B,21287,Incorrect
2,new_learn,78,11,A,57.24248274227949,84.72190118434469,2.8621241371139745,1.3308085117944883,B,787,Incorrect
2,new_learn,78,12,A,60.645500111665555,72.12841622196662,3.032275005583278,1.132990512589986,A,626,Correct
2,new_learn,78,13,A,37.65870188416466,49.10791828269649,1.8829350942082328,0.771385376550036,A,808,Correct
2,new_learn,78,14,B,70.03542875499035,55.9329485816686,3.5017714377495173,0.8785927017889287,A,617,Incorrect
2,new_learn,78,15,A,35.9870406565761,55.63162065963879,1.7993520328288048,0.8738594538580768,A,472,Correct
2,new_learn,78,16,A,29.67253570176723,59.06460168496893,1.4836267850883615,0.9277845937035285,A,670,Correct
2,new_learn,78,17,B,61.074663149418384,43.3378311833285,3.0537331574709192,0.6807490603402973,B,529,Correct
2,new_learn,78,18,A,39.914936660114314,67.6270968282188,1.9957468330057155,1.0622839528956889,A,811,Correct
2,new_learn,78,19,B,79.83054937659713,60.822493111238565,3.9915274688298563,0.9553974876564144,B,489,Correct
2,new_learn,78,20,A,17.602322162320792,37.291722341383604,0.8801161081160396,0.5857770047370054,A,737,Correct
2,new_learn,78,21,B,73.67189820831604,63.648878599695024,3.683594910415802,0.9997942470901525,B,653,Correct
2,new_learn,78,22,A,20.277812211400914,51.904536454624825,1.0138906105700456,0.8153145520691649,A,535,Correct
2,new_learn,78,23,A,69.02740990013648,83.94717900719247,3.451370495006824,1.318639204292916,B,582,Incorrect
2,new_learn,78,24,B,40.46080339966812,23.82704965604773,2.023040169983406,0.3742744207807938,A,1412,Incorrect
2,new_learn,78,25,A,30.122369374534976,55.21233605433865,1.5061184687267488,0.8672733466792057,A,576,Correct
2,new_learn,78,26,A,33.5585090076848,42.58889138862962,1.6779254503842398,0.6689847415552621,A,524,Correct
2,new_learn,78,27,B,79.15968642294989,59.623512991668846,3.9579843211474945,0.9365639519792123,B,598,Correct
2,new_learn,78,28,B,51.723969085224724,27.323401059297424,2.586198454261236,0.42919498019488184,B,818,Correct
2,new_learn,78,29,B,53.5982944716587,30.52044810163718,2.679914723582935,0.4794140777018595,B,482,Correct
2,new_learn,78,30,B,56.69298536250108,30.13591160572769,2.834649268125054,0.4733737925489275,B,544,Correct
2,new_learn,78,31,B,63.915457548232624,44.83830543227431,3.195772877411631,0.7043184547272414,B,382,Correct
2,new_learn,78,32,A,40.25819484161142,71.88860853196748,2.012909742080571,1.1292236222041079,A,1608,Correct
2,new_learn,78,33,A,14.637234062573757,30.36824238287245,0.7318617031286878,0.47702323586233136,A,1083,Correct
2,new_learn,78,34,B,55.87039378099846,41.0192358717365,2.793519689049923,0.6443286503525715,B,580,Correct
2,new_learn,78,35,A,42.68530160223744,73.6282768297322,2.134265080111872,1.1565502679238113,A,1734,Correct
2,new_learn,78,36,B,70.73344726246512,38.526694563137596,3.536672363123256,0.6051759030332545,B,681,Correct
2,new_learn,78,37,A,63.833483156845304,74.23560991646391,3.1916741578422654,1.1660902337416033,A,829,Correct
2,new_learn,78,38,B,54.67572339940358,26.516633805315994,2.733786169970179,0.4165223098035575,B,1049,Correct
2,new_learn,78,39,B,64.41717568109367,47.56736478948025,3.2208587840546836,0.7471864188662849,B,1073,Correct
2,new_learn,78,40,B,73.09744907301163,41.95816716185369,3.654872453650581,0.6590773485688602,B,766,Correct
2,new_learn,78,41,B,40.648639145685095,15.405939716687186,2.0324319572842544,0.2419959351779584,A,764,Incorrect
2,new_learn,78,42,B,57.182639535720384,40.39053753923209,2.8591319767860193,0.6344530800389716,B,657,Correct
2,new_learn,78,43,A,43.75245493709698,70.78710807275115,2.187622746854849,1.1119212934511087,A,1200,Correct
2,new_learn,78,44,A,40.625470678525794,57.33847328515644,2.03127353392629,0.9006706322035103,A,653,Correct
2,new_learn,78,45,A,62.46186337968677,82.60802151642875,3.1230931689843384,1.2976037676180006,A,616,Correct
2,new_learn,78,46,A,38.45596771253934,54.2049003949786,1.922798385626967,0.8514485843471562,A,598,Correct
2,new_learn,78,47,B,86.01408279329974,65.2395519709573,4.300704139664987,1.0247804859772447,A,746,Incorrect
2,new_learn,78,48,B,49.92739804245758,19.426012029656235,2.496369902122879,0.3051430834045749,B,554,Correct
2,new_learn,78,49,A,68.46886203314097,88.85705871129056,3.4234431016570483,1.3957634143349367,A,949,Correct
2,new_learn,78,50,A,54.98657742093011,75.71163172678158,2.7493288710465054,1.1892755301207647,A,979,Correct
2,new_learn,78,51,A,56.153725106477,79.04751308208593,2.80768625532385,1.2416754319161212,A,530,Correct
2,new_learn,78,52,A,33.05875469171076,46.75639284939815,1.652937734585538,0.7344477014201378,A,719,Correct
2,new_learn,78,53,B,47.939648681782494,30.186644640770616,2.3969824340891246,0.4741707051998533,B,1233,Correct
2,new_learn,78,54,B,69.51171701698397,47.3725118264517,3.4755858508491984,0.7441256756803813,B,834,Correct
2,new_learn,78,55,B,47.77525420668253,29.257108712231318,2.3887627103341265,0.4595695889781192,B,1606,Correct
2,new_learn,78,56,A,44.228422445432486,52.707044344363084,2.2114211222716245,0.8279203165234126,B,1462,Incorrect
2,new_learn,78,57,A,36.39747085373267,56.737554216782904,1.8198735426866335,0.8912314175504887,A,608,Correct
2,new_learn,78,58,A,52.82779148284689,71.37796061340127,2.641389574142345,1.1212023834564153,A,584,Correct
2,new_learn,78,59,B,67.90197706152567,49.50913073236493,3.3950988530762833,0.7776876069720716,B,822,Correct
2,new_learn,78,60,A,47.34232832699131,77.60332224896408,2.3671164163495657,1.2189901353575343,A,671,Correct
2,new_learn,78,61,B,79.19107445951113,66.64044912248414,3.9595537229755564,1.0467857269756027,B,694,Correct
2,new_learn,78,62,A,40.6166173839746,61.24710876622986,2.03083086919873,0.9620673347680138,A,1098,Correct
2,new_learn,78,63,A,27.824049033344078,56.87775518342325,1.391202451667204,0.8934336891846062,A,602,Correct
2,new_learn,78,64,B,51.27982766314016,22.87014846770774,2.563991383157008,0.35924345206329245,B,780,Correct
2,new_learn,78,65,B,42.904130863538896,29.242975874972558,2.145206543176945,0.45934759088958677,B,1666,Correct
2,new_learn,78,66,B,64.98201469307466,53.82064142244693,3.2491007346537333,0.845412658521249,B,1151,Correct
2,new_learn,78,67,B,65.91048286365563,43.340931465420226,3.295524143182781,0.6807977594575144,B,741,Correct
2,new_learn,78,68,A,63.331684820673914,77.85602470453246,3.1665842410336955,1.222959576247323,A,847,Correct
2,new_learn,78,69,A,31.192321641568995,47.83529008209679,1.5596160820784497,0.7513949795212598,A,688,Correct
2,new_learn,78,70,B,36.92603271877984,12.213465432526345,1.8463016359389917,0.19184866638848824,B,1649,Correct
2,new_learn,78,71,B,55.05332062526641,42.703869190244546,2.7526660312633204,0.6707908086396589,B,1670,Correct
2,new_learn,78,72,B,55.16512257008648,33.545881072136304,2.7582561285043243,0.5269374676721015,B,1074,Correct
2,new_learn,78,73,A,28.053161087345373,38.2810805261639,1.4026580543672684,0.6013178067623789,A,1007,Correct
2,new_learn,78,74,B,62.75678911060679,45.02974342318363,3.1378394555303397,0.7073255556565351,B,2331,Correct
2,new_learn,78,75,B,50.81787302235227,33.785484734338795,2.5408936511176137,0.5307011531968443,B,1023,Correct
2,new_learn,78,76,A,24.458327367782392,48.86968337628703,1.2229163683891195,0.7676431913910128,A,517,Correct
2,new_learn,78,77,A,48.94789328707421,73.69919054624641,2.4473946643537103,1.1576641779780106,A,1175,Correct
2,new_learn,78,78,B,76.24527819344411,55.660722498189344,3.8122639096722053,0.8743165844690588,B,1764,Correct
2,new_learn,78,79,A,51.35758968686616,61.479507760242086,2.567879484343308,0.965717849629466,A,1230,Correct
2,new_learn,78,80,A,60.25037962636238,85.52071272424593,3.0125189813181192,1.3433562141212705,A,894,Correct
2,new_learn,78,81,B,75.99934177373693,59.06606791484044,3.799967088686847,0.9278076251884926,B,1441,Correct
2,new_learn,78,82,A,27.32703880163437,57.71221887691102,1.3663519400817186,0.9065414142303491,A,541,Correct
2,new_learn,78,83,A,48.437463121229925,58.11438185351019,2.4218731560614963,0.9128585754944979,A,748,Correct
2,new_learn,78,84,A,48.45201708032211,55.671541408015734,2.422600854016105,0.8744865275072109,A,650,Correct
2,new_learn,78,85,A,17.807192326045627,44.09214315041344,0.8903596163022813,0.692597765011842,A,728,Correct
2,new_learn,78,86,B,59.23908486855982,40.40802979307393,2.961954243427991,0.6347278477197927,B,2449,Correct
2,new_learn,78,87,A,23.405723976528403,53.62019229775313,1.1702861988264202,0.842264011033466,A,656,Correct
2,new_learn,78,88,B,81.04394560565925,58.896339777458905,4.052197280282963,0.9251415418409661,A,1681,Incorrect
2,new_learn,78,89,A,35.837001537967666,59.45844709906019,1.7918500768983834,0.9339711030013242,A,3356,Correct
2,new_learn,78,90,B,43.52604441558535,18.652724473068254,2.1763022207792675,0.29299631087012884,B,566,Correct
2,new_learn,78,91,A,59.94343258044414,76.84320985371959,2.997171629022207,1.2070503177735212,A,596,Correct
2,new_learn,78,92,A,58.76619472594899,76.00915419480816,2.9383097362974495,1.1939490021199157,A,436,Correct
2,new_learn,78,93,B,48.84550893333245,23.30541948838155,2.4422754466666223,0.3660806732676394,B,1187,Correct
2,new_learn,78,94,A,56.99926484792652,74.310893423031,2.849963242396326,1.1672727842974413,A,547,Correct
2,new_learn,78,95,A,22.506036358925556,50.29249780940201,1.1253018179462777,0.7899927082434904,A,591,Correct
2,new_learn,78,96,A,33.618216718206895,42.28966920145996,1.6809108359103448,0.6642845704302456,A,1141,Correct
2,new_learn,78,97,B,61.26072843111638,31.324319978980668,3.063036421555819,0.4920412676233083,B,2595,Correct
2,new_learn,78,98,A,27.797868015374483,54.45843605773542,1.3898934007687243,0.8554311132248554,A,554,Correct
2,new_learn,78,99,A,48.35185851888556,64.09941940910763,2.417592925944278,1.0068713255751176,A,649,Correct
2,new_learn,78,100,B,66.81591829376562,45.30973877919611,3.3407959146882806,0.7117237124239754,B,2889,Correct
2,new_learn,78,101,B,54.72433891679472,46.71979838567149,2.7362169458397365,0.7338728769281092,B,808,Correct
2,new_learn,78,102,B,80.14809054270499,51.05365539276198,4.007404527135249,0.8019489436040298,B,1103,Correct
2,new_learn,78,103,A,14.041655179033445,35.88963921513505,0.7020827589516722,0.5637531344912822,A,548,Correct
2,new_learn,78,104,A,17.212595172325933,32.482353715900885,0.8606297586162966,0.5102316190258966,A,489,Correct
2,new_learn,78,105,B,39.18219360461694,28.46683488303186,1.959109680230847,0.4471559966974327,A,841,Incorrect
2,new_learn,78,106,A,48.109917365934436,55.61305872237665,2.405495868296722,0.8735678836293812,B,656,Incorrect
2,new_learn,78,107,A,45.34726251087537,69.55203482176843,2.2673631255437683,1.092520808191446,A,797,Correct
2,new_learn,78,108,B,66.77011195704489,57.510002409039,3.3385055978522447,0.9033650053808409,A,1331,Incorrect
2,new_learn,78,109,A,48.42915321179696,55.93031197255939,2.421457660589848,0.8785512860298893,B,3519,Incorrect
2,new_learn,78,110,A,37.4389600984727,61.491075783007986,1.871948004923635,0.9658995597061557,A,1840,Correct
2,new_learn,78,111,B,37.829485193291156,11.55671885644567,1.891474259664558,0.18153251529506176,B,708,Correct
2,new_learn,78,112,A,29.267468643341164,53.37941333890842,1.4633734321670582,0.8384818639922385,A,707,Correct
2,new_learn,78,113,B,85.78711829774048,62.74466907276176,4.2893559148870235,0.9855909570545552,B,2119,Correct
2,new_learn,78,114,A,55.299899636948425,70.43683930186525,2.7649949818474213,1.1064192844641234,B,2405,Incorrect
2,new_learn,78,115,A,41.04245018201263,68.48653441000467,2.0521225091006317,1.0757839668614761,A,617,Correct
2,new_learn,78,116,B,78.10447412844314,61.7830428262577,3.905223706422157,0.9704857672969739,B,573,Correct
2,new_learn,78,117,B,72.34478236770055,57.60949050128464,3.617239118385027,0.904927760679434,B,1497,Correct
2,new_learn,78,118,B,84.30496458163503,59.97705418630952,4.215248229081752,0.9421173640783348,B,678,Correct
2,new_learn,78,119,A,59.85748284153431,82.95241775183172,2.9928741420767158,1.3030135310333304,B,1944,Incorrect
2,new_learn,78,120,B,51.542295306900726,31.266153760541563,2.577114765345036,0.49112759480063123,B,1539,Correct
2,new_learn,78,121,A,36.94272765578489,50.23626326690494,1.8471363827892446,0.7891093781155567,A,1986,Correct
2,new_learn,78,122,B,47.79007437510263,37.648423470053054,2.3895037187551313,0.5913800529637812,A,659,Incorrect
2,new_learn,78,123,B,45.884986503932694,17.025433939257272,2.2942493251966347,0.2674348909387449,B,631,Correct
2,new_learn,78,124,B,47.560450249449104,19.73180664990222,2.378022512472455,0.3099464940669352,B,447,Correct
2,new_learn,78,125,A,44.28993183826626,63.62575307854148,2.214496591913313,0.9994309922533204,A,2397,Correct
2,new_learn,78,126,A,37.79247292133088,66.72996460986012,1.8896236460665436,1.0481918329632172,A,614,Correct
2,new_learn,78,127,B,64.7096412875952,55.463406070489455,3.2354820643797604,0.8712171452705861,B,759,Correct
2,new_learn,78,128,A,19.069646104170406,48.66120206816828,0.9534823052085203,0.7643683746610296,A,464,Correct
2,new_learn,78,129,B,56.776594998724576,28.490554708941403,2.838829749936229,0.447528586851542,B,2191,Correct
2,new_learn,78,130,B,63.46013978657709,46.37013066620368,3.1730069893288544,0.7283803092347213,B,583,Correct
2,new_learn,78,131,A,42.61326379237214,58.75608154768454,2.1306631896186072,0.9229383707196427,A,435,Correct
2,new_learn,78,132,B,60.32048620952026,47.367539335612946,3.016024310476013,0.7440475679769359,B,650,Correct
2,new_learn,78,133,A,25.22871692173699,54.28708451386182,1.2614358460868496,0.8527395294677826,A,512,Correct
2,new_learn,78,134,B,33.45869123749678,21.59951837660248,1.672934561874839,0.3392844412650604,A,698,Incorrect
2,new_learn,78,135,A,49.61868679603403,78.87664183947501,2.480934339801701,1.2389913927136402,B,711,Incorrect
2,new_learn,78,136,A,24.840275024924622,36.037852824070264,1.242013751246231,0.5660812684162466,A,589,Correct
2,new_learn,78,137,B,60.79814515213985,47.3494301519491,3.0399072576069925,0.7437631095851316,B,686,Correct
2,new_learn,78,138,B,50.91128657253718,41.11212157051088,2.5455643286268588,0.6457876954970371,B,721,Correct
2,new_learn,78,139,B,57.603601913813996,26.659522209266413,2.8801800956907,0.41876679560422647,B,769,Correct
2,new_learn,78,140,A,27.452927349541973,45.173428373082956,1.3726463674770986,0.7095825535717106,A,683,Correct
2,new_learn,78,141,B,70.31533889078108,44.149188203882446,3.515766944539054,0.6934938266163513,B,1187,Correct
2,new_learn,78,142,A,46.25270595039914,77.94056038153067,2.312635297519957,1.2242874595564424,A,922,Correct
2,new_learn,78,143,B,40.8599378307341,31.479754322008162,2.042996891536705,0.4944828245741619,B,755,Correct
2,new_learn,78,144,B,51.120332206695615,28.819475735805664,2.556016610334781,0.45269526625958184,B,787,Correct
2,new_learn,78,145,B,57.538680301819376,49.42670081216849,2.876934015090969,0.776392800813446,B,676,Correct
2,new_learn,78,146,B,68.45523165867971,57.093800691564,3.4227615829339855,0.8968273240906864,B,881,Correct
2,new_learn,78,147,B,78.63111084260677,57.03645163059112,3.9315555421303383,0.8959264871474731,B,688,Correct
2,new_learn,78,148,A,61.57170447219063,88.08258277573889,3.0785852236095312,1.3835979747873808,A,1164,Correct
2,new_learn,78,149,A,38.5976634184371,68.91034472588731,1.929883170921855,1.0824411637359386,A,903,Correct
2,new_learn,78,150,B,39.9796778364167,22.52565837565004,1.998983891820835,0.35383221435107776,B,2316,Correct
2,new_learn,78,151,A,53.11802717305733,77.0642699435704,2.6559013586528666,1.2105227215449073,B,871,Incorrect
2,new_learn,78,152,A,12.826632665277717,37.81817356674647,0.6413316332638859,0.594046481247372,A,689,Correct
2,new_learn,78,153,A,54.448644069260844,63.56314095888577,2.722432203463042,0.9984474833776401,B,1667,Incorrect
2,new_learn,78,154,A,44.166149232226154,58.681645668643256,2.208307461611308,0.9217691346658449,A,855,Correct
2,new_learn,78,155,A,54.524492830237236,67.53025693263831,2.726224641511862,1.0607627953730385,B,3565,Incorrect
2,new_learn,78,156,A,62.3478512937766,83.36928529543297,3.11739256468883,1.309561671095819,A,1447,Correct
2,new_learn,78,157,A,39.76893554933744,70.83039975045169,1.9884467774668722,1.1126013175342369,A,4081,Correct
2,new_learn,78,158,A,25.72987125231582,36.42924745960225,1.286493562615791,0.5722292809744552,A,870,Correct
2,new_learn,78,159,A,39.01004495190021,59.36457943296397,1.9505022475950107,0.9324966331502367,A,1158,Correct
2,new_learn,78,160,B,54.102399288792796,29.5956718078476,2.70511996443964,0.4648877256479429,B,3232,Correct
2,new_learn,78,161,A,12.755265262644151,39.4068046141296,0.6377632631322075,0.6190006393859895,A,1043,Correct
2,new_learn,78,162,B,45.40520163692039,26.045173389375773,2.2702600818460197,0.4091166269076765,B,694,Correct
2,new_learn,78,163,B,48.44614767676207,17.96981572843067,2.422307383838103,0.2822692053940006,B,712,Correct
2,new_learn,78,164,A,21.11874310689904,36.90862128960872,1.0559371553449521,0.5797592674878129,A,600,Correct
2,new_learn,78,165,B,74.44178757779464,49.06318697914263,3.722089378889732,0.7706827388768843,B,679,Correct
2,new_learn,78,166,B,40.02710360225731,29.65680273697803,2.0013551801128657,0.4658479680372592,A,840,Incorrect
2,new_learn,78,167,A,54.4691383214052,73.92639826814866,2.7234569160702597,1.161233148527845,B,755,Incorrect
2,new_learn,78,168,B,45.528250608859956,31.10607428827354,2.276412530442998,0.4886130723302925,A,1602,Incorrect
2,new_learn,78,169,A,34.54223436860202,52.784414776939094,1.7271117184301008,0.829135648436342,A,838,Correct
2,new_learn,78,170,A,52.177492695942526,73.29060067881665,2.608874634797126,1.1512460633487673,A,1238,Correct
2,new_learn,78,171,B,54.84039573444714,39.32755530122892,2.7420197867223575,0.6177557940899355,B,842,Correct
2,new_learn,78,172,B,36.01139981453984,22.10854907875749,1.8005699907269923,0.34728027683676965,A,869,Incorrect
2,new_learn,78,173,B,34.86552069413534,21.1654300495105,1.743276034706767,0.3324657977680542,B,1006,Correct
2,new_learn,78,174,B,47.24355276004715,17.01151857183452,2.3621776380023576,0.2672163088584083,B,4013,Correct
2,new_learn,78,175,B,87.27074145327775,67.96478403381208,4.363537072663887,1.0675883311172043,B,1171,Correct
2,new_learn,78,176,A,17.750831182956933,44.79262832281236,0.8875415591478466,0.703600960369627,A,898,Correct
2,new_learn,78,177,B,44.924246631311554,16.63404813610529,2.2462123315655775,0.2612870171192368,B,3719,Correct
2,new_learn,78,178,A,42.6789360458658,70.14601025903335,2.1339468022932895,1.1018509525420672,A,1505,Correct
2,new_learn,78,179,A,57.577709427939766,84.0699988353759,2.8788854713969885,1.320568453642597,B,1081,Incorrect
2,new_learn,78,180,B,86.16291641647632,61.006073537405825,4.308145820823816,0.958281162247364,B,3714,Correct
2,new_learn,78,181,B,73.30841781735383,49.55369019083187,3.6654208908676913,0.77838754530891,B,624,Correct
2,new_learn,78,182,B,48.45527011925394,27.69594305100434,2.4227635059626973,0.43504685611638255,A,799,Incorrect
2,new_learn,78,183,A,34.71546299624616,67.0028290386565,1.7357731498123081,1.0524779773878805,A,680,Correct
2,new_learn,78,184,B,52.94062783132828,38.18040201330878,2.6470313915664136,0.5997363523805791,A,9604,Incorrect
2,new_learn,78,185,A,36.72980360235017,53.49721922530256,1.8364901801175082,0.8403323545284658,A,747,Correct
2,new_learn,78,186,B,52.05970620215053,34.10841128016587,2.602985310107526,0.5357736715169417,B,1395,Correct
2,new_learn,78,187,A,52.640505666166185,66.40328139881473,2.6320252833083093,1.0430603050838607,A,1297,Correct
2,new_learn,78,188,B,65.47492749571363,40.86553414236703,3.2737463747856816,0.6419143092334156,B,789,Correct
2,new_learn,78,189,A,38.27528412214852,48.223747798560126,1.913764206107426,0.7574968590626172,A,834,Correct
2,new_learn,78,190,A,31.27904352437179,55.99448188407006,1.5639521762185895,0.8795592646428064,A,723,Correct
2,new_learn,78,191,B,69.88413032536185,54.275273356477435,3.494206516268093,0.8525540002414366,B,814,Correct
2,new_learn,78,192,B,73.42818641043513,49.07993648238883,3.671409320521757,0.7709458394586323,107,1103,Correct
2,new_learn,78,193,A,37.345183007749306,60.33222044350134,1.8672591503874654,0.9476963026003186,A,692,Correct
2,new_learn,78,194,A,60.91974469822666,87.40848200438633,3.045987234911333,1.3730092246320786,A,1834,Correct
2,new_learn,78,195,B,85.21177643973253,60.331290588090795,4.260588821986627,0.9476816964656852,B,776,Correct
2,new_learn,78,196,A,53.00111239090163,72.36987522382235,2.6500556195450815,1.1367833417218514,A,1199,Correct
2,new_learn,78,197,B,50.786257655716994,32.90413372954718,2.53931288278585,0.5168569239874078,B,1053,Correct
2,new_learn,78,198,A,18.50502117241596,49.185109631906414,0.9252510586207982,0.7725978954280289,A,1269,Correct
2,new_learn,78,199,A,58.21151649290063,79.06986483081032,2.910575824645031,1.2420265323640582,A,1768,Correct
2,new_learn,78,200,B,72.20044760545012,50.22614951552568,3.6100223802725058,0.78895051168039,B,1491,Correct
2,new_learn,78,201,A,13.304472831098373,33.01723465959862,0.6652236415549185,0.5186335092422265,A,1823,Correct
2,new_learn,78,202,B,69.43557051911012,44.46663653220737,3.471778525955506,0.698480293297151,B,697,Correct
2,new_learn,78,203,B,64.59926409469355,52.50721722163463,3.229963204734678,0.824781439419654,B,1556,Correct
2,new_learn,78,204,B,72.32098397562774,59.47682913369903,3.616049198781387,0.9342598473262212,B,681,Correct
2,new_learn,78,205,A,30.382800171496516,42.85685961542327,1.519140008574826,0.673193976618714,A,569,Correct
2,new_learn,78,206,A,29.791413913574434,44.34104483614445,1.4895706956787216,0.6965075035486352,A,723,Correct
2,new_learn,78,207,A,56.409984463553485,83.62664196294715,2.8204992231776744,1.3136042201758933,A,2566,Correct
2,new_learn,78,208,A,49.78978359142823,63.70327515083059,2.489489179571412,1.000648706117293,A,2318,Correct
2,new_learn,78,209,A,43.215789097830715,50.67985031029381,2.160789454891536,0.7960772270992471,A,684,Correct
2,new_learn,78,210,A,27.63049037608691,51.47655323386784,1.3815245188043457,0.8085918073582156,A,918,Correct
2,new_learn,78,211,A,37.416272343533684,70.14698771325527,1.870813617176684,1.1018663063570813,A,690,Correct
2,new_learn,78,212,B,44.27664987477662,25.90412100997657,2.213832493738831,0.40690098131321706,A,857,Incorrect
2,new_learn,78,213,A,62.52266542511563,71.9697913246302,3.1261332712557817,1.1304988385292432,B,3280,Incorrect
2,new_learn,78,214,A,49.48111056966862,69.2868745904162,2.474055528483431,1.0883556810172441,A,1759,Correct
2,new_learn,78,215,B,34.38471084733662,18.345123572445562,1.719235542366831,0.2881645272219596,A,685,Incorrect
2,new_learn,78,216,A,31.026927029985288,57.757081367235884,1.5513463514992645,0.9072461125804808,A,733,Correct
2,new_learn,78,217,B,65.68490558591277,44.52751377745906,3.2842452792956385,0.6994365508294185,B,357,Correct
2,new_learn,78,218,A,21.508339295937,50.59960156840303,1.07541696479685,0.7948166828093276,A,784,Correct
2,new_learn,78,219,A,26.752903229805316,44.7435930393361,1.3376451614902658,0.7028307159379484,100,235,Incorrect
2,new_learn,78,220,A,14.283891262276633,33.567808702233336,0.7141945631138316,0.5272819060802189,A,741,Correct
2,new_learn,78,221,B,56.81217581219143,37.67762305810503,2.840608790609571,0.5918387190203408,B,1020,Correct
2,new_learn,78,222,B,45.19307105419122,36.058830186589084,2.259653552709561,0.5664107800561506,B,816,Correct
2,new_learn,78,223,A,42.382296933707615,57.97956005696387,2.1191148466853806,0.9107407996666295,A,5052,Correct
2,new_learn,78,224,A,64.00488608465366,85.70285483007407,3.200244304232683,1.346217295629166,A,1318,Correct
2,new_learn,78,225,B,56.06193954792532,32.747633566617516,2.8030969773962657,0.5143986251766804,100,1375,Correct
2,new_learn,78,226,B,61.74130692247063,34.64219098325562,3.0870653461235316,0.5441582634862521,B,857,Correct
2,new_learn,78,227,B,78.89768130960138,59.055125810803034,3.944884065480069,0.9276357470201988,B,363,Correct
2,new_learn,78,228,B,62.20274209689667,50.86418468341634,3.110137104844833,0.7989727446612763,B,520,Correct
2,new_learn,78,229,B,60.29385568997329,47.20859056361647,3.014692784498665,0.7415508065049297,B,980,Correct
2,new_learn,78,230,A,54.17655848481647,77.14853702506383,2.7088279242408237,1.2118463857657034,A,1754,Correct
2,new_learn,78,231,B,58.39097028400528,39.402765989754855,2.919548514200264,0.618937200822658,B,4308,Correct
2,new_learn,78,232,B,74.6775474513499,42.6770615709587,3.7338773725674947,0.6703697155406156,B,1000,Correct
2,new_learn,78,233,B,33.50202960887549,13.646571212831944,1.6751014804437745,0.21435983934461392,A,562,Incorrect
2,new_learn,78,234,A,35.266698786218484,55.22970967185134,1.763334939310924,0.8675462508249266,A,477,Correct
2,new_learn,78,235,B,54.3894107217566,34.899973051002185,2.71947053608783,0.5482074947375511,B,798,Correct
2,new_learn,78,236,B,79.8741230414538,61.8655200328127,3.99370615207269,0.9717813162279826,B,675,Correct
2,new_learn,78,237,A,54.4065172256424,73.78695221327928,2.72032586128212,1.1590427350200965,B,584,Incorrect
2,new_learn,78,238,A,62.8011540588671,83.52608879487121,3.1400577029433547,1.3120247347052807,A,907,Correct
2,new_learn,78,239,A,62.15732142647822,73.155649542736,3.1078660713239112,1.1491262558602444,100,501,Correct
2,new_learn,78,240,A,15.951421389810069,34.92973756425651,0.7975710694905034,0.5486750346184385,A,668,Correct
2,new_learn,78,241,B,41.85181340548628,30.867292491158516,2.092590670274314,0.4848622966321549,A,516,Incorrect
2,new_learn,78,242,A,38.095042561171276,62.62022407227164,1.904752128058564,0.9836361795579763,A,952,Correct
2,new_learn,78,243,A,49.342788633594786,56.5073775350707,2.467139431679739,0.8876158106890153,B,892,Incorrect
2,new_learn,78,244,A,24.575999730540847,47.3689764408643,1.2287999865270423,0.7440701419734363,A,787,Correct
2,new_learn,78,245,B,50.50621184481798,37.01750382199124,2.525310592240899,0.5814695903069989,B,1289,Correct
2,new_learn,78,246,B,63.22478319933413,51.62357404651287,3.1612391599667062,0.8109012048828678,B,2975,Correct
2,new_learn,78,247,A,41.16272259766813,70.72154727647984,2.0581361298834064,1.1108914668714616,A,1502,Correct
2,new_learn,78,248,A,53.62405600472749,78.93384818910816,2.681202800236375,1.2398899879523708,B,2183,Incorrect
2,new_learn,78,249,B,67.51341503733498,47.30996694542303,3.3756707518667493,0.7431432229865846,B,923,Correct
2,new_learn,78,250,A,48.99187998836133,77.78377372202694,2.4495939994180667,1.221824660468053,A,941,Correct
2,new_learn,78,251,A,30.58328279882947,56.47447672321184,1.5291641399414735,0.8870990059448505,A,799,Correct
2,new_learn,78,252,A,13.939010189675912,34.95599626489254,0.6969505094837956,0.5490875053234933,A,597,Correct
2,new_learn,78,253,A,35.85090695216891,57.281764892246294,1.7925453476084456,0.8997798588506936,A,678,Correct
2,new_learn,78,254,A,46.53340822194457,69.86761341625889,2.3266704110972283,1.097477905161853,B,2400,Incorrect
2,new_learn,78,255,B,73.2597999660533,48.61601894212068,3.6629899983026646,0.7636586397767428,B,792,Correct
2,new_learn,78,256,B,68.69492791717369,48.368756677084015,3.434746395858684,0.7597746531999969,B,651,Correct
2,new_learn,78,257,A,19.228061469354113,39.827109109719615,0.9614030734677057,0.6256027669640714,A,603,Correct
2,new_learn,78,258,A,27.6055328023766,54.564497213213855,1.3802766401188302,0.8570971179592669,A,1062,Correct
2,new_learn,78,259,B,72.56132636630754,58.486465395046864,3.6280663183153767,0.9187032500975644,B,1725,Correct
2,new_learn,78,260,B,40.888669239442336,27.26392424254826,2.0444334619721167,0.4282607205420913,B,1247,Correct
2,new_learn,78,261,B,33.03666701097049,15.376047492050017,1.6518333505485245,0.2415263892113605,B,714,Correct
2,new_learn,78,262,B,67.98811888435957,51.67524150405191,3.3994059442179783,0.8117127954080393,B,714,Correct
2,new_learn,78,263,B,68.32660015371536,54.62131217737419,3.4163300076857683,0.8579895653293674,B,583,Correct
2,new_learn,78,264,B,50.535233410376144,40.09486559309577,2.526761670518807,0.6298086759696992,B,415,Correct
2,new_learn,78,265,A,21.828191101825823,51.85410301837246,1.0914095550912912,0.8145223455050362,A,1083,Correct
2,new_learn,78,266,A,55.180188506187314,68.95319120038866,2.7590094253093658,1.0831141945835667,B,833,Incorrect
2,new_learn,78,267,B,55.838439046410755,28.969450180025902,2.791921952320538,0.4550510593205244,B,11144,Correct
2,new_learn,78,268,B,81.82442578087289,51.4796249531965,4.091221289043644,0.8086400578125995,B,1375,Correct
2,new_learn,78,269,A,28.20074299920247,60.01958216132434,1.4100371499601234,0.9427853919477277,A,410,Correct
2,new_learn,78,270,B,64.66643257135159,39.43690626085872,3.23332162856758,0.6194734749471154,B,643,Correct
2,new_learn,78,271,B,62.771496430910354,52.77905906277023,3.1385748215455176,0.8290515210749039,B,777,Correct
2,new_learn,78,272,A,43.60307631375134,58.043761153817805,2.1801538156875666,0.9117492681377731,A,1392,Correct
2,new_learn,78,273,A,41.93154430026721,59.84960305454375,2.0965772150133604,0.9401153663820994,A,727,Correct
2,new_learn,78,274,A,54.01966389178737,81.86028435559334,2.700983194589368,1.2858583397615175,B,569,Incorrect
2,new_learn,78,275,A,52.91421719805676,76.75550123971831,2.645710859902838,1.2056725940865065,A,1239,Correct
2,new_learn,78,276,A,64.0358974107143,82.03933950260802,3.201794870535715,1.2886709314337612,A,1248,Correct
2,new_learn,78,277,A,40.769917183782084,57.10789603918358,2.038495859189104,0.8970487332933439,A,1137,Correct
2,new_learn,78,278,B,76.86791667973947,51.322165811940856,3.843395833986973,0.8061666954055531,B,767,Correct
2,new_learn,78,279,A,53.29941478529503,71.04475168316694,2.6649707392647515,1.1159683498197417,A,869,Correct
2,new_learn,78,280,A,62.51144943121091,72.68493127141244,3.1255724715605457,1.1417322305447417,A,909,Correct
2,new_learn,78,281,B,44.47431432967221,31.20189461734117,2.2237157164836105,0.4901182145396097,B,1267,Correct
2,new_learn,78,282,A,39.68256371630896,54.38140466576077,1.984128185815448,0.8542211069492388,A,1212,Correct
2,new_learn,78,283,B,51.955176817860334,43.321429580111754,2.5977588408930163,0.6804914245594332,B,1416,Correct
2,new_learn,78,284,A,64.03310235998609,88.0184303019924,3.2016551179993042,1.3825902700862227,A,2359,Correct
2,new_learn,78,285,A,38.93058337827648,49.18473052850217,1.946529168913824,0.7725919404856803,A,1877,Correct
2,new_learn,78,286,A,19.443204978398942,49.15683019304916,0.972160248919947,0.7721536830412208,A,1113,Correct
2,new_learn,78,287,A,58.49033194814193,83.29698144736851,2.924516597407097,1.308425924906291,A,1626,Correct
2,new_learn,78,288,B,73.13793269796318,63.25484909391812,3.6568966348981586,0.9936048460869207,B,1945,Correct
2,new_learn,78,289,B,32.42269087392779,11.42060183233092,1.6211345436963895,0.17939439408012475,A,822,Incorrect
2,new_learn,78,290,B,62.49077947198549,35.41000327676098,3.1245389735992743,0.556219030789314,B,1038,Correct
2,new_learn,78,291,B,81.7162218940745,63.74145291462305,4.0858110947037245,1.0012484010285976,A,1147,Incorrect
2,new_learn,78,292,A,43.8654266324076,69.41111080956888,2.19327133162038,1.0903071789842436,A,2047,Correct
2,new_learn,78,293,A,53.594149708311974,69.98065466965568,2.679707485415599,1.0992535530179726,B,988,Incorrect
2,new_learn,78,294,B,54.822137981768094,34.2184733866835,2.741106899088405,0.5375025230433137,B,840,Correct
2,new_learn,78,295,A,24.66821008108967,56.021389495611714,1.2334105040544834,0.8799819284165308,A,1887,Correct
2,new_learn,78,296,B,47.20669774634088,17.889577954832646,2.3603348873170438,0.2810088333936208,B,6296,Correct
2,new_learn,78,297,B,78.67267763113216,63.83575612619501,3.933633881556608,1.0027297124120194,B,1070,Correct
2,new_learn,78,298,A,57.53966668782533,68.68033316093435,2.8769833343912667,1.078828150522454,B,1033,Incorrect
2,new_learn,78,299,B,45.116631755026326,35.04400985446949,2.255831587751316,0.5504700195556484,A,878,Incorrect
2,new_learn,78,300,A,39.24550016919597,72.07355427187476,1.9622750084597984,1.1321287430931348,A,1753,Incorrect
2,new_learn,78,301,A,19.549943509042084,43.55248772771179,0.9774971754521041,0.684120877454695,A,815,Correct
2,new_learn,78,302,B,50.60375934629378,28.535904207820572,2.530187967314689,0.44824093511415597,B,528,Correct
2,new_learn,78,303,B,67.33270317495399,40.97077753892208,3.3666351587476995,0.6435674686406965,B,894,Incorrect
2,new_learn,78,304,B,37.76630944928017,14.959919836012478,1.8883154724640088,0.2349898712755451,A,883,Incorrect
2,new_learn,78,305,A,53.906828477921806,64.51750620111247,2.69534142389609,1.0134386175467442,A,5301,Correct
2,new_learn,78,306,B,47.10414704682723,30.386785712975083,2.3552073523413615,0.477314513810449,A,1964,Correct
2,new_learn,78,307,B,43.77710724155992,15.860883189131453,2.188855362077996,0.24914217053210608,B,1401,Incorrect
2,new_learn,78,308,A,32.64522376894578,49.23958649953299,1.632261188447289,0.7734536160636599,B,575,Correct
2,new_learn,78,309,A,58.27393806229095,69.18484179077288,2.9136969031145474,1.086752953548321,A,2112,Correct
2,new_learn,78,310,A,40.8268912647856,68.33427022474073,2.04134456323928,1.073392206632326,A,750,Correct
2,new_learn,78,311,B,45.73821851135726,21.79472228844358,2.286910925567863,0.3423506971420204,B,2938,Incorrect
2,new_learn,78,312,A,26.091587478668096,52.751356930581466,1.3045793739334046,0.8286163770000389,A,128,Correct
2,new_learn,78,313,A,14.291547204408431,30.552619414211797,0.7145773602204215,0.4799194234980634,A,609,Correct
2,new_learn,78,314,A,13.970874295193433,40.95097622121678,0.6985437147596716,0.6432564302695247,A,841,Incorrect
2,new_learn,78,315,A,31.292497491835363,55.525021033173815,1.5646248745917684,0.8721849908411881,B,1158,Correct
2,new_learn,78,316,A,28.095189743046703,40.78529715420704,1.4047594871523352,0.6406539495706677,B,1685,Incorrect
2,new_learn,78,317,B,76.86568167383288,58.50785706755274,3.8432840836916444,0.9190392697035266,A,376,Correct
2,new_learn,78,318,B,42.670084828032,20.191610072809038,2.1335042414016003,0.31716906934443273,B,508,Correct
2,new_learn,78,319,B,49.14076304727787,29.925466041331312,2.4570381523638933,0.4700681213534864,107,193,Incorrect
2,new_learn,78,320,B,62.914802167995504,46.04827726973458,3.1457401083997754,0.7233246479053199,B,356,Correct
2,new_learn,78,321,A,60.849093355535324,86.3228950482139,3.042454667776766,1.3559568646003575,A,910,Correct
2,new_learn,78,322,B,69.52325044242883,55.528341741778476,3.4761625221214416,0.8722371524099735,B,615,Correct
2,new_learn,78,323,A,10.721089568833424,32.02703517593983,0.5360544784416712,0.5030794921249722,A,532,Incorrect
2,new_learn,78,324,A,40.67243453537783,66.41776151051154,2.0336217267688914,1.0432877581465099,B,371,Correct
2,new_learn,78,325,B,71.72923774334511,44.327448617718055,3.586461887167255,0.6962939346490102,B,547,Incorrect
2,new_learn,78,326,A,42.8235642668639,73.73095988881909,2.141178213343195,1.1581632096441887,A,635,Incorrect
2,new_learn,78,327,B,70.36490450100446,47.93781542939688,3.5182452250502227,0.7530054439106835,B,2994,Correct
2,new_learn,78,328,B,49.48269443599736,35.28667866999731,2.474134721799868,0.5542818523962361,B,4352,Correct
2,new_learn,78,329,A,52.3839548047118,80.9814292981793,2.61919774023559,1.2720533168018062,A,841,Incorrect
2,new_learn,78,330,B,55.21735423503199,34.05877285595863,2.760867711751599,0.5349939529728155,B,474,Correct
2,new_learn,78,331,A,21.07550690839697,38.485396693930454,1.0537753454198486,0.6045271976207041,B,1497,Correct
2,new_learn,78,332,B,53.802629045031516,45.972061196107525,2.690131452251576,0.7221274486203589,A,348,Incorrect
2,new_learn,78,333,A,46.198421074709316,70.37784590138772,2.3099210537354655,1.105492618296371,A,686,Correct
2,new_learn,78,334,A,67.95269971997921,84.54345839020539,3.3976349859989603,1.3280055389387178,B,1401,Correct
2,new_learn,78,335,B,48.91012525676114,24.713476174097217,2.445506262838057,0.388198375966051,B,523,Correct
2,new_learn,78,336,A,27.29020429075438,57.06793193660727,1.3645102145377193,0.8964209786380388,A,809,Correct
2,new_learn,78,337,B,65.6981585030054,37.88064295625425,3.28490792515027,0.5950277481231314,B,703,Correct
2,new_learn,78,338,A,49.731093935357904,71.3565553904208,2.4865546967678953,1.1208661510000957,B,4811,Incorrect
2,new_learn,78,339,B,84.08413969384662,65.88734334627654,4.204206984692331,1.0349559691060537,A,332,Incorrect
2,new_learn,78,340,B,68.83017377706086,42.863646487609294,3.441508688853043,0.6733005845577165,B,458,Correct
2,new_learn,78,341,B,42.960085713982465,15.53725419898809,2.1480042856991233,0.24405861824249075,A,990,Incorrect
2,new_learn,78,342,A,50.86019146781537,63.35302502014406,2.5430095733907683,0.9951469899298746,B,560,Correct
2,new_learn,78,343,B,54.07061383576807,28.034834398190668,2.7035306917884037,0.44037014894981114,B,434,Incorrect
2,new_learn,78,344,B,62.95533205874541,47.26464241187849,3.1477666029372706,0.7424312668785302,B,1200,Incorrect
2,new_learn,78,345,B,48.10094790525611,24.990088228234114,2.4050473952628058,0.39254338795190524,B,350,Incorrect
2,new_learn,78,346,B,51.191014204494415,30.62848426202607,2.559550710224721,0.4811111057408585,A,9,Correct
2,new_learn,78,347,A,35.26630598920892,45.84929368247432,1.7633152994604457,0.7201990210257111,A,380,Incorrect
2,new_learn,78,348,A,33.065898251960476,51.49254320536153,1.6532949125980239,0.8088429772430941,A,5070,Correct
2,new_learn,78,349,A,47.37450081936014,58.108096855221284,2.368725040968007,0.9127598509722368,B,327,Correct
2,new_learn,78,350,B,61.822706095504614,53.66576026377145,3.0911353047752304,0.8429797909698773,A,399,Correct
2,new_learn,78,351,B,38.68242901852127,23.655163389532973,1.9341214509260636,0.37157443762011505,B,535,Correct
2,new_learn,78,352,B,75.55209749662401,44.6179171795977,3.7776048748312006,0.7008566041495098,B,51,Incorrect
2,new_learn,78,353,B,78.62413288797791,55.49296867804998,3.9312066443988956,0.8716815136242515,A,2244,Incorrect
2,new_learn,78,354,A,39.561192259160244,50.71670307789466,1.9780596129580121,0.7966561090190436,A,200,Incorrect
2,new_learn,78,355,B,75.43240727778941,56.30600940519282,3.7716203638894705,0.8844527275015578,B,228,Correct
2,new_learn,78,356,A,57.271917293834164,71.44818951308447,2.8635958646917086,1.1223055364329875,B,2458,Incorrect
2,new_learn,78,357,A,27.562242634227882,39.875947647499615,1.378112131711394,0.6263699209215801,A,528,Incorrect
2,new_learn,78,358,B,69.25926214861569,40.266336598679,3.4629631074307845,0.6325021362269188,B,642,Incorrect
2,new_learn,78,359,B,69.27427386943918,45.94324972273151,3.4637136934719592,0.7216748790548728,A,1259,Incorrect
2,new_learn,78,360,A,27.074857233742577,42.094838226450214,1.353742861687129,0.6612241726313339,B,366,Correct
2,new_learn,78,361,B,42.565050857752844,15.794196062192029,2.128252542887642,0.24809465159169658,B,594,Correct
2,new_learn,78,362,B,52.7656797617587,26.688590410514607,2.638283988087935,0.4192233978416985,B,552,Correct
2,new_learn,78,363,B,41.538420021049845,21.388510012659395,2.076921001052492,0.33596992963501243,A,3152,Correct
2,new_learn,78,364,A,47.08288128815046,59.7578609616214,2.354144064407523,0.9386742849563502,B,376,Incorrect
2,new_learn,78,365,A,23.867153299239842,49.26883873627646,1.1933576649619921,0.7739131091239316,A,322,Correct
2,new_learn,78,366,B,72.10141029445549,61.870893860820274,3.6050705147227746,0.971865728120934,B,974,Correct
2,new_learn,78,367,B,65.07697959175083,54.46630054173289,3.2538489795875414,0.8555546482506092,B,1305,Incorrect
2,new_learn,78,368,A,47.97859029722787,57.056264889359774,2.3989295148613934,0.8962377130884297,A,3419,Correct
2,new_learn,78,369,A,54.22255794539027,71.75870523354017,2.7111278972695136,1.127183105964026,B,3405,Incorrect
2,new_learn,78,370,A,24.701672167060153,45.157074741540356,1.2350836083530077,0.709325671328142,A,2102,Correct
2,new_learn,78,371,A,53.15438857254996,61.59347706615857,2.657719428627498,0.9675080753004758,A,861,Incorrect
2,new_learn,78,372,A,16.742375828786425,31.490289150180093,0.8371187914393212,0.49464830526812076,B,977,Incorrect
2,new_learn,78,373,A,13.6248572431487,33.20612248467543,0.6812428621574349,0.521600552260296,B,1361,Correct
2,new_learn,78,374,B,64.12593801325215,54.89646051222937,3.2062969006626076,0.8623115852665098,A,881,Incorrect
2,new_learn,78,375,A,35.52481031606711,50.278109059050394,1.7762405158033556,0.7897666902814958,B,602,Incorrect
2,new_learn,78,376,B,39.88495677198331,23.22736950127605,1.9942478385991655,0.3648546669371224,A,373,Incorrect
2,new_learn,78,377,B,45.83908285649152,21.94098945972797,2.291954142824576,0.3446482564958624,A,225,Incorrect
2,new_learn,78,378,B,64.1366175612805,46.466985171717155,3.206830878064025,0.7299016962496623,B,520,Incorrect
2,new_learn,78,379,B,71.04855743650556,41.520325794775715,3.5524278718252784,0.652199752457611,B,650,Correct
2,new_learn,78,380,A,22.55920140694808,39.597612829818104,1.127960070347404,0.6219978478292474,A,586,Correct
2,new_learn,78,381,B,36.7999906073501,21.82396724227303,1.8399995303675047,0.3428100758025463,B,562,Incorrect
2,new_learn,78,382,B,66.87391124709904,57.230229843524306,3.3436955623549522,0.8989703481983565,A,312,Incorrect
2,new_learn,78,383,B,52.52255821220034,28.59987053049621,2.626127910610017,0.4492457157611306,A,290,Incorrect
2,new_learn,78,384,A,20.995650996096693,38.0510051126932,1.0497825498048345,0.597703790618723,A,295,Correct
2,new_learn,78,385,A,43.095845494075135,74.95650702597325,2.154792274703757,1.1774140590577467,A,235,Correct
2,new_learn,78,386,B,58.41648407888404,38.11308791863898,2.9208242039442016,0.5986789850540906,A,228,Correct
2,new_learn,78,387,A,23.046202792527875,40.45959986272395,1.1523101396263937,0.6355379084795808,A,333,Correct
2,new_learn,78,388,B,39.96064047225185,30.74513987278628,1.9980320236125926,0.48294352778967997,A,116,Correct
2,new_learn,78,389,B,64.52461644858256,48.36029866645045,3.226230822429128,0.759641795079645,A,285,Correct
2,new_learn,78,390,B,62.02949541813428,54.35766110191537,3.101474770906714,0.8538481439205049,A,408,Incorrect
2,new_learn,78,391,B,69.9186988925224,61.205088891754215,3.49593494462612,0.9614072881232265,B,408,Incorrect
2,new_learn,78,392,A,56.329808186515464,68.8109603990422,2.8164904093257737,1.0808800383804458,B,468,Correct
2,new_learn,78,393,A,19.731324048468274,41.57236513155806,0.9865662024234138,0.6530171844482763,B,267,Incorrect
2,new_learn,78,394,B,38.71815282544089,25.94185192998316,1.9359076412720444,0.4074936572187464,A,289,Incorrect
2,new_learn,78,395,B,61.305844447766965,43.18103647771611,3.0652922223883485,0.6782861348639292,B,214,Correct
2,new_learn,78,396,A,52.87085712353872,74.83823107151838,2.643542856176936,1.1755561847096878,B,453,Incorrect
2,new_learn,78,397,B,61.97674755382887,50.12206338095862,3.098837377691444,0.787315530501908,A,440,Incorrect
2,new_learn,78,398,A,33.257356399863205,60.159496022307536,1.6628678199931601,0.9449831537367287,B,1230,Incorrect
2,new_learn,78,399,B,56.1489638254931,36.06531411446517,2.8074481912746547,0.5665126293570603,B,289,Correct
2,new_learn,78,400,B,55.218775440917156,31.7377306843171,2.760938772045858,0.4985351077973098,B,395,Incorrect
2,new_learn,78,401,B,74.05848582410503,60.716683821556195,3.702924291205252,0.9537354392206759,A,122,Incorrect
2,new_learn,78,402,B,78.22611586262818,47.97571254519426,3.9113057931314086,0.7536007304135899,A,1858,Incorrect
2,new_learn,78,403,A,65.00661727094541,82.42971133127992,3.2503308635472705,1.2948028777793814,B,1534,Incorrect
2,new_learn,78,404,B,82.66074423167237,64.1191392483893,4.133037211583618,1.007181084086204,A,4856,Incorrect
2,new_learn,78,405,A,19.29471622006593,45.12769104923051,0.9647358110032965,0.7088641133686622,B,320,Correct
2,new_learn,78,406,B,66.9212928156258,50.740358458972096,3.3460646407812904,0.7970276868760973,B,432,Incorrect
2,new_learn,78,407,B,30.81483880852544,12.4213688052761,1.5407419404262719,0.1951144049309241,A,364,Incorrect
2,new_learn,78,408,B,60.72814274169031,31.28068993227643,3.036407137084516,0.4913559284522992,A,547,Incorrect
2,new_learn,78,409,A,54.636100104431414,83.52305522062761,2.7318050052215703,1.3119770834324915,A,487,Correct
2,new_learn,78,410,A,57.70864739600671,68.35432705986423,2.8854323698003355,1.0737072586617173,A,444,Incorrect
2,new_learn,78,411,A,27.506266832231656,59.24994962716766,1.3753133416115828,0.9306960323713762,B,334,Correct
2,new_learn,78,412,B,49.206788361803135,33.77455164246524,2.460339418090157,0.5305294165912895,B,494,Correct
2,new_learn,78,413,A,45.55816087147389,65.78666718666054,2.2779080435736945,1.0333745516888473,B,384,Correct
2,new_learn,78,414,A,33.08829233242299,62.44886331973467,1.6544146166211493,0.9809444511515578,B,426,Incorrect
2,new_learn,78,415,A,52.08461843139813,78.67106556816188,2.604230921569906,1.2357622081950912,A,44,Correct
2,new_learn,78,416,B,47.234825815680196,29.788222689515433,2.36174129078401,0.46791230782439236,A,90,Incorrect
2,new_learn,78,417,B,56.3836340532073,25.013450609625597,2.819181702660365,0.3929103633806546,B,42,Correct
2,new_learn,78,418,A,53.134378066473346,75.7838390420194,2.656718903323667,1.1904097599761974,B,320,Correct
2,new_learn,78,419,A,63.181454543242396,72.82897299321671,3.15907272716212,1.1439948326198952,B,300,Incorrect
2,new_learn,78,420,A,63.442312720734456,80.37172707152885,3.172115636036723,1.2624761366211945,B,488,Incorrect
2,new_learn,78,421,A,38.29844292904017,71.04017266847495,1.9149221464520085,1.1158964228251567,100,151,Incorrect
2,new_learn,78,422,A,55.6756575548871,82.64705310452311,2.7837828777443554,1.2982168743700766,107,228,Incorrect
2,new_learn,78,423,B,44.5970517223018,15.546522710847409,2.22985258611509,0.24420420768632548,B,346,Correct
2,new_learn,78,424,B,59.02646990101815,31.981792814016913,2.9513234950509077,0.5023688267657319,B,135,Correct
2,new_learn,78,425,B,89.96815667715273,66.37754044250443,4.4984078338576365,1.0426559670876565,B,401,Incorrect
2,new_learn,78,426,B,77.53846942467672,65.27604844521682,3.8769234712338356,1.025353771254323,100,305,Incorrect
2,new_learn,78,427,B,36.88990021324009,13.282250959897702,1.8444950106620044,0.20863711019375297,100,467,Correct
2,new_learn,78,428,B,69.35010194782424,36.45708788355772,3.467505097391212,0.5726665973313119,100,752,Correct
2,new_learn,78,429,B,56.782450859329224,42.471883406231626,2.839122542966461,0.6671467844656976,A,276,Correct
2,new_learn,78,430,A,61.08223229512433,71.94881891715323,3.054111614756216,1.1301694047229547,100,480,Correct
2,new_learn,78,431,B,67.54158446832598,41.43673139103076,3.377079223416299,0.650886654634179,100,479,Incorrect
2,new_learn,78,432,B,36.08509586170034,24.117036490107814,1.8042547930850168,0.37882952331839836,B,115,Correct
2,new_learn,78,433,A,54.634163449307025,64.27857353703611,2.7317081724653516,1.0096854720359196,B,731,Incorrect
2,new_learn,78,434,B,74.7942157870178,42.37175491217968,3.7397107893508905,0.6655739697590546,A,216,Incorrect
2,new_learn,78,435,A,57.2849669437678,79.95183649075335,2.86424834718839,1.2558805108018154,100,340,Incorrect
2,new_learn,78,436,B,48.914169058001164,20.631896374732708,2.445708452900058,0.3240850704024308,B,479,Incorrect
2,new_learn,78,437,B,79.4686127632829,52.73624974764738,3.9734306381641455,0.8283790739254278,100,721,Incorrect
2,new_learn,78,438,B,39.84288273050059,29.562516897594634,1.9921441365250296,0.46436692953553715,100,139,Correct
2,new_learn,78,439,A,57.10799554141009,68.26744542397388,2.8553997770705046,1.0723425251164924,107,250,Incorrect
2,new_learn,78,440,A,37.26322428546318,62.29461199295389,1.8631612142731593,0.9785214769764529,100,2880,Incorrect
2,new_learn,78,441,B,78.15337100364579,66.41234694139648,3.9076685501822896,1.0432027062937388,B,324,Correct
2,new_learn,78,442,A,12.701809983588198,32.25202994914505,0.63509049917941,0.5066137017579604,B,83,Incorrect
2,new_learn,78,443,B,72.38514896779745,44.306633981051924,3.6192574483898725,0.695966979100823,A,156,Correct
2,new_learn,78,444,B,54.9197191377268,23.65321286241125,2.74598595688634,0.371543798811734,A,372,Incorrect
2,new_learn,78,445,A,26.335559952813426,51.64109475248389,1.3167779976406713,0.8111764194886889,B,401,Incorrect
2,new_learn,78,446,A,54.43605693203938,74.1523729441615,2.721802846601969,1.1647827504381416,A,378,Correct
2,new_learn,78,447,A,50.61515746893447,75.13978664725414,2.5307578734467233,1.1802930086165904,B,20,Incorrect
2,new_learn,78,448,A,19.153980909703833,38.04403482380346,0.9576990454851917,0.597594301576876,B,473,Incorrect
2,new_learn,78,449,A,36.558925113170865,58.845256807252525,1.827946255658543,0.9243391324213466,A,309,Correct
2,new_learn,78,450,B,69.30694002183331,49.53973286650807,3.465347001091666,0.7781683041711128,A,558,Correct
2,new_learn,78,451,B,68.69703040755064,45.55445612930922,3.4348515203775323,0.7155677235705821,A,873,Incorrect
2,new_learn,78,452,A,46.667713187986415,64.12428016085686,2.3333856593993207,1.007261837350408,B,617,Incorrect
2,new_learn,78,453,B,74.61967698428498,49.22852079544627,3.730983849214249,0.7732797963903318,100,131,Incorrect
2,new_learn,78,454,A,36.98157986154871,64.82846612236825,1.8490789930774354,1.0183231645676343,A,2318,Incorrect
2,new_learn,78,455,B,81.86748495549467,67.93844804150478,4.093374247774734,1.0671746463174163,B,436,Incorrect
2,new_learn,78,456,B,60.71425181989139,31.124102140570415,3.0357125909945695,0.48889625317197183,100,590,Correct
2,new_learn,78,457,B,84.89712051660123,57.725187309878876,4.244856025830062,0.9067451218990511,107,322,Correct
2,new_learn,78,458,B,59.65634960089126,43.52176747925464,2.982817480044563,0.6836383249203478,B,81,Correct
2,new_learn,78,459,A,62.409125020254635,86.03461815957057,3.120456251012732,1.3514286218225495,A,466,Correct
2,new_learn,78,460,A,47.763638181228856,55.269200819607725,2.388181909061443,0.868166576323293,B,471,Incorrect
2,new_learn,78,461,B,80.3155831752486,48.759164332997685,4.01577915876243,0.7659071623186151,B,20,Correct
2,new_learn,78,462,B,78.7200173312465,52.27044864847829,3.9360008665623245,0.8210622873695098,B,218,Correct
2,new_learn,78,463,A,21.424651569582174,34.60354917140512,1.0712325784791088,0.5435512793250975,B,697,Incorrect
2,new_learn,78,464,B,62.18024248812685,33.923439867236496,3.1090121244063424,0.5328681473570265,B,306,Correct
2,new_learn,78,465,B,63.624803019212415,38.495524719497425,3.1812401509606207,0.6046862882742869,B,356,Correct
2,new_learn,78,466,B,74.81558818460192,55.864314827108956,3.740779409230096,0.8775146052933643,B,1222,Incorrect
2,new_learn,78,467,B,72.56349788731711,43.6162263756941,3.6281748943658556,0.6851220817959497,A,1706,Incorrect
2,new_learn,78,468,B,75.74360079759892,52.25402081105415,3.787180039879946,0.8208042395026794,A,304,Incorrect
2,new_learn,78,469,A,18.43149690495642,40.00414297656511,0.921574845247821,0.6283836084416634,B,1198,Incorrect
2,new_learn,78,470,A,46.39076052994707,55.106106095839266,2.3195380264973537,0.8656046903931418,B,1335,Incorrect
2,new_learn,78,471,A,69.9340975807759,87.04515169343458,3.4967048790387945,1.3673020454535159,A,669,Correct
2,new_learn,78,472,B,65.5819676659344,36.67639535353933,3.2790983832967195,0.5761114710141698,A,233,Correct
2,new_learn,78,473,A,29.161961157739952,44.486455530865236,1.4580980578869975,0.6987916094000762,107,103,Incorrect
2,new_learn,78,474,B,46.10596757088974,18.21688364192948,2.305298378544487,0.28615013910392867,107,2150,Incorrect
2,new_learn,78,475,A,21.931144102133313,53.451603046728735,1.0965572051066657,0.8396158172710041,B,170,Incorrect
2,new_learn,78,476,B,55.29973074841065,30.721368251241408,2.7649865374205325,0.4825701240316336,107,980,Correct
2,new_learn,78,477,B,69.3395501508785,44.32033061733924,3.4669775075439246,0.6961821253605186,B,1767,Incorrect
2,new_learn,78,478,B,76.64870705034475,47.95178603485252,3.8324353525172374,0.7532248936680115,A,278,Correct
2,new_learn,78,479,B,55.577570442431195,32.865838255404896,2.7788785221215595,0.516255380086252,A,1176,Incorrect
2,new_learn,78,480,A,19.384095527842113,34.16011502425378,0.9692047763921056,0.53658583202989,A,7321,Incorrect
2,new_learn,78,481,B,58.123830038025815,43.23107837394648,2.9061915019012905,0.6790721911317743,B,878,Correct
2,new_learn,78,482,A,49.161131207377124,59.97202103776532,2.4580565603688562,0.9420383035658803,A,316,Correct
2,new_learn,78,483,B,82.28517363091791,57.166914191047304,4.114258681545896,0.8979757882549614,B,1423,Incorrect
2,new_learn,78,484,B,42.92282432517407,34.36065761847324,2.1461412162587035,0.5397359477335485,A,1775,Incorrect
2,new_learn,78,485,A,24.9942288213865,43.792916531636784,1.249711441069325,0.6878975242753056,A,3036,Correct
2,new_learn,78,486,A,29.840045388959346,39.21645704709128,1.4920022694479673,0.6160106667948082,A,732,Incorrect
2,new_learn,78,487,B,76.72977778699727,57.14574823874979,3.8364888893498637,0.897643314253741,B,724,Correct
2,new_learn,78,488,B,83.65426556734494,58.02192621145564,4.182713278367247,0.9114062856651904,B,1116,Incorrect
2,new_learn,78,489,B,38.98721724003276,24.39469263234506,1.949360862001638,0.38319093580178154,A,2155,Incorrect
2,new_learn,78,490,B,59.6078381148062,29.136757194164208,2.9803919057403103,0.4576791117530791,B,883,Correct
2,new_learn,78,491,B,78.65417484441755,47.8005967890801,3.9327087422208775,0.7508500185489096,B,863,Correct
2,new_learn,78,492,A,20.326632797425972,45.26307222303923,1.0163316398712987,0.7109906758740214,A,885,Correct
2,new_learn,78,493,A,61.69537228025305,78.66860422091109,3.084768614012653,1.2357235454428865,B,741,Correct
2,new_learn,78,494,A,39.21359695168495,59.730951927514205,1.9606798475842475,0.9382515988370186,A,2154,Correct
2,new_learn,78,495,A,13.872386665548966,36.65533481402178,0.6936193332774482,0.575780652833025,A,1317,Correct
2,new_learn,78,496,A,31.37618757198512,63.16610863374721,1.568809378599256,0.9922109141981753,B,436,Incorrect
2,new_learn,78,497,B,38.22615869955694,22.1391019473659,1.911307934977847,0.347760200174601,A,603,Correct
2,new_learn,78,498,B,76.50041878960985,61.49534098508191,3.825020939480493,0.9659665573436631,B,3256,Correct
2,new_learn,78,499,A,19.937482635465987,49.77852308175581,0.9968741317732993,0.7819192121009698,A,2551,Incorrect
2,new_learn,78,500,A,56.32275154993177,66.37196011630485,2.8161375774965887,1.0425683115286903,59,2419,Incorrect
2,new_learn,78,501,A,21.06162364080383,48.699177322481276,1.0530811820401915,0.7649648885608692,A,1100,Correct
2,new_learn,78,502,A,29.52607955569716,57.35520912517354,1.476303977784858,0.9009335181637573,A,7260,Correct
2,new_learn,78,503,B,65.06277889294955,54.97865808278259,3.2531389446474774,0.8636027416854745,B,2115,Correct
2,new_learn,78,504,B,45.29204460572018,22.46234821245476,2.264602230286009,0.35283774063311846,A,2849,Incorrect
2,new_learn,78,505,B,59.11936311503693,33.55350412431706,2.955968155751847,0.5270572102957465,B,2409,Incorrect
2,new_learn,78,506,A,21.421647636682987,52.06817276794867,1.0710823818341495,0.8178849452681584,A,1059,Correct
2,new_learn,78,507,B,73.50188688236172,46.76348957434624,3.6750943441180857,0.7345591765149451,B,2375,Incorrect
2,new_learn,78,508,A,61.285242782791684,77.97848644908625,3.064262139139584,1.224883200832503,A,1241,Correct
2,new_learn,78,509,B,52.899736333690726,28.954346645817004,2.6449868166845363,0.45481381355995487,B,1378,Correct
2,new_learn,78,510,B,67.64986283248764,45.14171618109057,3.382493141624382,0.7090844196247481,B,1692,Incorrect
2,new_learn,78,511,A,37.270083918454546,54.50250206627578,1.8635041959227272,0.8561233004683726,A,1225,Correct
2,new_learn,78,512,B,37.933207555847964,13.443150158747727,1.896660377792398,0.2111645088991316,A,1594,Correct
2,new_learn,78,513,A,68.50175196443304,86.17829704255769,3.4250875982216518,1.353685524438891,B,1075,Incorrect
2,new_learn,78,514,B,32.45777354592374,20.282511302637534,1.6228886772961872,0.3185969425235901,A,621,Correct
2,new_learn,78,515,A,28.136624233546044,59.05964174712039,1.4068312116773023,0.9277066831819922,A,5327,Incorrect
2,new_learn,78,516,B,39.56995543507162,14.783688679997152,1.978497771753581,0.23222163875018817,B,884,Correct
2,new_learn,78,517,B,68.04820057605585,46.90340633161807,3.4024100288027923,0.7367569837987417,B,1714,Incorrect
2,new_learn,78,518,A,35.4419392485928,55.69025585873061,1.77209696242964,0.87478049341162,A,981,Correct
2,new_learn,78,519,A,10.384653092658244,33.798249774272406,0.5192326546329121,0.5309016659752354,A,873,Correct
2,new_learn,78,520,A,27.369190593871018,46.03216505797504,1.368459529693551,0.7230715578748358,A,653,Correct
2,new_learn,78,521,B,48.92771785973548,22.933944573714836,2.446385892986774,0.3602455589530901,B,789,Correct
2,new_learn,78,522,A,58.332964779938706,73.88789999906547,2.9166482389969355,1.1606284191312068,B,1033,Incorrect
2,new_learn,78,523,B,69.91066087245645,55.18993128611743,3.4955330436228222,0.86692141340296,B,780,Correct
2,new_learn,78,524,B,37.590190485079496,16.7341121477617,1.8795095242539748,0.2628588189387794,A,791,Incorrect
2,new_learn,78,525,A,42.43203004478773,73.80940105400818,2.1216015022393866,1.1593953605856744,B,836,Correct
2,new_learn,78,526,B,81.94159720147609,65.7094850733035,4.097079860073804,1.0321621778872923,B,1803,Correct
2,new_learn,78,527,A,28.599876457502077,61.76991138166534,1.429993822875104,0.9702794990476619,A,1015,Incorrect
2,new_learn,78,528,B,46.78994418826485,32.777105541027936,2.3394972094132425,0.5148615698681533,B,900,Correct
2,new_learn,78,529,A,64.25240127306748,75.96261041627594,3.2126200636533735,1.1932178941563798,B,758,Correct
2,new_learn,78,530,A,31.949714546969204,41.12490998456705,1.5974857273484602,0.6459885754352868,A,814,Correct
2,new_learn,78,531,A,51.57802143253016,63.155878578053105,2.578901071626508,0.9920502208591031,B,750,Incorrect
2,new_learn,78,532,A,61.773854445580646,74.76055636636909,3.0886927222790326,1.174336073294354,B,805,Incorrect
2,new_learn,78,533,A,35.59663912689011,62.4809797683792,1.7798319563445058,0.9814489351471628,A,587,Correct
2,new_learn,78,534,B,70.02576076666031,41.69508793111737,3.5012880383330156,0.6549449096758939,B,629,Correct
2,new_learn,78,535,B,35.977211672870965,15.778147400833621,1.7988605836435483,0.24784255980857897,A,325,Incorrect
2,new_learn,78,536,A,39.875424231306525,59.24886735866593,1.993771211565326,0.9306790321375048,B,217,Incorrect
2,new_learn,78,537,B,63.35491313122155,31.008646283837603,3.1677456565610775,0.4870826768153433,A,806,Incorrect
2,new_learn,78,538,A,41.34908209270252,65.60273787756981,2.067454104635126,1.030485396857751,B,292,Correct
2,new_learn,78,539,A,46.75692365706481,71.7023071525437,2.3378461828532404,1.1262972069793507,B,423,Incorrect
2,new_learn,78,540,A,34.16321373686773,52.27174038329327,1.7081606868433865,0.8210825778925352,A,617,Incorrect
2,new_learn,78,541,B,67.24623837113178,45.45338011430567,3.362311918556589,0.7139800252396356,B,680,Correct
2,new_learn,78,542,B,87.96193267041731,62.87870861212831,4.398096633520866,0.9876964452153778,B,630,Correct
2,new_learn,78,543,A,43.78063328144326,73.9274779807778,2.189031664072163,1.1612501086141636,B,590,Incorrect
2,new_learn,78,544,A,30.835936639484977,60.890825597163044,1.5417968319742488,0.9564708518353238,A,451,Incorrect
2,new_learn,78,545,B,45.93080472807977,34.5888033404917,2.2965402364039886,0.5433196523547541,A,299,Incorrect
2,new_learn,78,546,B,80.9100911516398,54.651446860669,4.04550455758199,0.8584629198276534,B,489,Incorrect
2,new_learn,78,547,B,58.18970386486269,31.246071703782412,2.9094851932431345,0.4908121465907137,A,1038,Incorrect
2,new_learn,78,548,A,43.72555324288905,51.17642429547836,2.1862776621444526,0.8038773930183449,A,1222,Incorrect
2,new_learn,78,549,A,11.525964574423682,34.21241798682897,0.5762982287211841,0.5374074050448259,A,903,Incorrect
2,new_learn,78,550,B,64.4630878134868,37.73783735428486,3.22315439067434,0.592784562972939,B,595,Correct
2,new_learn,78,551,A,41.759972067009855,59.65052698129224,2.087998603350493,0.9369882867359371,B,417,Incorrect
2,new_learn,78,552,A,33.24267756977417,42.466649977848974,1.6621338784887087,0.6670645779648975,A,275,Incorrect
2,new_learn,78,553,B,69.44247622221745,55.356156867908126,3.4721238111108725,0.8695324787359217,B,480,Correct
2,new_learn,78,554,B,75.29291767771942,63.90811692003004,3.7646458838859704,1.0038663531036196,B,395,Correct
2,new_learn,78,555,A,55.6434194233449,78.71743465396344,2.782170971167245,1.2364905720916306,B,511,Incorrect
2,new_learn,78,556,A,38.48591794099827,60.64081004360576,1.9242958970499133,0.95254361670363,A,327,Incorrect
2,new_learn,78,557,B,49.93820274267222,28.241240365797516,2.496910137133611,0.443612366307265,A,398,Incorrect
2,new_learn,78,558,A,60.021009247892735,86.58794499633086,3.0010504623946366,1.3601202594495505,B,458,Incorrect
2,new_learn,78,559,B,53.28672283504099,25.91175504124749,2.6643361417520497,0.407020896396007,A,270,Correct
2,new_learn,78,560,B,43.38698699784125,16.513191327987602,2.1693493498920624,0.25938860281664267,A,992,Correct
2,new_learn,78,561,B,56.587663308554546,43.779666512357366,2.829383165427727,0.6876893934591648,B,939,Incorrect
2,new_learn,78,562,B,73.05592849012211,59.01777767324493,3.6527964245061058,0.9270490838473099,B,688,Correct
2,new_learn,78,563,B,64.93938534134546,49.76095093493358,3.2469692670672727,0.7816431894641472,B,560,Correct
2,new_learn,78,564,A,31.57909342425171,58.11102205874483,1.5789546712125855,0.9128057999617359,B,628,Incorrect
2,new_learn,78,565,B,49.5701756193874,33.70742544919074,2.4785087809693698,0.5294750008130163,B,492,Correct
2,new_learn,78,566,A,49.103950253207714,69.57129340828045,2.4551975126603853,1.0928233213609695,B,562,Correct
2,new_learn,78,567,A,69.43435121735548,88.465080308053,3.471717560867774,1.3896062319750522,B,608,Correct
2,new_learn,78,568,A,15.636540305026568,40.76025827191137,0.7818270152513285,0.6402606397272967,A,542,Incorrect
2,new_learn,78,569,B,64.42810345141663,44.427937172660634,3.2214051725708317,0.6978724051788977,B,784,Correct
2,new_learn,78,570,A,37.624084898555566,56.4188363325539,1.8812042449277784,0.8862250087321811,A,919,Correct
2,new_learn,78,571,B,67.66681464369557,53.24543834351962,3.383340732184779,0.8363773896858477,B,766,Correct
2,new_learn,78,572,A,29.89468798312018,58.02803040531143,1.494734399156009,0.9115021701180578,A,795,Correct
2,new_learn,78,573,A,35.337798695749214,57.803265961300994,1.7668899347874605,0.9079715784876009,B,419,Correct
2,new_learn,78,574,B,65.93203420648291,53.64104440414319,3.2966017103241456,0.8425915551547005,A,431,Incorrect
2,new_learn,78,575,B,31.690770836220956,12.060310426261061,1.5845385418110478,0.18944291317577067,B,69,Incorrect
2,new_learn,78,576,B,31.636999105521763,13.933005210900145,1.581849955276088,0.218859134064961,B,467,Correct
2,new_learn,78,577,B,37.95900837231999,25.863215166800366,1.8979504186159997,0.40625843383116067,B,300,Incorrect
2,new_learn,78,578,B,68.50662499103147,42.36137285184697,3.4253312495515735,0.6654108887367028,A,201,Incorrect
2,new_learn,78,579,A,19.072574629038208,48.11253298521805,0.9536287314519103,0.7557499008597881,A,345,Correct
2,new_learn,78,580,B,45.194745461413504,24.350205381171953,2.2597372730706753,0.3824921316944623,B,1200,Incorrect
2,new_learn,78,581,A,67.36803899101247,88.53164140849074,3.368401949550623,1.3906517712958022,B,1155,Correct
2,new_learn,78,582,A,32.224964596720405,43.37170484100315,1.6112482298360202,0.6812811465108018,A,722,Correct
2,new_learn,78,583,B,63.87478725377329,50.53640492846731,3.1937393626886648,0.7938239923105597,B,316,Correct
2,new_learn,78,584,A,35.128351537015035,43.021710272798146,1.7564175768507517,0.675783444689456,A,245,Correct
2,new_learn,78,585,A,57.478922813039574,72.34484474674737,2.8739461406519786,1.1363901639073783,A,194,Incorrect
2,new_learn,78,586,A,41.796739370310824,53.3127778996858,2.089836968515541,0.8374351569605859,B,244,Incorrect
2,new_learn,78,587,B,45.90862096952057,25.373433351883694,2.2954310484760283,0.3985649590731403,A,308,Correct
2,new_learn,78,588,A,54.56977663604389,83.61177118112275,2.7284888318021943,1.3133706304812303,B,32,Correct
2,new_learn,78,589,A,45.17547150607378,55.97925951477055,2.258773575303689,0.8793201522249984,B,17,Incorrect
2,new_learn,78,590,B,47.77645609105781,34.5076714761481,2.3888228045528903,0.5420452360097846,A,48,Incorrect
2,new_learn,78,591,B,61.57876233463625,44.578984751255945,3.078938116731813,0.7002450549951854,B,43,Incorrect
2,new_learn,78,592,A,30.50049481755699,62.87840679433412,1.5250247408778494,0.9876917042725529,B,391,Incorrect
2,new_learn,78,593,B,38.64697756455543,12.721677648461636,1.9323488782277713,0.1998316452087227,B,266,Correct
2,new_learn,78,594,A,33.97748501607319,63.3345495325815,1.6988742508036594,0.9948567776498844,B,392,Incorrect
2,new_learn,78,595,B,39.93664330387014,25.31396830476892,1.996832165193507,0.3976308842973345,A,497,Incorrect
2,new_learn,78,596,B,55.56333183283696,43.59268293894489,2.7781665916418476,0.6847522623562919,B,298,Correct
2,new_learn,78,597,A,43.813520455801,56.45600726695427,2.1906760227900497,0.8868088884043777,A,113,Correct
2,new_learn,78,598,A,42.760192109892955,49.89401477150105,2.1380096054946476,0.7837333513212416,107,138,Correct
2,new_learn,78,599,B,31.008303900740305,14.103188715424888,1.5504151950370153,0.22153237030284648,B,208,Incorrect
2,new_learn,78,600,A,38.2810805261639,71.94683891265463,1.9140540263081949,1.13013830288502,A,180,Correct
2,new_learn,78,601,B,31.98520792155464,46.546849798547,1.5992603960777318,0.731156206874314,A,3139,Incorrect
2,new_learn,78,602,B,43.3378311833285,38.925336850581616,2.166891559166425,0.6114377614414763,B,3258,Correct
2,new_learn,78,603,B,44.32033061733924,30.660449849121505,2.2160165308669617,0.48161322000879203,B,752,Correct
2,new_learn,78,604,B,47.28783828821396,27.44418649405833,2.3643919144106977,0.4310922733674094,B,866,Correct
2,new_learn,78,605,B,11.55671885644567,62.170514806708844,0.5778359428222835,0.9765721629332599,A,1430,Incorrect
2,new_learn,78,606,A,57.71221887691102,72.67296119836563,2.885610943845551,1.1415442050770077,B,347,Incorrect
2,new_learn,78,607,B,50.53640492846731,36.12521274622671,2.5268202464233656,0.5674535148645709,B,679,Correct
2,new_learn,78,608,A,63.62575307854148,55.71006816173374,3.181287653927074,0.8750917043394467,B,723,Incorrect
2,new_learn,78,609,A,54.28708451386182,74.77128307826301,2.714354225693091,1.1745045680907693,A,1286,Correct
2,new_learn,78,610,B,24.350205381171953,54.805254538586496,1.2175102690585975,0.86087892518271,B,456,Correct
2,new_learn,78,611,B,21.68045356658919,53.80279381361416,1.0840226783294595,0.8451323089372832,B,481,Correct
2,new_learn,78,612,B,54.275273356477435,30.115869674638148,2.7137636678238715,0.4730589746315542,B,506,Correct
2,new_learn,78,613,A,87.40848200438633,39.08025530177334,4.370424100219316,0.6138712147823234,B,598,Incorrect
2,new_learn,78,614,A,88.0184303019924,35.96689764001391,4.40092151509962,0.5649667069914189,A,713,Correct
2,new_learn,78,615,A,56.87775518342325,72.17595096665592,2.843887759171162,1.1337371866135169,A,820,Correct
2,new_learn,78,616,A,50.71670307789466,60.438807740839756,2.535835153894733,0.9493705719517405,B,1023,Incorrect
2,new_learn,78,617,A,45.70526734197746,70.0289756174279,2.2852633670988727,1.1000125766906512,A,804,Correct
2,new_learn,78,618,A,85.52071272424593,39.74962037363762,4.276035636212296,0.6243855767440156,B,691,Incorrect
2,new_learn,78,619,B,26.045173389375773,54.59479836307961,1.3022586694687885,0.8575730873083349,A,714,Incorrect
2,new_learn,78,620,A,51.893143555855744,70.09259854767326,2.5946571777927874,1.1010119633419444,A,1536,Correct
2,new_learn,78,621,A,60.01958216132434,71.79925700079752,3.000979108066217,1.1278200916345549,B,471,Incorrect
2,new_learn,78,622,A,71.9697913246302,37.47733457488437,3.5984895662315095,0.5886925948829174,A,260,Correct
2,new_learn,78,623,A,35.26243552000109,88.76110177692433,1.7631217760000544,1.3942561263346072,107,504,Incorrect
2,new_learn,78,624,A,46.03216505797504,72.63080940612898,2.301608252898752,1.1408820862728761,A,529,Correct
2,new_learn,78,625,A,52.46780080159717,68.48164141611548,2.6233900400798587,1.0757071078931946,A,421,Correct
2,new_learn,78,626,A,77.97848644908625,38.714757217208316,3.898924322454312,0.6081299842954704,B,547,Incorrect
2,new_learn,78,627,A,71.04475168316694,46.70058521470497,3.552237584158347,0.7335710771443062,A,675,Correct
2,new_learn,78,628,B,46.885263490236,33.881210715299034,2.3442631745118003,0.5322048133895562,B,891,Correct
2,new_learn,78,629,B,18.546812881612265,61.01847512275802,0.9273406440806133,0.9584759658945408,107,315,Correct
2,new_learn,78,630,B,59.47682913369903,27.67901602437226,2.9738414566849514,0.4347809670038103,A,249,Incorrect
2,new_learn,78,631,B,34.36065761847324,57.07717567482593,1.7180328809236618,0.8965661789384359,B,104,Correct
2,new_learn,78,632,A,57.281764892246294,64.14909304783109,2.8640882446123146,1.007651597267571,B,944,Incorrect
2,new_learn,78,633,B,51.05365539276198,19.851909457295008,2.552682769638099,0.3118330645538387,A,567,Incorrect
2,new_learn,78,634,A,67.6270968282188,60.085063339885686,3.3813548414109396,0.9438139678953115,B,419,Incorrect
2,new_learn,78,635,A,85.53345157430297,30.820994745033744,4.276672578715148,0.48413505333663814,B,611,Incorrect
2,new_learn,78,636,B,59.10921626107181,29.66241953679055,2.9554608130535907,0.4659361965223978,A,780,Incorrect
2,new_learn,78,637,B,50.12206338095862,38.02325244617113,2.506103169047931,0.5972678527524067,A,809,Incorrect
2,new_learn,78,638,A,69.57129340828045,50.896049746792286,3.4785646704140225,0.7994732799063164,B,768,Incorrect
2,new_learn,78,639,A,55.269200819607725,52.236361818771144,2.7634600409803864,0.8205268527005489,A,1227,Correct
2,new_learn,78,640,B,38.46318360808923,50.40614529775484,1.9231591804044614,0.7917778788160315,A,857,Incorrect
2,new_learn,78,641,B,34.115029234707,43.36498265923084,1.7057514617353502,0.681175554726442,B,797,Correct
2,new_learn,78,642,A,72.68493127141244,37.48855056878909,3.634246563570622,0.5888687753031863,B,806,Incorrect
2,new_learn,78,643,A,49.10791828269649,62.34129811583534,2.4553959141348245,0.9792548208797975,A,675,Correct
2,new_learn,78,644,B,51.672471307064725,23.692992775287692,2.583623565353236,0.37216866022199935,B,1527,Correct
2,new_learn,78,645,A,63.074981553120764,56.70018694478091,3.1537490776560384,0.890644453814458,A,943,Correct
2,new_learn,78,646,A,58.75608154768454,57.38673620762786,2.937804077384227,0.9014287444168954,B,731,Incorrect
2,new_learn,78,647,A,55.69025585873061,64.5580607514072,2.7845127929365305,1.014075646933122,A,1014,Correct
2,new_learn,78,648,A,36.42924745960225,74.27012874768418,1.8214623729801127,1.1666324542744637,A,873,Correct
2,new_learn,78,649,A,68.33427022474073,59.1731087352144,3.416713511237037,0.9294890184630978,B,1051,Incorrect
2,new_learn,78,650,B,47.3494301519491,39.20185484786015,2.367471507597455,0.6157812959856543,A,1662,Incorrect
2,new_learn,78,651,B,59.01777767324493,26.944071509877887,2.9508888836622464,0.4232364855661521,B,1912,Correct
2,new_learn,78,652,B,62.28427371507963,13.791863636876087,3.1142136857539815,0.21664208740461063,B,836,Correct
2,new_learn,78,653,A,85.70285483007407,35.99511391534634,4.285142741503704,0.565409927207899,B,1555,Incorrect
2,new_learn,78,654,A,77.78377372202694,51.00812001163867,3.8891886861013467,0.8012336755099527,A,4813,Correct
2,new_learn,78,655,B,40.40802979307393,40.76091513144018,2.0204014896536964,0.6402709576526474,B,1256,Correct
2,new_learn,78,656,B,58.02192621145564,16.345734432655064,2.901096310572782,0.25675819605579436,B,1231,Correct
2,new_learn,78,657,B,42.471883406231626,43.217549140670776,2.1235941703115815,0.678859674432436,A,396,Incorrect
2,new_learn,78,658,B,13.646571212831944,66.49797039112451,0.6823285606415972,1.0445476762969417,A,895,Incorrect
2,new_learn,78,659,A,61.00321614988777,71.99600731208845,3.0501608074943887,1.1309106382972705,B,4361,Incorrect
2,new_learn,78,660,B,55.49296867804998,21.375867112022092,2.774648433902499,0.33577133541620136,A,1894,Incorrect
2,new_learn,78,661,A,36.67434289128427,83.14254398113984,1.8337171445642133,1.306000026859576,A,1979,Correct
2,new_learn,78,662,B,51.44045904080223,39.49944091760353,2.572022952040111,0.6204557670382367,B,846,Correct
2,new_learn,78,663,B,57.14574823874979,23.270222213002725,2.8572874119374894,0.3655277957588569,B,831,Correct
2,new_learn,78,664,A,77.4213847896907,54.51405723613381,3.871069239484535,0.8563048086520573,B,755,Incorrect
2,new_learn,78,665,B,47.93781542939688,29.63509549899554,2.396890771469844,0.46550699154038166,B,1711,Correct
2,new_learn,78,666,B,20.282511302637534,67.54222645407626,1.0141255651318766,1.0609508121761206,A,1469,Incorrect
2,new_learn,78,667,B,23.244315084051046,49.32027372207303,1.1622157542025522,0.7747210479915119,B,992,Correct
2,new_learn,78,668,A,43.792916531636784,75.0057711786135,2.1896458265818395,1.178187898557846,A,1224,Correct
2,new_learn,78,669,B,65.29585334392581,19.59294183935134,3.264792667196291,0.30776521072359136,B,750,Correct
2,new_learn,78,670,B,54.836181661706746,32.56854115477297,2.741809083085337,0.5115854481498581,B,779,Correct
2,new_learn,78,671,A,52.27174038329327,65.83678626313227,2.6135870191646635,1.0341618203010887,A,769,Correct
2,new_learn,78,672,B,28.068884732331103,46.9981974955361,1.4034442366165552,0.7382459599196922,A,839,Incorrect
2,new_learn,78,673,B,23.60002928288683,64.87337241695177,1.1800014641443415,1.019028550993452,A,902,Incorrect
2,new_learn,78,674,A,80.6897377181107,39.120064675859126,4.034486885905535,0.614496538968183,B,826,Incorrect
2,new_learn,78,675,B,53.25201683225512,32.941180877332954,2.662600841612756,0.5174388592240089,B,2321,Correct
2,new_learn,78,676,A,71.74478478683439,56.292205189482495,3.587239239341719,0.8842358913882371,B,553,Incorrect
2,new_learn,78,677,A,57.33847328515644,59.374529321474206,2.866923664257822,0.9326529256334756,B,468,Incorrect
2,new_learn,78,678,B,29.5956718078476,45.897600711207204,1.47978359039238,0.7209578260586312,A,2333,Incorrect
2,new_learn,78,679,A,69.86761341625889,53.46659177805543,3.493380670812945,0.8398512597121167,100,483,Incorrect
2,new_learn,78,680,B,58.896339777458905,18.956054394340754,2.9448169888729456,0.29776100613154716,A,375,Incorrect
2,new_learn,78,681,A,53.451603046728735,78.06885589786668,2.6725801523364368,1.226302720814491,B,305,Incorrect
2,new_learn,78,682,A,76.75550123971831,47.08578280194324,3.837775061985916,0.7396217466955476,107,327,Incorrect
2,new_learn,78,683,B,25.31396830476892,60.06335669612986,1.265698415238446,0.9434730007325243,B,304,Correct
2,new_learn,78,684,A,47.3689764408643,75.42400026945916,2.3684488220432147,1.1847574257544373,B,364,Incorrect
2,new_learn,78,685,A,54.2049003949786,61.54403228746066,2.71024501974893,0.9667313985328971,A,328,Correct
2,new_learn,78,686,A,64.51750620111247,46.093171522078194,3.2258753100556237,0.7240298451720757,A,533,Correct
2,new_learn,78,687,A,43.85939719024819,71.18851468184549,2.1929698595124094,1.1182265737222747,A,352,Correct
2,new_learn,78,688,B,47.95178603485252,23.351292949655246,2.397589301742626,0.36680125191230023,B,639,Correct
2,new_learn,78,689,B,41.428772582473876,47.36144049791161,2.0714386291236937,0.743951767658346,B,871,Correct
2,new_learn,78,690,B,28.241240365797516,50.06179725732778,1.412062018289876,0.7863688724456132,A,151,Incorrect
2,new_learn,78,691,A,70.83039975045169,60.23106445066256,3.5415199875225847,0.9461073479804742,B,1359,Incorrect
2,new_learn,78,692,B,33.545881072136304,44.83487742991352,1.677294053606815,0.7042646077920758,B,352,Correct
2,new_learn,78,693,A,66.41776151051154,59.32756546462217,3.320888075525577,0.9319152190951225,A,831,Correct
2,new_learn,78,694,B,34.64219098325562,38.25869307752937,1.7321095491627807,0.6009661455415648,A,452,Incorrect
2,new_learn,78,695,B,43.340931465420226,34.08951713634437,2.167046573271011,0.5354768829998141,B,58,Correct
2,new_learn,78,696,B,37.96718179352959,54.51355925937585,1.8983590896764795,0.8562969864514349,B,426,Correct
2,new_learn,78,697,A,79.59391073895364,35.93038733772137,3.979695536947682,0.5643932045041059,B,275,Incorrect
2,new_learn,78,698,B,41.5572677715789,42.256843740681816,2.077863388578945,0.6637689492980892,B,358,Correct
2,new_learn,78,699,B,30.62848426202607,48.808985795505585,1.5314242131013034,0.7666897560216446,A,355,Incorrect
2,new_learn,78,700,B,63.74145291462305,18.283778105925506,3.1870726457311527,0.2872009148872074,A,318,Incorrect
2,new_learn,78,701,A,42.58889138862962,66.44149099231521,2.129444569431481,1.0436604999750492,B,461,Incorrect
2,new_learn,78,702,B,46.75601788824215,41.63787895345315,2.3378008944121076,0.6540462731561475,B,470,Correct
2,new_learn,78,703,A,42.28966920145996,66.3817832817931,2.114483460072998,1.042722613451355,B,481,Incorrect
2,new_learn,78,704,A,71.10572031726268,60.64981054651007,3.555286015863134,0.952684996272644,A,562,Correct
2,new_learn,78,705,A,64.80190996874477,52.37749431337595,3.2400954984372383,0.8227437567417152,A,711,Correct
2,new_learn,78,706,B,66.41234694139648,21.846628996354212,3.320617347069824,0.3431660458032407,B,819,Correct
2,new_learn,78,707,B,41.43673139103076,32.45841553167402,2.071836569551538,0.5098555989073598,B,536,Correct
2,new_learn,78,708,A,59.24886735866593,60.124575768693475,2.962443367933297,0.9444346276756517,B,733,Incorrect
2,new_learn,78,709,B,28.860730710763455,61.73897428370829,1.4430365355381727,0.9697935402493355,A,630,Incorrect
2,new_learn,78,710,B,63.25484909391812,26.86206730203682,3.162742454695906,0.42194836648156736,A,413,Incorrect
2,new_learn,78,711,A,58.33559982847985,73.10094478337432,2.9167799914239922,1.1482669555096092,B,283,Incorrect
2,new_learn,78,712,B,16.634048136105292,55.075753368688446,0.8317024068052646,0.8651279108699745,B,276,Correct
2,new_learn,78,713,A,50.59960156840303,78.49166070406301,2.529980078420152,1.232944123179735,B,484,Incorrect
2,new_learn,78,714,A,53.37941333890842,70.73253135665884,2.668970666945421,1.1110640043994453,A,567,Correct
2,new_learn,78,715,B,48.40655278534557,43.15187506984436,2.4203276392672786,0.6778280685402379,B,678,Correct
2,new_learn,78,716,A,83.52608879487121,37.1988459411329,4.176304439743561,0.5843181056534081,A,962,Correct
2,new_learn,78,717,A,34.92973756425651,84.04857861018994,1.7464868782128258,1.3202319855321847,A,744,Correct
2,new_learn,78,718,B,35.526245811202784,48.9153966193211,1.7763122905601392,0.7683612533334507,B,924,Correct
2,new_learn,78,719,B,61.49534098508191,23.499581210390147,3.0747670492540955,0.36913055846499215,B,476,Correct
2,new_learn,78,720,A,63.35302502014406,49.13980853218463,3.167651251007203,0.7718863074176013,A,432,Correct
2,new_learn,78,721,A,63.60264764788379,65.38743437174682,3.1801323823941896,1.0271034172968228,A,437,Correct
2,new_learn,78,722,A,56.25089734095295,69.85846702077293,2.8125448670476474,1.0973342339175254,A,445,Correct
2,new_learn,78,723,B,37.60833194785872,51.9941439167541,1.880416597392936,0.8167221027928255,B,333,Correct
2,new_learn,78,724,B,18.842203420741786,50.18848426173622,0.9421101710370893,0.7883588672573875,B,406,Correct
2,new_learn,78,725,A,32.02703517593983,89.27891043116658,1.6013517587969914,1.4023898456552704,A,356,Correct
2,new_learn,78,726,B,13.443150158747727,62.066792444152036,0.6721575079373864,0.9749428958721527,A,775,Incorrect
2,new_learn,78,727,B,44.327448617718055,28.27076225665489,2.2163724308859027,0.444076095084453,B,678,Correct
2,new_learn,78,728,B,42.128652664691884,26.66521087305989,2.1064326332345944,0.4188561529261382,B,354,Correct
2,new_learn,78,729,A,36.037852824070264,75.15972497507538,1.801892641203513,1.1806061991376307,A,398,Correct
2,new_learn,78,730,B,63.90811692003004,24.707082322280584,3.195405846001502,0.3880979415765747,B,527,Correct
2,new_learn,78,731,A,61.24710876622986,59.3833826160254,3.062355438311493,0.9327919928590862,A,2029,Correct
2,new_learn,78,732,B,46.76348957434624,26.498113117638283,2.338174478717312,0.4162313875218188,B,504,Correct
2,new_learn,78,733,B,43.779666512357366,43.412336691445454,2.1889833256178686,0.6819193901250583,B,303,Correct
2,new_learn,78,734,A,32.482353715900885,82.78740482767407,1.6241176857950443,1.3004215140819253,A,675,Correct
2,new_learn,78,735,A,60.33222044350134,62.654816992250694,3.0166110221750673,0.9841795638743386,A,453,Correct
2,new_learn,78,736,B,67.33170907103748,19.552780007936008,3.366585453551874,0.3071343501509457,107,347,Correct
2,new_learn,78,737,A,70.72154727647984,58.83727740233187,3.536077363823992,0.9242137922219529,A,1203,Correct
2,new_learn,78,738,B,33.63611847312622,38.6559515546694,1.6818059236563108,0.6072062671083616,B,401,Correct
2,new_learn,78,739,B,32.777105541027936,53.21005581173515,1.6388552770513969,0.8358216021762501,B,700,Correct
2,new_learn,78,740,A,73.31912528242756,51.3457328113778,3.665956264121378,0.8065368849670445,B,938,Incorrect
2,new_learn,78,741,B,47.47746600292959,36.54053978199455,2.3738733001464793,0.5739774566865983,B,498,Correct
2,new_learn,78,742,A,48.54717757327085,65.27488542147536,2.4273588786635427,1.0253355025201123,A,486,Correct
2,new_learn,78,743,A,40.78529715420704,71.9048102569533,2.0392648577103523,1.1294781183050626,B,765,Incorrect
2,new_learn,78,744,A,74.1523729441615,45.56394306796062,3.7076186472080748,0.7157167440544435,B,614,Incorrect
2,new_learn,78,745,B,55.66612315499513,33.399240800488826,2.7833061577497564,0.5246340476714608,B,908,Correct
2,new_learn,78,746,A,71.3565553904208,50.268906064642096,3.5678277695210396,0.789622129983375,B,1498,Incorrect
2,new_learn,78,747,A,49.77852308175581,80.06251736453402,2.4889261540877903,1.2576190819016269,A,542,Correct
2,new_learn,78,748,B,43.196937590065296,45.38618526932362,2.159846879503265,0.7129245310828618,B,575,Correct
2,new_learn,78,749,B,31.324319978980668,38.73927156888362,1.5662159989490334,0.6085150548311237,B,1044,Correct
2,new_learn,78,750,B,53.66576026377145,38.177293904495386,2.6832880131885726,0.5996875303215053,B,483,Correct
2,new_learn,78,751,A,78.30206185048726,41.53575816107424,3.915103092524363,0.6524421635005657,B,1272,Incorrect
2,new_learn,78,752,B,61.205088891754215,30.0813011074776,3.0602544445877107,0.4725159728483707,B,748,Correct
2,new_learn,78,753,B,14.149157125880762,58.238429931053375,0.7074578562940381,0.9148071181400059,A,1133,Incorrect
2,new_learn,78,754,B,15.405939716687186,59.351360854314905,0.7702969858343593,0.9322889962023626,A,796,Incorrect
2,new_learn,78,755,A,59.45844709906019,64.16299846203233,2.9729223549530093,1.00787002300307,B,517,Incorrect
2,new_learn,78,756,B,33.47365061050055,49.341367360840785,1.6736825305250276,0.775052386094463,B,473,Correct
2,new_learn,78,757,A,45.26307222303923,79.67336720257403,2.2631536111519615,1.2515063254518428,B,645,Incorrect
2,new_learn,78,758,B,43.59268293894489,44.43666816716304,2.1796341469472447,0.6980095513198342,A,1374,Incorrect
2,new_learn,78,759,B,24.990088228234114,51.89905209474389,1.2495044114117058,0.8152284039456069,100,40,Correct
2,new_learn,78,760,A,33.20612248467543,86.3751427568513,1.6603061242337716,1.3567775696884683,A,309,Correct
2,new_learn,78,761,A,73.96026064484579,43.26111628687443,3.6980130322422893,0.6795440255646923,B,507,Incorrect
2,new_learn,78,762,B,43.99954856768995,41.02648165709711,2.1999774283844973,0.6444424668828633,A,288,Incorrect
2,new_learn,78,763,B,32.40595511766358,53.153798181498736,1.620297755883179,0.8349379093869547,B,1002,Correct
2,new_learn,78,764,A,66.40328139881473,47.359494333833815,3.3201640699407364,0.7439211973844988,A,836,Correct
2,new_learn,78,765,B,59.40249200169354,27.053545782578325,2.9701246000846773,0.424956103420516,A,467,Incorrect
2,new_learn,78,766,A,58.42144972164197,50.99846585134646,2.9210724860820982,0.8010820283147,B,453,Incorrect
2,new_learn,78,767,A,83.7960177518055,39.13886918564958,4.189800887590275,0.6147919195172433,B,382,Incorrect
2,new_learn,78,768,B,49.55369019083187,26.691582182646172,2.477684509541594,0.41927039248844716,A,2442,Incorrect
2,new_learn,78,769,A,71.75870523354017,45.77744205460973,3.587935261677009,0.7190703782944717,B,2393,Incorrect
2,new_learn,78,770,B,52.25402081105415,24.256399202401084,2.6127010405527074,0.3810186276840228,A,2649,Incorrect
2,new_learn,78,771,B,45.007280143145174,45.70687547998635,2.2503640071572586,0.7179619211323428,A,233,Incorrect
2,new_learn,78,772,B,52.50721722163463,35.40073590530645,2.6253608610817314,0.5560734592589158,B,91,Correct
2,new_learn,78,773,A,58.21416709364488,56.05465029611587,2.910708354682244,0.8805043878491126,B,287,Incorrect
2,new_learn,78,774,A,84.0699988353759,42.422290572060234,4.203499941768794,0.6663677820481798,A,525,Correct
2,new_learn,78,775,A,71.57229063797598,54.712828507082286,3.578614531898799,0.8594271004748396,B,835,Incorrect
2,new_learn,78,776,B,55.9298864138582,35.69145525734207,2.7964943206929096,0.5606400681619732,A,268,Incorrect
2,new_learn,78,777,A,63.70327515083059,50.21021640857177,3.1851637575415293,0.7887002350216138,B,606,Incorrect
2,new_learn,78,778,B,28.535904207820572,49.39624065370622,1.4267952103910286,0.7759143337631846,B,376,Correct
2,new_learn,78,779,A,69.18484179077288,41.72606193770905,3.459242089538644,0.6554314482336971,B,590,Incorrect
2,new_learn,78,780,A,42.466649977848974,66.75732243022583,2.1233324988924487,1.0486215686006128,A,191,Correct
2,new_learn,78,781,A,74.310893423031,43.00073515207348,3.7155446711515503,0.6754539682635722,A,323,Correct
2,new_learn,78,782,A,83.61177118112275,45.43022336395611,4.180588559056138,0.7136162798557395,A,337,Correct
2,new_learn,78,783,B,46.37013066620368,36.53986021342291,2.318506533310184,0.573966782048437,A,316,Incorrect
2,new_learn,78,784,B,35.04400985446949,54.883368244973674,1.7522004927234747,0.8621059324133632,A,402,Incorrect
2,new_learn,78,785,B,29.65680273697803,59.97289639774269,1.4828401368489015,0.942052053688251,B,367,Correct
2,new_learn,78,786,A,74.76055636636909,38.226145554419354,3.7380278183184545,0.6004548902440898,B,144,Incorrect
2,new_learn,78,787,A,70.17267632593953,61.225964956493726,3.5086338162969763,0.961735208581334,A,345,Correct
2,new_learn,78,788,B,53.24543834351962,32.333185356304426,2.662271917175981,0.5078884879126153,A,397,Incorrect
2,new_learn,78,789,A,57.06793193660727,72.70979570924561,2.8533965968303634,1.1421228002209036,A,415,Correct
2,new_learn,78,790,A,62.845670785135766,47.82393903812071,3.1422835392567885,0.7512166777394307,A,313,Correct
2,new_learn,78,791,A,69.55203482176843,54.65273748912463,3.4776017410884212,0.8584831929720271,A,320,Correct
2,new_learn,78,792,A,80.27005583036527,39.36192474318628,4.013502791518263,0.6182956680217415,A,342,Correct
2,new_learn,78,793,B,30.186644640770616,52.060351318217506,1.509332232038531,0.8177620862230791,B,500,Correct
2,new_learn,78,794,A,55.21233605433865,69.87763062546503,2.7606168027169327,1.0976352551161104,B,370,Incorrect
2,new_learn,78,795,A,55.106106095839266,53.60923947005293,2.755305304791963,0.8420919644182712,A,974,Correct
2,new_learn,78,796,B,52.27044864847829,21.279982668753505,2.6135224324239146,0.33426518610337064,A,476,Incorrect
2,new_learn,78,797,B,36.45708788355772,30.649898052175757,1.822854394177886,0.48144747276995725,B,544,Correct
2,new_learn,78,798,A,63.4864667812014,56.871024964794444,3.17432333906007,0.8933279711575997,A,656,Correct
2,new_learn,78,799,A,83.52305522062761,45.363899895568586,4.17615276103138,0.7125744732505054,A,539,Correct
2,new_learn,78,800,B,16.7341121477617,62.409809514920504,0.8367056073880849,0.980330995420063,B,789,Correct
2,new_learn,78,801,A,40.95579080257738,76.2061179125526,2.047789540128869,1.197042900963364,A,838,Correct
2,new_learn,78,802,B,24.340045134835755,64.92491244163564,1.2170022567417877,1.0198381398080154,B,1202,Correct
2,new_learn,78,803,A,57.97956005696387,57.617703066292385,2.8989780028481937,0.9050567633489113,A,929,Correct
2,new_learn,78,804,B,32.28520280830399,54.29602324166305,1.6142601404151997,0.8528799386757465,B,747,Correct
2,new_learn,78,805,A,73.80940105400818,57.56796995521227,3.690470052700409,0.904275557466864,A,506,Correct
2,new_learn,78,806,B,34.10841128016587,47.94029379784947,1.7054205640082933,0.753044374031301,B,800,Correct
2,new_learn,78,807,B,15.402855693830972,58.53999498892679,0.7701427846915486,0.9195440909919785,B,712,Correct
2,new_learn,78,808,B,17.889577954832646,52.79330225365912,0.8944788977416323,0.8292752525942049,B,707,Correct
2,new_learn,78,809,B,46.750861204259635,31.53720651248294,2.337543060212982,0.4953852814718029,A,410,Incorrect
2,new_learn,78,810,A,60.89107566485216,56.877259107393975,3.0445537832426077,0.8934258968405603,A,484,Correct
2,new_learn,78,811,A,59.52364457886324,63.85128946598902,2.976182228943162,1.0029737095429323,A,786,Correct
2,new_learn,78,812,B,57.230229843524306,33.126088752900955,2.8615114921762155,0.5203433853413857,A,1391,Incorrect
2,new_learn,78,813,B,18.21688364192948,53.89403242911026,0.9108441820964741,0.8465654817581144,B,817,Correct
2,new_learn,78,814,A,71.7023071525437,53.24307634293519,3.585115357627185,0.8363402874674285,A,759,Correct
2,new_learn,78,815,B,15.517740213863533,54.86344119504332,0.7758870106931767,0.8617929190450185,B,1111,Correct
2,new_learn,78,816,B,23.82704965604773,59.53919660033188,1.1913524828023865,0.935239513201205,A,895,Incorrect
2,new_learn,78,817,B,16.182006707691457,68.21811025170493,0.8091003353845728,1.071567570042674,B,995,Correct
2,new_learn,78,818,B,22.87014846770774,48.72017233685984,1.143507423385387,0.7652946774755378,B,788,Correct
2,new_learn,78,819,B,56.758842471174916,30.11386296694019,2.837942123558746,0.47302745334074514,A,647,Incorrect
2,new_learn,78,820,A,39.87001215090325,81.34835956791521,1.9935006075451625,1.277817044000717,A,758,Correct
2,new_learn,78,821,A,78.71743465396344,44.3565805766551,3.935871732698172,0.6967515383899168,A,787,Correct
2,new_learn,78,822,B,47.8005967890801,21.345825155582446,2.390029839454005,0.3352994374679501,B,733,Correct
2,new_learn,78,823,B,44.149188203882446,29.684661109218922,2.2074594101941223,0.46628556632512397,B,653,Correct
2,new_learn,78,824,A,53.3127778996858,58.203260629689176,2.6656388949842897,0.9142546800460178,A,571,Correct
2,new_learn,78,825,B,18.345123572445562,65.61528915266338,0.917256178622278,1.0306825518258866,A,1005,Incorrect
2,new_learn,78,826,B,32.4614762970847,58.0198449838302,1.623073814854235,0.9113735938180979,A,759,Incorrect
2,new_learn,78,827,A,73.69919054624641,51.05210671292579,3.684959527312321,0.8019246169980491,A,618,Correct
2,new_learn,78,828,B,39.402765989754855,41.60902971599472,1.9701382994877428,0.6535931103938419,B,1421,Correct
2,new_learn,78,829,B,44.52751377745906,34.31509441408723,2.2263756888729533,0.5390202425926829,B,1281,Correct
2,new_learn,78,830,B,31.008646283837603,36.64508686877845,1.55043231419188,0.5756196784855708,B,1028,Correct
2,new_learn,78,831,B,56.91861160695337,21.663852877839915,2.845930580347668,0.34029500524735984,A,544,Incorrect
2,new_learn,78,832,A,74.73088052935974,54.20087041588457,3.7365440264679872,0.8513852815835766,A,2125,Correct
2,new_learn,78,833,A,50.278109059050394,64.47518968393288,2.5139054529525198,1.01277391124926,A,1485,Correct
2,new_learn,78,834,A,50.67985031029381,56.784210902169285,2.5339925155146905,0.8919642990507424,A,917,Correct
2,new_learn,78,835,B,45.55445612930922,31.302969592449358,2.277722806465461,0.4917058965359179,B,506,Correct
2,new_learn,78,836,B,23.65321286241125,45.0802808622732,1.1826606431205626,0.7081193958934102,B,706,Correct
2,new_learn,78,837,A,43.86911791682077,71.081204923781,2.1934558958410384,1.1165409559843051,A,972,Correct
2,new_learn,78,838,B,42.67938348387247,40.02031860257319,2.1339691741936235,0.6286376945808344,B,1103,Correct
2,new_learn,78,839,A,68.68033316093435,42.46033331217467,3.4340166580467177,0.6669653560125095,A,482,Correct
2,new_learn,78,840,B,29.453326925799523,46.413667654808876,1.4726663462899763,0.7290641866525288,B,547,Correct
2,new_learn,78,841,A,48.11253298521805,80.9274253709618,2.4056266492609026,1.271205025096749,A,531,Correct
2,new_learn,78,842,A,62.29461199295389,62.73677571453682,3.1147305996476944,0.985466968473497,A,426,Correct
2,new_learn,78,843,B,23.30541948838155,51.15449106666755,1.1652709744190775,0.8035328666658375,B,461,Correct
2,new_learn,78,844,A,50.29249780940201,77.49396364107444,2.5146248904701003,1.2172723343617702,A,601,Correct
2,new_learn,78,845,A,64.09941940910763,51.64814148111444,3.2049709704553813,0.8112871092431769,A,472,Correct
2,new_learn,78,846,A,62.4809797683792,64.40336087310989,3.12404898841896,1.0116456269272718,A,567,Correct
2,new_learn,78,847,A,70.78710807275115,56.24754506290302,3.5393554036375576,0.8835343717603849,A,442,Correct
2,new_learn,78,848,A,47.55112906376292,76.13162608867049,2.377556453188146,1.1958727861300613,A,398,Correct
2,new_learn,78,849,A,74.6599665368263,44.68187970321065,3.732998326841315,0.7018613251209473,A,480,Correct
2,new_learn,78,850,A,56.45600726695427,56.186479544199,2.8228003633477137,0.8825751568356438,A,538,Correct
2,new_learn,78,851,A,45.01549040565071,63.9666502591799,2.2507745202825356,1.0047857926449362,A,502,Correct
2,new_learn,78,852,A,49.185109631906414,81.49497882758403,2.4592554815953207,1.2801201339459685,A,474,Correct
2,new_learn,78,853,A,48.699177322481276,78.93837635919617,2.4349588661240635,1.2399611162817845,A,458,Correct
2,new_learn,78,854,A,79.27285962835688,49.35920263617746,3.963642981417844,0.7753325419443254,A,589,Correct
2,new_learn,78,855,B,40.86553414236703,34.52507250428637,2.0432767071183515,0.5423185707206051,B,414,Correct
2,new_learn,78,856,B,25.013450609625597,43.6163659467927,1.2506725304812798,0.6851242741736397,B,378,Correct
2,new_learn,78,857,B,56.88483709719421,23.21136398098406,2.844241854859711,0.3646032528122913,A,440,Incorrect
2,new_learn,78,858,B,22.52565837565004,60.0203221635833,1.1262829187825019,0.9427970158760298,B,530,Correct
2,new_learn,78,859,A,53.7388372026217,54.09068042258552,2.686941860131085,0.8496544212163395,A,347,Correct
2,new_learn,78,860,B,38.67051624645316,41.53023987272577,1.933525812322658,0.652355482429886,B,491,Correct
2,new_learn,78,861,A,45.173428373082956,72.54707265045803,2.258671418654148,1.1395667523906197,A,522,Correct
2,new_learn,78,862,A,83.5243996877844,30.794001908004702,4.17621998438922,0.4837110508440882,A,560,Correct
2,new_learn,78,863,B,34.02831720035638,43.91983458672404,1.701415860017819,0.6898911484226558,B,331,Correct
2,new_learn,78,864,A,46.75639284939815,66.94124530828924,2.3378196424699076,1.0515106224133683,A,505,Correct
2,new_learn,78,865,B,18.652724473068254,56.47395558441465,0.9326362236534126,0.8870908199157667,B,2200,Correct
2,new_learn,78,866,A,77.0642699435704,46.88197282694267,3.8532134971785195,0.7364203070945969,A,420,Correct
2,new_learn,78,867,A,36.208562692674676,87.40673255193724,1.8104281346337336,1.3729817442972694,A,1025,Correct
2,new_learn,78,868,B,23.22736950127605,60.11504322801669,1.1613684750638027,0.9442848908768503,B,975,Correct
2,new_learn,78,869,A,67.5584234549949,41.41720167003121,3.377921172749745,0.6505798824940848,A,679,Correct
2,new_learn,78,870,B,60.33860821744284,21.51504764753645,3.0169304108721415,0.33795757815567434,A,679,Incorrect
2,new_learn,78,871,A,76.00915419480816,41.23380527405101,3.800457709740408,0.6476990986425536,A,972,Correct
2,new_learn,78,872,A,82.03933950260802,35.9641025892857,4.1019669751304,0.564922802437248,A,5283,Correct
2,new_learn,78,873,B,29.136757194164208,40.3921618851938,1.4568378597082106,0.6344785952056724,B,739,Correct
2,new_learn,78,874,B,39.66760086949383,52.36558667793997,1.9833800434746918,0.8225567120416787,B,759,Correct
2,new_learn,78,875,B,22.405292573588945,56.559430410567636,1.1202646286794473,0.8884334553453122,B,2084,Correct
2,new_learn,78,876,A,65.95039053028745,48.20720198759152,3.2975195265143724,0.7572369580716838,A,1561,Correct
2,new_learn,78,877,A,39.875947647499615,72.43775736577211,1.9937973823749808,1.137849631914148,B,2800,Incorrect
2,new_learn,78,878,B,38.18040201330878,47.05937216867172,1.9090201006654388,0.7392068894382351,A,2325,Incorrect
2,new_learn,78,879,B,25.94185192998316,61.28184717455911,1.297092596499158,0.9626130044100367,B,1666,Correct
2,new_learn,78,880,B,54.34120332760057,33.77181777541864,2.7170601663800285,0.5304864731081419,B,3438,Correct
2,new_learn,78,881,A,85.23735899370946,40.7625142044278,4.261867949685473,0.6402960758323999,A,2100,Correct
2,new_learn,78,882,B,14.103188715424892,68.9916960992597,0.7051594357712446,1.0837190281206692,B,908,Correct
2,new_learn,78,883,B,47.26464241187849,37.04466794125459,2.3632321205939246,0.5818962832945936,A,732,Incorrect
2,new_learn,78,884,A,73.74259463040747,43.93925153588553,3.6871297315203733,0.69019614914686,A,906,Correct
2,new_learn,78,885,B,43.6162263756941,27.436502112682888,2.180811318784705,0.4309715673870269,B,1227,Correct
2,new_learn,78,886,A,65.78666718666054,54.44183912852611,3.289333359333027,0.855170409270475,A,678,Correct
2,new_learn,78,887,B,46.8325751836856,38.86821218492781,2.34162875918428,0.6105404492916926,B,1543,Correct
2,new_learn,78,888,B,15.794196062192029,57.434949142247156,0.7897098031096015,0.9021860714229353,B,2720,Correct
2,new_learn,78,889,B,34.46129427360164,38.30998984401441,1.723064713680082,0.6017719132652763,B,4204,Correct
2,new_learn,78,890,A,61.40365001347283,63.20364690902743,3.070182500673641,0.9928005640474191,A,898,Correct
2,new_learn,78,891,B,30.386785712975083,52.89585295317277,1.5193392856487542,0.8308861152152678,B,864,Correct
2,new_learn,78,892,A,37.23199752879495,80.36242200459003,1.8615998764397474,1.262329972971514,B,795,Incorrect
2,new_learn,78,893,B,44.6179171795977,24.447902503375985,2.230895858979885,0.3840267545014276,A,696,Incorrect
2,new_learn,78,894,A,78.67106556816188,47.91538156860187,3.933553278408094,0.752653053649357,A,899,Correct
2,new_learn,78,895,A,58.11438185351019,51.562536878770075,2.9057190926755094,0.8099424352939841,A,1534,Correct
2,new_learn,78,896,B,14.783688679997155,60.43004456492838,0.7391844339998578,0.949232920306414,B,786,Correct
2,new_learn,78,897,A,36.45240703963225,78.78744484816764,1.8226203519816124,1.2375902896505724,A,638,Correct
2,new_learn,78,898,A,70.34809509073511,51.38492178464533,3.5174047545367557,0.8071524639196395,A,680,Correct
