experiment,condition,subject,trial,cat,x,y,xt,yt,resp,rt,fb
2,new_learn,50,0,A,46.596916525754835,62.988290327198264,2.329845826287742,0.9894177507705355,B,1267,Incorrect
2,new_learn,50,1,B,47.636074291466386,28.87772375280137,2.3818037145733193,0.4536102239709813,B,924,Correct
2,new_learn,50,2,A,39.925422466545626,55.22642977007346,1.9962711233272814,0.867494730248277,B,762,Incorrect
2,new_learn,50,3,B,82.45228182925499,59.133961710121454,4.122614091462749,0.9288740984308884,B,2799,Correct
2,new_learn,50,4,A,61.470443625002005,84.27323827255992,3.0735221812501003,1.3237609312564822,B,1847,Incorrect
2,new_learn,50,5,B,54.75487510778357,25.56460464491019,2.737743755389179,0.40156787072188677,B,1489,Correct
2,new_learn,50,6,B,76.2193515573765,45.9812165977367,3.810967577868825,0.7222712613328534,A,728,Incorrect
2,new_learn,50,7,A,49.61026753942347,74.21079969686987,2.480513376971173,1.16570051572355,A,1252,Correct
2,new_learn,50,8,B,36.058151868422826,14.572550857883048,1.8029075934211414,0.2289050935959451,B,1875,Correct
2,new_learn,50,9,B,77.79831089436944,56.92198927243841,3.8899155447184715,0.8941285166300476,B,3266,Correct
2,new_learn,50,10,A,44.78100769671767,73.33896361326123,2.2390503848358834,1.152005746546553,A,2335,Correct
2,new_learn,50,11,B,32.58025811305791,13.013117141408426,1.6290129056528955,0.20440956605876062,B,1108,Correct
2,new_learn,50,12,B,56.65475834792985,42.055657530150974,2.8327379173964924,0.6606087236930527,B,1081,Correct
2,new_learn,50,13,B,63.94813164175225,53.739596230423736,3.1974065820876127,0.8441396036219048,B,1081,Correct
2,new_learn,50,14,B,33.91387979816038,16.774577182393553,1.6956939899080192,0.26349444221641277,A,1888,Incorrect
2,new_learn,50,15,A,12.429721151283612,35.802887786431626,0.6214860575641806,0.5623904462357665,A,5459,Correct
2,new_learn,50,16,B,82.83592902471356,62.88811528702584,4.141796451235678,0.9878442049191417,B,1626,Correct
2,new_learn,50,17,B,57.32951035257718,38.80000245366888,2.8664755176288588,0.6094690133385605,B,2100,Correct
2,new_learn,50,18,A,48.552130763928346,57.62681157458716,2.427606538196417,0.9051998394626314,B,1006,Incorrect
2,new_learn,50,19,A,29.063106498949942,38.46634890798641,1.453155324947497,0.6042279956987593,A,3166,Correct
2,new_learn,50,20,B,60.422463816991865,31.28837667072451,3.0211231908495932,0.4914766714574919,B,1648,Correct
2,new_learn,50,21,A,60.405289645035936,72.31057260867159,3.0202644822517972,1.13585181842137,B,2627,Incorrect
2,new_learn,50,22,A,46.833904777548675,75.33302897918847,2.3416952388774335,1.1833284520684275,A,698,Correct
2,new_learn,50,23,A,21.50068727214934,35.4798264232241,1.0750343636074668,0.5573158102092093,A,1511,Correct
2,new_learn,50,24,B,57.776216729996214,31.44099498781857,2.8888108364998106,0.49387399437642165,B,1467,Correct
2,new_learn,50,25,B,38.627568607563184,28.11885363723566,1.9313784303781592,0.44168992007053093,A,6978,Incorrect
2,new_learn,50,26,B,37.48571020683654,22.125446402263893,1.874285510341827,0.3475456993737348,B,1194,Correct
2,new_learn,50,27,A,55.09395578518013,64.68391221288911,2.7546977892590063,1.0160525170672976,B,2920,Incorrect
2,new_learn,50,28,A,42.611843935179884,64.40108073440673,2.130592196758994,1.0116098105922768,B,2219,Incorrect
2,new_learn,50,29,A,44.72336775324047,56.26806141262485,2.2361683876620235,0.8838566418282079,A,835,Correct
2,new_learn,50,30,A,45.45062672869095,74.33352491040188,2.2725313364345476,1.1676282788697623,A,470,Correct
2,new_learn,50,31,B,71.75816135054534,55.353562924309436,3.5879080675272665,0.8694917331651545,B,1158,Correct
2,new_learn,50,32,B,79.0343512412293,61.296867506615314,3.951717562061465,0.962848943234248,B,714,Correct
2,new_learn,50,33,A,49.89634746814153,68.48179626345632,2.494817373407076,1.0757095402295367,B,684,Incorrect
2,new_learn,50,34,A,28.480358379718787,51.175189495610816,1.4240179189859392,0.8038579968273823,A,847,Correct
2,new_learn,50,35,A,15.186180657088904,40.345040980932424,0.7593090328544452,0.6337384217723823,A,697,Correct
2,new_learn,50,36,B,82.07160848216361,61.16549502816358,4.103580424108181,0.9607853491683087,B,901,Correct
2,new_learn,50,37,B,40.731991111430204,13.173945101876871,2.0365995555715104,0.20693584575425805,A,3863,Incorrect
2,new_learn,50,38,B,36.93348288430197,24.312654931442857,1.8466741442150982,0.38190229060942266,B,1271,Correct
2,new_learn,50,39,A,43.23284580162103,70.23403676923792,2.1616422900810517,1.1032336697309664,B,1954,Incorrect
2,new_learn,50,40,A,34.39141539381891,50.05054501972103,1.7195707696909455,0.7861921227106039,A,8935,Correct
2,new_learn,50,41,B,44.85191274660866,30.12822301891856,2.242595637330433,0.47325302050974727,B,1575,Correct
2,new_learn,50,42,B,32.32136343804941,18.140425275722443,1.6160681719024705,0.2849491338960211,B,5091,Correct
2,new_learn,50,43,A,18.699562563740525,45.34599425997496,0.9349781281870263,0.7122932121843113,A,1345,Correct
2,new_learn,50,44,A,57.02690797874857,70.7370508742827,2.851345398937428,1.11113499681627,B,2171,Incorrect
2,new_learn,50,45,B,57.35292326735661,31.570160336260244,2.8676461633678305,0.4959029189252353,B,994,Correct
2,new_learn,50,46,B,60.44484243846892,33.78276139573998,3.022242121923446,0.530658375094168,B,1080,Correct
2,new_learn,50,47,A,63.420590901670664,81.13103679850306,3.1710295450835333,1.2744033459215018,A,689,Correct
2,new_learn,50,48,B,69.2210902187695,56.86918569699366,3.4610545109384754,0.8932990800065451,A,691,Incorrect
2,new_learn,50,49,A,33.08404197101091,64.25506994993728,1.6542020985505457,1.009316278553106,B,2752,Incorrect
2,new_learn,50,50,B,67.8075927632834,39.95938839179727,3.39037963816417,0.6276806050680579,B,3181,Correct
2,new_learn,50,51,A,34.714640298014444,61.205974810022134,1.7357320149007223,0.9614212040948373,B,997,Incorrect
2,new_learn,50,52,A,64.4684339290169,79.58031263014972,3.2234216964508446,1.2500446276462869,B,800,Incorrect
2,new_learn,50,53,B,33.782100433257085,11.841009448055406,1.6891050216628543,0.18599814146549096,B,2116,Correct
2,new_learn,50,54,B,70.9892315904565,61.457431770722124,3.549461579522825,0.9653710807969829,B,3353,Correct
2,new_learn,50,55,B,68.84609632631206,48.601321212655364,3.4423048163156036,0.7634277683821793,B,2183,Correct
2,new_learn,50,56,A,44.762642599232386,66.85884742649303,2.238132129961619,1.0502163195127567,A,623,Correct
2,new_learn,50,57,B,60.251509666662315,49.506884403081244,3.0125754833331153,0.7776523217141957,A,743,Incorrect
2,new_learn,50,58,B,55.57840204692101,37.31752950381213,2.778920102346051,0.5861823826964828,B,626,Correct
2,new_learn,50,59,A,66.44606393009197,89.86332548594984,3.322303196504598,1.4115698158690422,A,1381,Correct
2,new_learn,50,60,B,38.681259606302056,27.893975523220185,1.9340629803151028,0.4381575429158102,B,3480,Correct
2,new_learn,50,61,B,55.72002612438315,31.93968237098069,2.7860013062191573,0.5017073574733218,B,1033,Correct
2,new_learn,50,62,A,28.071978529099248,53.97531484906963,1.4035989264549624,0.8478422630251662,A,1264,Correct
2,new_learn,50,63,B,49.93273412399487,31.860665418534875,2.496636706199743,0.5004661620867576,B,4092,Correct
2,new_learn,50,64,B,61.64841568332127,43.331846392126955,3.082420784166063,0.6806550514599371,B,3783,Correct
2,new_learn,50,65,A,27.995674195443762,41.32226674413679,1.3997837097721881,0.6490886481652898,A,1714,Correct
2,new_learn,50,66,B,70.5702770479239,56.18046350115253,3.528513852396195,0.8824806570524515,B,964,Correct
2,new_learn,50,67,B,87.59742861660953,59.860718240719265,4.379871430830477,0.9402899633182609,A,797,Incorrect
2,new_learn,50,68,B,76.65033203986488,49.584936758950114,3.832516601993244,0.7788783652531608,B,678,Correct
2,new_learn,50,69,A,21.594684092798943,52.63288087066849,1.0797342046399472,0.8267553594027944,B,616,Incorrect
2,new_learn,50,70,B,49.35162185259419,35.326916912908075,2.4675810926297093,0.5549139132378451,B,2078,Correct
2,new_learn,50,71,A,37.16173628944966,62.48014714085788,1.858086814472483,0.9814358562646421,B,1816,Incorrect
2,new_learn,50,72,B,36.674423037995794,17.36460678518069,1.8337211518997896,0.2727626055439956,A,907,Incorrect
2,new_learn,50,73,B,45.23987467400079,25.28998152264203,2.2619937337000393,0.39725410080476903,B,1077,Correct
2,new_learn,50,74,A,32.677169280223985,41.01006610083621,1.6338584640111993,0.6441846119280943,B,1216,Incorrect
2,new_learn,50,75,B,37.397391743395566,13.800749380671952,1.8698695871697781,0.21678166434176446,A,1016,Incorrect
2,new_learn,50,76,B,78.24549212645152,62.99722195585285,3.9122746063225757,0.9895580484653647,B,1570,Correct
2,new_learn,50,77,A,50.37894699332074,71.93420389966535,2.518947349666037,1.1299398325650947,A,1356,Correct
2,new_learn,50,78,A,57.20312821725445,74.27447445944082,2.8601564108627224,1.1667007165551102,A,723,Correct
2,new_learn,50,79,A,43.25982907491096,69.39405730423057,2.162991453745548,1.0900393031487996,B,1242,Incorrect
2,new_learn,50,80,A,59.25465538143378,84.88617380606092,2.962732769071689,1.3333889001023367,A,561,Correct
2,new_learn,50,81,B,39.40612482215998,28.021868682262564,1.9703062411079992,0.4401664839602698,A,9119,Incorrect
2,new_learn,50,82,B,55.145873719861584,30.92463644187768,2.757293685993079,0.48576305330369063,107,1391,Incorrect
2,new_learn,50,83,A,67.44069879710975,84.61651280215722,3.3720349398554874,1.329153074958219,A,1567,Correct
2,new_learn,50,84,A,64.78342222847732,89.37317552836984,3.239171111423866,1.4038705583395887,A,800,Correct
2,new_learn,50,85,B,36.14966105073668,21.0628635785804,1.8074830525368342,0.33085468741016105,B,1130,Correct
2,new_learn,50,86,B,54.403616816137195,23.768881173935096,2.7201808408068597,0.37336071240041624,B,805,Correct
2,new_learn,50,87,B,59.73101095065169,51.410574004149396,2.986550547532584,0.8075554080413506,107,1106,Correct
2,new_learn,50,88,B,70.58782090126799,60.371629950885655,3.5293910450633996,0.9483153456947194,107,924,Correct
2,new_learn,50,89,A,39.851904996313245,49.961801243513364,1.992595249815662,0.7847981387336748,B,903,Incorrect
2,new_learn,50,90,B,49.211415656849994,35.160576719832775,2.4605707828425,0.5523010475950348,B,1033,Correct
2,new_learn,50,91,B,79.50539624030353,60.66755387956174,3.9752698120151764,0.9529637078964706,B,1828,Correct
2,new_learn,50,92,A,38.25374576985419,55.34889225224663,1.9126872884927095,0.8694183664199551,A,641,Correct
2,new_learn,50,93,A,52.743976541166845,63.46058009347705,2.637198827058342,0.9968364610710708,A,1567,Correct
2,new_learn,50,94,B,83.33776389261924,66.36615455234707,4.166888194630962,1.042477117943292,107,2147,Incorrect
2,new_learn,50,95,B,70.80768264870757,58.463225508687444,3.540384132435378,0.9183381988162793,B,748,Correct
2,new_learn,50,96,B,59.740648189712594,28.919322029297778,2.9870324094856295,0.4542636481701968,B,1552,Correct
2,new_learn,50,97,B,70.37053679995067,61.43787847700726,3.518526839997534,0.9650639383775425,B,1938,Correct
2,new_learn,50,98,B,43.00198075774716,21.81159156903215,2.150099037887358,0.34261567918186236,B,4663,Correct
2,new_learn,50,99,B,51.7936563155039,37.29012933568135,2.589682815775195,0.5857519818619488,B,3950,Correct
2,new_learn,50,100,A,48.885352435885586,73.95756531608492,2.444267621794279,1.1617227193719986,B,1184,Incorrect
2,new_learn,50,101,B,78.88723619665292,47.81468385518484,3.944361809832646,0.751071297665836,A,885,Incorrect
2,new_learn,50,102,A,56.754430357984575,80.30023736208312,2.8377215178992286,1.261353178891185,A,1362,Correct
2,new_learn,50,103,B,71.43239636372724,55.89224517723237,3.5716198181863614,0.8779533342071637,B,486,Correct
2,new_learn,50,104,B,62.2121827975976,32.01181564163545,3.11060913987988,0.5028404242391638,B,1085,Correct
2,new_learn,50,105,B,45.67109995202717,33.257598877582474,2.2835549976013585,0.5224091415492462,B,882,Correct
2,new_learn,50,106,A,50.45249417474293,59.60082117287516,2.5226247087371463,0.936207509723118,B,1605,Incorrect
2,new_learn,50,107,A,65.55044571052272,89.02448916121074,3.277522285526136,1.3983934056922191,B,853,Incorrect
2,new_learn,50,108,B,56.83975518186076,42.798686937829586,2.841987759093038,0.6722802023358744,B,900,Correct
2,new_learn,50,109,B,46.48022101273742,18.40937685472777,2.3240110506368707,0.2891738154198937,B,6099,Correct
2,new_learn,50,110,A,24.65622386015491,47.74709843695028,1.2328111930077454,0.7500096683987585,B,2297,Incorrect
2,new_learn,50,111,A,58.06729605738337,79.77296876037674,2.9033648028691688,1.2530708630632383,B,2775,Incorrect
2,new_learn,50,112,A,42.246296669432255,71.80738344148553,2.1123148334716126,1.1279477414663814,B,2512,Incorrect
2,new_learn,50,113,A,23.43017490948297,48.68400911962428,1.1715087454741486,0.7647266269875507,A,3103,Correct
2,new_learn,50,114,B,63.00290855418249,31.30190983418975,3.1501454277091243,0.4916892498921031,B,3583,Correct
2,new_learn,50,115,A,51.348575810565336,77.65325629565548,2.5674287905282664,1.219774497528783,B,9333,Incorrect
2,new_learn,50,116,A,61.080380707638554,85.93037666217828,3.0540190353819274,1.3497912002105155,A,1960,Correct
2,new_learn,50,117,A,43.767229962577524,61.26819438539172,2.188361498128876,0.9623985468992902,A,1659,Correct
2,new_learn,50,118,A,17.000910315257315,47.10230564090193,0.8500455157628657,0.739881286842993,A,3217,Correct
2,new_learn,50,119,B,76.75565370601778,62.00507626902329,3.8377826853008887,0.9739734604601921,B,1737,Correct
2,new_learn,50,120,B,59.99499127228426,29.91305726784457,2.9997495636142126,0.46987320479535644,B,7484,Correct
2,new_learn,50,121,A,19.63298687196524,46.206264675133035,0.9816493435982621,0.7258063082661175,100,1945,Incorrect
2,new_learn,50,122,A,57.946594049464295,75.3178931929425,2.8973297024732148,1.1830906996940445,B,1231,Incorrect
2,new_learn,50,123,A,49.83973997914349,69.36903589272765,2.491986998957174,1.0896462677359995,A,1276,Correct
2,new_learn,50,124,B,73.69687303483256,48.24948645728696,3.684843651741628,0.7579011609684646,107,2069,Incorrect
2,new_learn,50,125,B,65.44520892213403,35.77551003809609,3.2722604461067015,0.5619603975705528,B,1045,Correct
2,new_learn,50,126,B,66.38622526262395,34.87699067695721,3.3193112631311976,0.5478464884502424,B,1029,Correct
2,new_learn,50,127,A,26.477372529742418,48.570719573051264,1.323868626487121,0.7629470789513391,A,1001,Correct
2,new_learn,50,128,A,32.64648309844586,50.147139465608674,1.632324154922293,0.787709424718495,A,530,Correct
2,new_learn,50,129,B,73.826516536627,43.828014772337106,3.6913258268313496,0.6884488461509959,A,3422,Incorrect
2,new_learn,50,130,A,46.08118779980163,55.63257325638449,2.3040593899900816,0.8738744172127675,B,725,Incorrect
2,new_learn,50,131,A,28.039649683561514,52.9121692657452,1.4019824841780757,0.8311424112538238,B,1215,Incorrect
2,new_learn,50,132,B,64.09458084675023,47.1112219501826,3.204729042337511,0.7400213439016595,A,1995,Incorrect
2,new_learn,50,133,B,74.47793179477318,56.74648574071155,3.7238965897386596,0.8913717136002869,107,2100,Incorrect
2,new_learn,50,134,B,59.13449936148385,47.507675533169504,2.9567249680741923,0.7462488222206644,B,847,Correct
2,new_learn,50,135,A,48.67522177336277,76.03561217322729,2.4337610886681387,1.1943646030730675,B,1312,Incorrect
2,new_learn,50,136,A,43.85430285004726,63.119031687260545,2.192715142502363,0.9914714312519954,A,1041,Correct
2,new_learn,50,137,B,62.86245750336673,50.508994021759634,3.1431228751683364,0.7933934227948543,A,1567,Incorrect
2,new_learn,50,138,B,68.43649090618213,47.02277364264547,3.4218245453091067,0.7386320011357539,B,584,Correct
2,new_learn,50,139,A,19.14560805337098,36.842640549832566,0.9572804026685491,0.578722844451017,A,1084,Correct
2,new_learn,50,140,A,46.86089802523549,71.08679556739705,2.3430449012617744,1.11662877360887,A,1361,Correct
2,new_learn,50,141,A,66.70431714413276,80.3667350733821,3.335215857206638,1.262397722497672,A,1192,Correct
2,new_learn,50,142,A,34.988161707874866,60.94129705333408,1.7494080853937433,0.9572636556149383,B,4198,Incorrect
2,new_learn,50,143,B,49.42892940991697,41.29025813157266,2.4714464704958483,0.6485858580548745,B,2161,Correct
2,new_learn,50,144,A,39.526029537501735,64.91160768488061,1.9763014768750866,1.0196291491776184,B,799,Incorrect
2,new_learn,50,145,A,61.39737766672599,79.77220614023258,3.0698688833362997,1.2530588838540264,B,1522,Incorrect
2,new_learn,50,146,A,22.85969669751263,43.501936545914575,1.1429848348756315,0.6833268213478729,A,746,Correct
2,new_learn,50,147,A,43.38074951740911,63.74475369897956,2.1690374758704554,1.0013002496280248,A,8558,Correct
2,new_learn,50,148,B,71.55037730641568,41.92320332555149,3.577518865320784,0.6585281379125187,B,1156,Correct
2,new_learn,50,149,A,30.7640873931608,49.41864127809282,1.5382043696580399,0.7762662019482286,B,1787,Incorrect
2,new_learn,50,150,B,53.208666237055375,37.269581563071,2.6604333118527688,0.5854292182045473,B,1155,Correct
2,new_learn,50,151,A,56.09864258915235,70.81959012941066,2.8049321294576175,1.1124315204039839,A,929,Correct
2,new_learn,50,152,A,41.651525371367875,70.06197771618923,2.0825762685683937,1.1005309724457595,A,722,Correct
2,new_learn,50,153,B,61.20737934277278,28.754844561011957,3.0603689671386394,0.4516800421399578,B,1314,Correct
2,new_learn,50,154,B,53.941643563515925,32.5458079809891,2.6970821781757963,0.5112283562910971,B,836,Correct
2,new_learn,50,155,A,43.02432564671481,53.66269877389852,2.1512162823357404,0.8429317011994081,A,1074,Correct
2,new_learn,50,156,B,64.17954580038695,45.27746344161126,3.2089772900193476,0.7112167326067319,A,1037,Incorrect
2,new_learn,50,157,A,60.07654391867247,82.75338693505981,3.003827195933624,1.2998871622742871,A,902,Correct
2,new_learn,50,158,A,33.594010561800985,46.7659519255414,1.6797005280900492,0.7345978550370715,B,1642,Incorrect
2,new_learn,50,159,A,66.41888207559597,80.2628758740276,3.320944103779799,1.2607663060091727,A,1198,Correct
2,new_learn,50,160,B,52.20756326170142,42.17033210024543,2.610378163085071,0.6624100276278645,A,704,Incorrect
2,new_learn,50,161,A,44.66374776025799,67.27883699486677,2.2331873880128996,1.0568135002256929,A,1674,Correct
2,new_learn,50,162,A,48.630814455915804,79.21553620006297,2.4315407227957904,1.2443147328814708,A,3964,Correct
2,new_learn,50,163,A,53.54902644003424,81.83298986393478,2.677451322001712,1.2854295988891276,A,663,Correct
2,new_learn,50,164,B,45.46350279543394,31.216470905327817,2.273175139771697,0.490347178335887,B,706,Correct
2,new_learn,50,165,B,41.152118549530854,26.83056363281249,2.057605927476543,0.4214535080025859,B,678,Correct
2,new_learn,50,166,A,32.60756140596211,57.4057430417092,1.6303780702981054,0.9017273030684851,A,1595,Correct
2,new_learn,50,167,B,71.61628197583332,41.64927716473916,3.5808140987916657,0.6542253158403483,B,1422,Correct
2,new_learn,50,168,A,30.31254681734988,40.44513181654608,1.515627340867494,0.6353106449416599,A,1892,Correct
2,new_learn,50,169,B,46.72309992137933,36.29525207864464,2.3361549960689665,0.5701244864522982,A,1160,Incorrect
2,new_learn,50,170,A,50.841197733134265,74.65995846538165,2.5420598866567135,1.1727558851608104,A,941,Correct
2,new_learn,50,171,B,72.7761440536577,48.67358875995943,3.6388072026828855,0.7645629443606964,B,1049,Correct
2,new_learn,50,172,A,47.688415392291994,63.74932602892442,2.3844207696145996,1.001372071618848,A,1026,Correct
2,new_learn,50,173,B,57.05939838974996,48.307502989569585,2.852969919487498,0.758812482526494,B,1234,Correct
2,new_learn,50,174,B,46.973028407213,37.303963995747935,2.34865142036065,0.5859692961940992,A,1161,Incorrect
2,new_learn,50,175,A,28.798348655405768,40.94773738417207,1.4399174327702884,0.6432055547361957,A,1059,Correct
2,new_learn,50,176,A,41.11305048326688,49.84850979944176,2.055652524163344,0.7830185608916251,100,21756,Incorrect
2,new_learn,50,177,A,15.910516451686696,34.54388464780128,0.7955258225843349,0.5426140711799287,A,892,Correct
2,new_learn,50,178,A,49.08295235746496,64.57025411481685,2.454147617873248,1.0142671798376737,B,6043,Incorrect
2,new_learn,50,179,B,79.54679897492814,66.00978927534831,3.977339948746407,1.0368793452622227,B,2119,Correct
2,new_learn,50,180,A,17.855091680365383,32.61300033413475,0.8927545840182691,0.512283811306196,A,866,Correct
2,new_learn,50,181,B,78.0952860073621,60.03593939749919,3.9047643003681056,0.9430423308127274,B,1336,Correct
2,new_learn,50,182,A,17.71857172778496,47.51366278264504,0.885928586389248,0.7463428697155021,A,2705,Correct
2,new_learn,50,183,B,52.698641403523396,25.58163051420551,2.6349320701761703,0.4018353124513826,B,733,Correct
2,new_learn,50,184,B,47.83736695736661,26.784393939993546,2.3918683478683307,0.42072827616369346,B,1005,Correct
2,new_learn,50,185,A,41.85148198599992,52.35044313077545,2.092574099299996,0.8223188377590721,107,1500,Incorrect
2,new_learn,50,186,B,45.217765794812514,33.05430347096714,2.2608882897406257,0.5192157847695898,B,2583,Correct
2,new_learn,50,187,B,73.0608953794723,56.959212926134214,3.653044768973615,0.8947132244150001,A,1450,Incorrect
2,new_learn,50,188,B,74.7499199467985,50.74230488912863,3.7374959973399253,0.7970582613294999,B,918,Correct
2,new_learn,50,189,B,61.545428455812456,47.67055833380364,3.0772714227906226,0.748807379270006,B,12236,Correct
2,new_learn,50,190,B,36.43930442036374,14.370544443114639,1.821965221018187,0.22573198425287286,B,1567,Correct
2,new_learn,50,191,B,77.3919910451675,45.52815831680071,3.869599552258375,0.715154638497671,B,2168,Correct
2,new_learn,50,192,A,54.735798945224474,63.371298062689846,2.7367899472612236,0.9954340222109777,A,939,Correct
2,new_learn,50,193,B,59.029756622716356,47.19384014930047,2.9514878311358177,0.7413191075386668,B,1081,Correct
2,new_learn,50,194,A,67.92906464307913,80.91142997965318,3.3964532321539567,1.2709537700776168,A,825,Correct
2,new_learn,50,195,B,42.146802726225374,34.33426827448129,2.1073401363112687,0.5393214248874576,A,2810,Incorrect
2,new_learn,50,196,A,31.6254812775406,53.16846095894592,1.58127406387703,0.835168231756501,B,1048,Incorrect
2,new_learn,50,197,B,36.425676135086604,20.139106298379286,1.8212838067543302,0.31634434198426153,A,1035,Incorrect
2,new_learn,50,198,A,64.06932341143761,82.41419954116418,3.2034661705718803,1.2945592191500233,A,740,Correct
2,new_learn,50,199,B,50.6342313534921,30.683252318757496,2.531711567674605,0.4819714003642527,B,1559,Correct
2,new_learn,50,200,B,85.79588468915938,56.744054163458365,4.289794234457969,0.8913335184741106,A,772,Incorrect
2,new_learn,50,201,B,77.02614807293173,55.23909099293085,3.8513074036465866,0.8676936122718483,B,1176,Correct
2,new_learn,50,202,A,56.233723670264894,64.83908662237843,2.811686183513245,1.0184899909916816,A,947,Correct
2,new_learn,50,203,B,68.12216246627953,47.971637918081875,3.4061081233139765,0.7535367263205779,B,876,Correct
2,new_learn,50,204,A,51.215380144400314,61.099666313421594,2.5607690072200158,0.9597513141351652,A,1288,Correct
2,new_learn,50,205,A,40.4578444103233,64.38579114716698,2.022892220516165,1.0113696423175327,B,802,Incorrect
2,new_learn,50,206,A,66.82287812686758,83.7955790458583,3.3411439063433788,1.3162578776688565,B,1581,Incorrect
2,new_learn,50,207,B,60.24083210432622,27.280414384089504,3.0120416052163113,0.42851974707970447,B,922,Correct
2,new_learn,50,208,B,68.16957863424737,40.86161973652453,3.4084789317123687,0.6418528218902259,A,704,Incorrect
2,new_learn,50,209,B,83.74860673957832,64.62561970753757,4.187430336978917,1.0151368605344389,B,814,Correct
2,new_learn,50,210,A,45.3634933420427,73.78368205450218,2.2681746671021354,1.1589913674861456,A,9893,Correct
2,new_learn,50,211,B,72.45171102481538,41.95343240389303,3.622585551240769,0.6590029751647316,B,1553,Correct
2,new_learn,50,212,B,73.60418290001617,58.18168875005764,3.6802091450008083,0.9139158297531449,107,2282,Incorrect
2,new_learn,50,213,B,83.79910404487732,55.347486667299435,4.189955202243866,0.8693962875432346,B,922,Correct
2,new_learn,50,214,B,65.60882911928597,44.27571186161907,3.280441455964299,0.6954812555846047,B,1023,Correct
2,new_learn,50,215,B,45.82891600543567,19.759672980314708,2.2914458002717835,0.3103842173614671,107,1260,Incorrect
2,new_learn,50,216,B,72.11879950245972,46.64472218364086,3.6059399751229866,0.7326935827043148,B,820,Correct
2,new_learn,50,217,A,20.30146998145445,33.26835698514063,1.0150734990727224,0.5225781295076024,A,1393,Correct
2,new_learn,50,218,B,40.38896734091399,29.40830862996687,2.0194483670456997,0.46194463173202616,A,604,Incorrect
2,new_learn,50,219,A,45.8316564704629,69.5528212252019,2.2915828235231452,1.0925331609876925,A,698,Correct
2,new_learn,50,220,A,18.66776316090517,49.32688989665973,0.9333881580452585,0.7748249746188939,A,580,Correct
2,new_learn,50,221,A,27.274616926474646,50.72771289541552,1.3637308463237323,0.7968290508282482,A,514,Correct
2,new_learn,50,222,A,51.92663540904974,62.52154388569163,2.5963317704524864,0.9820861148119034,B,526,Incorrect
2,new_learn,50,223,B,78.16456679813936,52.25283299686717,3.908228339906968,0.8207855813610612,B,653,Correct
2,new_learn,50,224,B,42.864032844501445,27.70144508569338,2.143201642225072,0.4351332818751771,A,759,Incorrect
2,new_learn,50,225,A,30.10936129049484,56.23656492304819,1.5054680645247418,0.8833618961268682,A,827,Correct
2,new_learn,50,226,B,59.4465034516766,31.30199279696076,2.97232517258383,0.49169055306826276,B,677,Correct
2,new_learn,50,227,A,23.535725087386144,53.79237908599286,1.176786254369307,0.8449687147783619,B,797,Incorrect
2,new_learn,50,228,A,61.168763445869814,87.19491362642972,3.0584381722934904,1.3696545003959408,A,831,Correct
2,new_learn,50,229,A,22.880040785422153,35.99352508852537,1.1440020392711077,0.5653849699745561,A,665,Correct
2,new_learn,50,230,A,34.0745715280367,52.678962056645275,1.703728576401835,0.8274792009794613,A,1821,Correct
2,new_learn,50,231,B,40.1822562094724,28.84424276130143,2.00911281047362,0.45308430578632575,B,875,Correct
2,new_learn,50,232,B,51.411531918270306,27.756661168054222,2.5705765959135154,0.43600061406870116,B,790,Correct
2,new_learn,50,233,B,46.58769527331815,31.36049234447255,2.3293847636659075,0.49260946181176957,B,583,Correct
2,new_learn,50,234,A,27.774158808859806,56.48021980851696,1.3887079404429903,0.887189218117868,B,1819,Incorrect
2,new_learn,50,235,A,24.17577129057432,55.44548863630822,1.208788564528716,0.8709356988726111,A,474,Correct
2,new_learn,50,236,B,31.99321739750619,18.480129483936143,1.5996608698753096,0.2902851951206096,B,807,Correct
2,new_learn,50,237,B,67.24720053757781,54.896995527993134,3.3623600268788905,0.8623199892744747,B,1118,Correct
2,new_learn,50,238,A,45.34492675791627,68.69790287790246,2.267246337895813,1.0791041349912174,A,768,Correct
2,new_learn,50,239,A,32.03758041919012,50.16320621418494,1.6018790209595062,0.7879618006149663,B,775,Incorrect
2,new_learn,50,240,A,51.2584105273005,64.28004123583929,2.562920526365025,1.0097085265948085,A,3060,Correct
2,new_learn,50,241,A,63.70774257513018,86.09842091976388,3.185387128756509,1.3524308332360597,A,679,Correct
2,new_learn,50,242,A,27.17893045700527,40.36111070634715,1.3589465228502635,0.6339908444289226,B,799,Incorrect
2,new_learn,50,243,B,33.75971218079195,18.295005084618726,1.6879856090395975,0.2873772678561305,B,1946,Correct
2,new_learn,50,244,B,73.70365076082729,55.21752229214645,3.685182538041364,0.8673548119121895,B,1153,Correct
2,new_learn,50,245,A,26.45392068351054,46.879801027595335,1.322696034175527,0.7363861925502236,B,3564,Incorrect
2,new_learn,50,246,B,82.35010493634563,56.79796596000716,4.117505246817282,0.8921803629940082,B,1313,Correct
2,new_learn,50,247,A,28.00289007196448,56.68293682091316,1.400144503598224,0.8903734895023758,A,1282,Correct
2,new_learn,50,248,A,24.459356509540104,42.138923834995566,1.222967825477005,0.6619166677510095,B,2207,Incorrect
2,new_learn,50,249,B,40.93780716343767,15.473141521032893,2.0468903581718836,0.24305153865216067,B,859,Correct
2,new_learn,50,250,B,47.1697690935336,34.08255513822791,2.3584884546766802,0.5353675241891294,B,1706,Correct
2,new_learn,50,251,B,61.865423477465754,45.94686195735686,3.093271173873288,0.7217316199036833,B,3300,Correct
2,new_learn,50,252,A,54.60456855093484,82.5784765097378,2.7302284275467423,1.297139675738148,A,1313,Correct
2,new_learn,50,253,B,61.38448502729603,30.488470377492703,3.0692242513648016,0.4789117727856055,B,769,Correct
2,new_learn,50,254,B,78.14169952275958,56.31991669675301,3.907084976137979,0.884671182726542,B,1800,Correct
2,new_learn,50,255,B,66.7686987779704,50.31879896418273,3.3384349388985197,0.7904058458166909,B,1651,Correct
2,new_learn,50,256,B,81.85717311045964,58.350144145648756,4.092858655522982,0.9165619209193779,B,1510,Correct
2,new_learn,50,257,A,57.82654039934668,76.36965781340034,2.8913270199673344,1.1996117797187242,A,916,Correct
2,new_learn,50,258,B,38.73994380160339,22.177317276901956,1.9369971900801692,0.3483604851672259,B,1097,Correct
2,new_learn,50,259,A,26.54211473898747,48.285509728204985,1.3271057369493735,0.7584670131848363,A,486,Correct
2,new_learn,50,260,A,62.29642849709601,83.59747238401873,3.1148214248548003,1.3131460255015444,A,748,Correct
2,new_learn,50,261,B,64.19573756727193,52.176165213081454,3.2097868783635963,0.8195812866295201,B,1017,Correct
2,new_learn,50,262,B,53.80073233079258,40.925572308805265,2.6900366165396288,0.6428573865465024,B,710,Correct
2,new_learn,50,263,A,56.64067161290268,67.8457993249083,2.8320335806451338,1.0657193236802962,A,1428,Correct
2,new_learn,50,264,A,58.235103002828644,82.12074141948497,2.9117551501414325,1.2899495897540052,A,857,Correct
2,new_learn,50,265,A,37.97362319915269,55.20328733296031,1.8986811599576345,0.867131209696173,B,1881,Incorrect
2,new_learn,50,266,A,44.68420678192501,57.90213441530026,2.2342103390962507,0.9095246005313802,A,1114,Correct
2,new_learn,50,267,A,66.96523976455975,84.80128662748918,3.348261988227988,1.332055495419412,A,849,Correct
2,new_learn,50,268,A,47.137562791414474,78.95652934930891,2.3568781395707235,1.2402462627836788,A,919,Correct
2,new_learn,50,269,B,73.63094499971612,50.76066965649551,3.681547249985806,0.797346734420723,B,944,Correct
2,new_learn,50,270,B,66.9817636627976,38.31438935918659,3.34908818313988,0.6018410206879977,B,904,Correct
2,new_learn,50,271,B,65.47988037270656,36.55606285129879,3.2739940186353285,0.5742212924890352,B,1051,Correct
2,new_learn,50,272,A,47.7258465728662,56.260358152149124,2.38629232864331,0.8837356392956116,B,1635,Incorrect
2,new_learn,50,273,B,51.920006181558335,28.794639408871923,2.5960003090779167,0.4523051381483959,B,796,Correct
2,new_learn,50,274,B,38.94153577150924,27.922595938878878,1.9470767885754616,0.4386071113536904,B,1473,Correct
2,new_learn,50,275,B,74.6820149527581,59.582640099797246,3.7341007476379047,0.9359219220950382,B,1495,Correct
2,new_learn,50,276,B,64.36798387162624,50.43281973639448,3.2183991935813117,0.7921968799183761,B,719,Correct
2,new_learn,50,277,A,60.86337460870623,82.91204101285527,3.0431687304353114,1.3023792947006085,A,1118,Correct
2,new_learn,50,278,B,79.35272038376924,66.63095850996496,3.9676360191884616,1.046636648782761,B,937,Correct
2,new_learn,50,279,A,59.74961120463577,82.57952526862636,2.987480560231788,1.2971561496042463,A,676,Correct
2,new_learn,50,280,A,13.336753722311467,30.534043154356542,0.6668376861155734,0.47962762829060107,A,892,Correct
2,new_learn,50,281,B,52.320913340724914,34.45466067305889,2.616045667036246,0.5412125442620548,B,1811,Correct
2,new_learn,50,282,A,40.82172640699419,68.26738865140926,2.0410863203497094,1.0723416333351328,A,931,Correct
2,new_learn,50,283,B,69.30833280750619,58.32582273002609,3.4654166403753095,0.9161798810161527,B,876,Correct
2,new_learn,50,284,B,40.41231346227852,19.83057640134847,2.0206156731139258,0.3114979656946374,B,817,Correct
2,new_learn,50,285,B,52.866200374733914,21.328140581112507,2.6433100187366954,0.335021648821767,B,680,Correct
2,new_learn,50,286,B,78.77966464225506,49.299839443525336,3.938983232112753,0.7744000670946776,B,882,Correct
2,new_learn,50,287,A,40.331608304153015,47.29513022834355,2.0165804152076507,0.7429101683796833,B,2078,Incorrect
2,new_learn,50,288,A,55.99084572752261,79.31190686413387,2.79954228637613,1.2458285197328043,A,994,Correct
2,new_learn,50,289,B,86.03666132520118,64.90970490442933,4.301833066260059,1.0195992603721828,B,902,Correct
2,new_learn,50,290,A,47.688280265279445,67.9728060607499,2.384414013263972,1.0677143408216783,A,1188,Correct
2,new_learn,50,291,A,45.58709590168996,52.21658272955498,2.2793547950844983,0.820216163493668,B,640,Incorrect
2,new_learn,50,292,B,53.454438924707084,43.63125153997176,2.672721946235354,0.6853580965245182,A,486,Incorrect
2,new_learn,50,293,B,66.33143496885084,33.47980586180944,3.316571748442542,0.5258995606953651,B,785,Correct
2,new_learn,50,294,A,24.046406946071798,54.52776685203445,1.20232034730359,0.8565201587950425,B,1067,Incorrect
2,new_learn,50,295,B,70.6021123165723,47.909880324180286,3.530105615828615,0.7525666403040547,B,537,Correct
2,new_learn,50,296,A,30.215149625713092,45.87153858513631,1.5107574812856546,0.7205484431396249,A,971,Correct
2,new_learn,50,297,A,51.877222722386534,77.26204426887038,2.593861136119327,1.213629353382063,A,1382,Correct
2,new_learn,50,298,A,30.50208987260652,59.83592587640236,1.525104493630326,0.9399005257702453,A,1335,Correct
2,new_learn,50,299,A,53.35798228992604,73.89173522947391,2.667899114496302,1.1606886627895867,A,948,Correct
2,new_learn,50,300,B,63.67421717019558,51.88201960550114,3.1837108585097793,0.8149608582302201,B,1432,Correct
2,new_learn,50,301,A,52.90509605322791,68.64415600243176,2.6452548026613956,1.0782598810455564,B,843,Correct
2,new_learn,50,302,B,55.70158623265868,39.97442281495311,2.7850793116329338,0.6279167652347445,B,612,Incorrect
2,new_learn,50,303,B,52.33516045650036,33.381881153131744,2.6167580228250182,0.5243613629684313,B,799,Correct
2,new_learn,50,304,A,48.11817075033324,74.29951600086888,2.405908537516662,1.1670940681680348,B,1001,Correct
2,new_learn,50,305,B,65.40632090564017,38.92017227030344,3.270316045282009,0.6113566364041724,B,717,Correct
2,new_learn,50,306,A,37.60859340280826,56.357829265205034,1.8804296701404128,0.8852667119591798,B,1348,Incorrect
2,new_learn,50,307,B,38.584441021328345,19.66854129318649,1.9292220510664173,0.30895272416751085,B,589,Correct
2,new_learn,50,308,B,81.55749046658521,56.75985598489292,4.07787452332926,0.8915817329047714,B,618,Correct
2,new_learn,50,309,B,41.49087030857948,21.443260963486303,2.074543515428974,0.3368299555594868,B,1501,Incorrect
2,new_learn,50,310,A,22.271988900898076,36.352078778726394,1.1135994450449038,0.5710171181698213,A,1772,Correct
2,new_learn,50,311,A,64.31261249939739,81.02866656091759,3.2156306249698696,1.272795317989778,A,1147,Correct
2,new_learn,50,312,A,21.389492274614366,52.251849131935934,1.0694746137307183,0.8207701268468608,A,750,Correct
2,new_learn,50,313,A,16.227479980102082,31.483394700143307,0.8113739990051042,0.4945400075001902,A,495,Incorrect
2,new_learn,50,314,B,36.35481332077086,13.32046587711912,1.817740666038543,0.2092373887097547,B,1107,Incorrect
2,new_learn,50,315,A,69.02277625289693,88.03439803567869,3.451138812644847,1.3828410906604394,A,895,Correct
2,new_learn,50,316,B,66.09046465127105,45.885858112360474,3.3045232325635525,0.7207733737472765,B,680,Correct
2,new_learn,50,317,B,62.67827334677612,37.36681208473186,3.133913667338806,0.5869565116673195,B,1032,Incorrect
2,new_learn,50,318,B,54.902774220041415,28.911991478715493,2.745138711002071,0.45414850015091646,B,2019,Correct
2,new_learn,50,319,A,61.435728203788514,84.21005530521026,3.071786410189426,1.3227684555261936,A,875,Correct
2,new_learn,50,320,A,42.85608802207053,64.76156374921902,2.1428044011035268,1.0172722645476677,B,746,Correct
2,new_learn,50,321,A,32.070670523810406,47.44172282492059,1.6035335261905204,0.7452128395020685,B,749,Incorrect
2,new_learn,50,322,A,27.407443584543593,45.531092513906394,1.3703721792271795,0.7152007287580279,A,1002,Correct
2,new_learn,50,323,A,18.378676116998534,40.13002040571752,0.9189338058499267,0.6303608864750531,A,818,Incorrect
2,new_learn,50,324,A,22.200034198494077,36.14086526963135,1.110001709924704,0.5676993841272616,B,720,Incorrect
2,new_learn,50,325,B,47.584846015852364,22.207027880161117,2.379242300792618,0.3488271782318894,B,3616,Correct
2,new_learn,50,326,B,68.49406165872611,40.66288548205539,3.4247030829363054,0.6387311115209412,B,1999,Correct
2,new_learn,50,327,A,29.833199827130485,43.1999374858646,1.4916599913565245,0.6785830312056527,B,2350,Correct
2,new_learn,50,328,A,38.40847614445287,63.39277692649837,1.9204238072226434,0.9957714114147191,B,4549,Correct
2,new_learn,50,329,A,41.66819434288134,48.84826138102964,2.0834097171440673,0.7673066954763835,B,839,Correct
2,new_learn,50,330,A,31.42132257959586,47.67337072424738,1.571066128979793,0.7488515561957914,B,884,Incorrect
2,new_learn,50,331,A,55.55535997115352,78.10922641912902,2.777767998557676,1.2269368594795875,A,887,Correct
2,new_learn,50,332,B,60.993921993182546,34.20074242865514,3.0496960996591276,0.5372240058058987,B,873,Correct
2,new_learn,50,333,B,61.5765605173908,48.37209106263663,3.0788280258695404,0.7598270296057786,B,650,Incorrect
2,new_learn,50,334,A,45.292636519189685,64.85445331917627,2.264631825959484,1.0187313705005319,A,614,Correct
2,new_learn,50,335,B,75.63580020611235,64.41034611959782,3.7817900103056172,1.0117553509225217,B,1592,Correct
2,new_learn,50,336,A,21.18964192133573,35.14831679983442,1.0594820960667866,0.5521084692220325,A,769,Correct
2,new_learn,50,337,A,18.527650230537404,34.10219213052336,0.9263825115268702,0.5356759813427993,A,723,Incorrect
2,new_learn,50,338,B,67.21056876086949,51.243633281409785,3.3605284380434743,0.8049331093006321,B,1606,Correct
2,new_learn,50,339,B,57.915249667162726,26.76263449891279,2.895762483358136,0.4203864796624658,B,1301,Correct
2,new_learn,50,340,A,19.7054092090059,45.82482780359485,0.985270460450295,0.7198147118989543,A,806,Correct
2,new_learn,50,341,B,47.85869110361166,21.45485053359309,2.3929345551805827,0.3370120041010155,B,923,Incorrect
2,new_learn,50,342,B,63.97740545164191,32.67941898550444,3.198870272582095,0.5133271130422178,B,1114,Correct
2,new_learn,50,343,B,65.92661301366293,57.54516255911788,3.2963306506831462,0.9039172997267757,B,863,Correct
2,new_learn,50,344,A,22.812870129321077,34.72448468324946,1.1406435064660538,0.5454509299029389,B,1609,Incorrect
2,new_learn,50,345,B,35.65687221594041,16.223286562142714,1.7828436107970205,0.2548347894035478,B,840,Correct
2,new_learn,50,346,B,72.37091506050552,58.99409779360613,3.618545753025276,0.9266771211677542,B,1427,Correct
2,new_learn,50,347,B,77.95656447804525,45.877385223829954,3.8978282239022626,0.7206402819254655,B,898,Incorrect
2,new_learn,50,348,A,42.202898680254265,53.17930796622008,2.1101449340127134,0.8353386161483308,B,4816,Incorrect
2,new_learn,50,349,A,17.44929838297123,34.20860820303612,0.8724649191485614,0.5373475611009491,A,1587,Correct
2,new_learn,50,350,B,57.396345410813616,48.13844160357611,2.869817270540681,0.7561568724852799,B,2162,Correct
2,new_learn,50,351,B,76.32085927072404,56.12337500262612,3.8160429635362023,0.8815839130145763,B,941,Incorrect
2,new_learn,50,352,B,45.53236984664083,37.25480449493945,2.276618492332042,0.585197100561129,A,1675,Incorrect
2,new_learn,50,353,A,14.450106792207194,40.48812191887911,0.7225053396103597,0.6359859318899924,A,667,Correct
2,new_learn,50,354,A,14.90173404621185,32.8658045105838,0.7450867023105926,0.5162548500238417,A,956,Correct
2,new_learn,50,355,B,50.36452324882603,41.26337078997546,2.5182261624413016,0.6481635126806928,B,1261,Incorrect
2,new_learn,50,356,A,44.139307070277724,67.60329040346349,2.206965353513886,1.0619100024500912,A,963,Incorrect
2,new_learn,50,357,B,59.04728453498066,36.160129939857995,2.9523642267490335,0.5680019928595511,B,655,Incorrect
2,new_learn,50,358,A,34.390724000653854,63.15926838655457,1.7195362000326926,0.9921034678465296,B,2105,Incorrect
2,new_learn,50,359,B,34.33810191518425,21.772653892094837,1.7169050957592122,0.3420040475827918,B,2599,Incorrect
2,new_learn,50,360,A,49.485850966477656,59.56798556564164,2.4742925483238825,0.9356917292108131,B,1490,Correct
2,new_learn,50,361,A,41.7996740609403,68.93082257184315,2.089983703047015,1.0827628289880198,A,1736,Incorrect
2,new_learn,50,362,A,55.67603648229898,84.2711428412782,2.783801824114949,1.3237280162988783,B,714,Incorrect
2,new_learn,50,363,B,64.64852807723531,52.8274160398681,3.2324264038617656,0.8298111106949062,B,631,Incorrect
2,new_learn,50,364,B,85.7511755473117,65.82380363848,4.287558777365586,1.0339578897099293,A,1071,Correct
2,new_learn,50,365,B,44.54797915119043,34.66887766389927,2.2273989575595214,0.5445774568855462,B,813,Correct
2,new_learn,50,366,A,42.875877491301075,51.665255935123,2.1437938745650538,0.8115559424580943,B,2274,Correct
2,new_learn,50,367,B,71.3630330408936,59.694368625253404,3.56815165204468,0.9376769496688856,B,2520,Incorrect
2,new_learn,50,368,A,40.99478331106457,67.59771284274608,2.0497391655532287,1.0618223903312174,B,1408,Correct
2,new_learn,50,369,A,22.327139680179435,41.349294488094266,1.1163569840089718,0.6495131989745894,A,2037,Incorrect
2,new_learn,50,370,A,34.57173655887774,56.42284465248408,1.728586827943887,0.8862879712744106,B,2722,Incorrect
2,new_learn,50,371,A,61.423792790530364,75.40837552310447,3.0711896395265184,1.1845119928126269,A,1183,Incorrect
2,new_learn,50,372,A,36.52055632257209,56.84172592825314,1.8260278161286043,0.8928677429678227,B,988,Incorrect
2,new_learn,50,373,A,53.66398628195024,69.00491340900676,2.6831993140975117,1.0839266451366774,A,1922,Correct
2,new_learn,50,374,A,26.11459787372114,42.46011449730025,1.305729893686057,0.6669619188764997,B,1480,Correct
2,new_learn,50,375,A,24.06619297029139,42.75576392689261,1.2033096485145693,0.6716059692567266,B,1103,Incorrect
2,new_learn,50,376,A,24.181084753131344,38.35478556518213,1.2090542376565672,0.60247556280794,A,719,Correct
2,new_learn,50,377,B,67.52630646063339,50.54762618197691,3.37631532303167,0.7940002553485087,B,11989,Correct
2,new_learn,50,378,A,36.56170751042556,58.154967758676285,1.828085375521278,0.9134960974020433,B,1235,Incorrect
2,new_learn,50,379,A,27.838679667261047,51.21672555834425,1.3919339833630522,0.8045104437750946,B,1349,Correct
2,new_learn,50,380,B,41.02358279561827,22.181130723732014,2.0511791397809134,0.3484203866499568,B,1003,Correct
2,new_learn,50,381,B,76.3344536266839,50.99665542416746,3.816722681334195,0.8010535901910728,B,1374,Incorrect
2,new_learn,50,382,B,62.63219202572694,50.48306164724302,3.1316096012863466,0.7929860780084966,B,5670,Incorrect
2,new_learn,50,383,B,30.380127114447117,13.129141053039728,1.5190063557223559,0.2062320654008688,B,3175,Incorrect
2,new_learn,50,384,B,83.40177922546678,53.92163873983971,4.170088961273339,0.8469991206730162,B,778,Correct
2,new_learn,50,385,A,39.577560197813526,50.98414095385394,1.9788780098906762,0.8008570133510702,A,3097,Incorrect
2,new_learn,50,386,B,81.35069563522065,67.1559810076856,4.067534781761032,1.0548836828918036,A,2063,Correct
2,new_learn,50,387,A,55.03482939099118,74.44318673716836,2.751741469549559,1.1693508428165063,A,875,Correct
2,new_learn,50,388,B,52.955895514932884,26.177743395569728,2.6477947757466445,0.4111990316954029,B,2082,Correct
2,new_learn,50,389,B,60.18368492067998,44.950631959499084,3.009184246033999,0.7060828756909044,B,780,Incorrect
2,new_learn,50,390,B,60.24847513530957,34.30031635974672,3.0124237567654784,0.5387881094579305,A,1955,Correct
2,new_learn,50,391,B,83.569751227042,60.144018499652056,4.1784875613521,0.9447400333793775,B,2260,Correct
2,new_learn,50,392,A,67.05935499951131,78.8751484043147,3.3529677499755657,1.2389679338889985,A,3521,Incorrect
2,new_learn,50,393,B,61.533035909565136,54.134426369863796,3.076651795478257,0.8503415809493083,B,1660,Incorrect
2,new_learn,50,394,B,62.83610896062114,46.08349516575452,3.141805448031057,0.7238778493223758,B,1147,Incorrect
2,new_learn,50,395,A,41.988489311969765,58.720656977216315,2.099424465598488,0.9223819228679451,B,1181,Incorrect
2,new_learn,50,396,A,62.261561719145945,71.6264079283052,3.1130780859572975,1.1251049847529468,A,2666,Incorrect
2,new_learn,50,397,B,77.00405746932472,60.666494368136654,3.850202873466236,0.9529470651299233,A,2626,Correct
2,new_learn,50,398,A,46.805781629614565,69.8944739979245,2.3402890814807282,1.0978998301920122,B,1587,Correct
2,new_learn,50,399,B,80.34491126875855,67.15336525261021,4.017245563437927,1.0548425947071616,B,1094,Correct
2,new_learn,50,400,A,35.48094142581472,57.480463259223875,1.774047071290736,0.9029010055005787,A,4333,Correct
2,new_learn,50,401,A,24.475392226235257,52.25621085422832,1.2237696113117629,0.8208386406204145,A,1015,Incorrect
2,new_learn,50,402,A,43.871187039253876,64.58827560475956,2.1935593519626937,1.0145502607397272,A,797,Correct
2,new_learn,50,403,A,35.111083582287655,56.73023245509058,1.7555541791143827,0.8911164075867691,B,3443,Incorrect
2,new_learn,50,404,A,51.46806801716377,70.13727726153947,2.5734034008581887,1.1017137749382142,B,867,Incorrect
2,new_learn,50,405,B,75.25118886736244,53.79442551253582,3.762559443368122,0.8450008599713293,B,1117,Incorrect
2,new_learn,50,406,A,23.583257321585364,47.63543944874548,1.1791628660792681,0.7482557331135011,A,1915,Incorrect
2,new_learn,50,407,A,46.02268642970099,66.63831452387052,2.3011343214850495,1.0467521967789881,A,761,Correct
2,new_learn,50,408,A,56.02074128863599,76.61964858073836,2.8010370644317995,1.2035386255093963,A,714,Correct
2,new_learn,50,409,B,32.99460284563075,10.286835124296115,1.6497301422815378,0.1615852282758906,B,730,Incorrect
2,new_learn,50,410,B,67.1737928897029,42.59606473380766,3.358689644485145,0.669097420197827,A,747,Correct
2,new_learn,50,411,B,50.982540102441206,39.553987470249716,2.54912700512206,0.6213125822835961,A,4410,Incorrect
2,new_learn,50,412,B,76.06859305274679,58.19323774668203,3.8034296526373397,0.9140972409679025,A,4685,Incorrect
2,new_learn,50,413,B,77.89003739436606,49.837558590115655,3.894501869718303,0.782846539697791,B,2148,Correct
2,new_learn,50,414,A,25.686660428761158,58.482298912896006,1.284333021438058,0.918637803148982,B,6698,Incorrect
2,new_learn,50,415,A,30.77542891709028,51.51368904643657,1.5387714458545139,0.8091751353379705,B,7787,Incorrect
2,new_learn,50,416,A,39.32048189968328,57.151709274057886,1.9660240949841639,0.8977369499773996,A,2324,Incorrect
2,new_learn,50,417,B,70.07172888677715,51.22239422601175,3.503586444338857,0.8045994869985937,A,914,Incorrect
2,new_learn,50,418,A,31.330187839971437,47.539039649521754,1.566509391998572,0.7467414886082572,A,1050,Correct
2,new_learn,50,419,B,66.68857768494918,56.76260772120024,3.3344288842474588,0.8916249570776098,B,1304,Incorrect
2,new_learn,50,420,A,34.76235345685415,65.85383167052983,1.7381176728427077,1.0344295689343768,A,2527,Correct
2,new_learn,50,421,B,36.31753522360458,11.73630057430622,1.815876761180229,0.18435337832281048,B,926,Correct
2,new_learn,50,422,A,64.13282090501889,88.28324526232988,3.2066410452509446,1.3867499737560074,A,954,Correct
2,new_learn,50,423,A,22.619606349460714,37.95791018785843,1.1309803174730357,0.5962414589589861,B,1485,Incorrect
2,new_learn,50,424,A,49.0203725080542,72.74498276974467,2.45101862540271,1.1426755172747296,A,1641,Correct
2,new_learn,50,425,B,74.49261366091083,46.618382273732955,3.7246306830455413,0.7322798363670004,B,3341,Correct
2,new_learn,50,426,B,51.38760767433122,24.341892765029407,2.569380383716561,0.38236155742543465,B,2003,Correct
2,new_learn,50,427,A,45.73700225521818,69.39885283190578,2.286850112760909,1.0901146311213723,B,1062,Correct
2,new_learn,50,428,B,39.804907221019555,23.179717562100933,1.9902453610509778,0.364106152026913,B,951,Correct
2,new_learn,50,429,A,65.62427659011487,83.26570519067458,3.2812138295057434,1.307934638614984,A,921,Incorrect
2,new_learn,50,430,B,31.791538172748094,14.782016550963274,1.5895769086374048,0.23219537300874474,107,1493,Incorrect
2,new_learn,50,431,B,42.57375821414806,25.210063692176263,2.128687910707403,0.3959987544593586,B,1984,Correct
2,new_learn,50,432,B,65.56925402813809,32.517022850286686,3.2784627014069043,0.5107762005153604,B,2597,Correct
2,new_learn,50,433,A,41.92984662990748,69.16854975488303,2.096492331495374,1.0864970388470032,A,1826,Correct
2,new_learn,50,434,A,45.16005235141397,54.53942152500518,2.2580026175706984,0.8567032299699665,B,7067,Incorrect
2,new_learn,50,435,A,49.10683796247162,78.31220857924286,2.455341898123581,1.2301252957947049,100,836,Incorrect
2,new_learn,50,436,A,21.438070937207673,48.65258192667813,1.0719035468603837,0.7642329697951378,107,1312,Incorrect
2,new_learn,50,437,A,49.79546481003425,75.56585649159065,2.4897732405017123,1.186985698081009,100,641,Correct
2,new_learn,50,438,A,50.472017971233065,75.80400876848807,2.523600898561653,1.190726585298692,A,783,Correct
2,new_learn,50,439,A,24.02184239522308,55.85746480686133,1.201092119761154,0.8774070054269298,B,1159,Correct
2,new_learn,50,440,B,58.09953156277078,30.727102628063967,2.904976578138539,0.4826601994121269,B,1665,Incorrect
2,new_learn,50,441,B,69.45052679435186,36.80944039029286,3.472526339717593,0.5782013375644774,A,844,Correct
2,new_learn,50,442,A,45.35638734547556,52.86504070838768,2.267819367273778,0.8304021176059806,B,1247,Correct
2,new_learn,50,443,B,48.52424559811786,35.99787939686855,2.4262122799058927,0.565453367290068,B,1709,Correct
2,new_learn,50,444,A,49.07451514552338,77.4141336860545,2.453725757276169,1.2160183683606347,A,826,Incorrect
2,new_learn,50,445,A,28.84612210985958,40.52584728103489,1.4423061054929789,0.6365785204930055,A,758,Incorrect
2,new_learn,50,446,B,43.34848304125762,30.570034924345087,2.167424152062881,0.48019298569152963,A,1100,Correct
2,new_learn,50,447,A,16.071473657646866,41.85725732757325,0.8035736828823432,0.6574922605986082,A,1148,Incorrect
2,new_learn,50,448,A,26.44568744074999,55.56444556292314,1.3222843720374993,0.8728042699063465,A,1086,Correct
2,new_learn,50,449,A,28.96007355332846,49.41095233794432,1.448003677666423,0.7761454243588064,A,892,Correct
2,new_learn,50,450,A,20.637437697126167,32.661118164203,1.0318718848563082,0.5130396444134415,A,678,Correct
2,new_learn,50,451,A,31.370999528502352,42.64163066103875,1.5685499764251176,0.6698131681090429,107,764,Incorrect
2,new_learn,50,452,A,15.54960285508227,31.971883719023594,0.7774801427541135,0.5022131750655582,100,659,Incorrect
2,new_learn,50,453,B,85.54239559858088,59.29808240511723,4.277119779929044,0.9314521002793923,100,631,Incorrect
2,new_learn,50,454,A,43.080569866316324,54.029214589740555,2.154028493315816,0.8486889181717769,107,602,Incorrect
2,new_learn,50,455,B,82.31457639144463,63.234004535508376,4.115728819572231,0.9932774205290839,100,1740,Incorrect
2,new_learn,50,456,A,17.734104233509512,36.04553198003394,0.8867052116754757,0.5662018923160529,A,954,Correct
2,new_learn,50,457,B,59.6910221673512,34.12193800420299,2.98455110836756,0.5359861488012524,B,901,Incorrect
2,new_learn,50,458,A,31.708692193500063,59.729834922838066,1.5854346096750032,0.9382340529685957,B,1677,Correct
2,new_learn,50,459,B,51.73904118467652,23.440001985879427,2.586952059233826,0.36819469019484485,B,1162,Correct
2,new_learn,50,460,B,65.3440601107412,34.500547723922075,3.26720300553706,0.5419333363714882,B,1039,Correct
2,new_learn,50,461,A,30.648160447639206,45.016821757914364,1.5324080223819605,0.7071225826131247,B,16086,Incorrect
2,new_learn,50,462,B,55.54902329953633,31.134511575788995,2.7774511649768163,0.4890597641980254,100,709,Incorrect
2,new_learn,50,463,B,47.43064421125057,31.153970037947353,2.371532210562529,0.48936541700685965,B,637,Correct
2,new_learn,50,464,B,55.737549170771814,23.76459447487571,2.7868774585385903,0.3732933770890506,B,647,Correct
2,new_learn,50,465,A,18.99431613666739,39.865820405019676,0.9497158068333695,0.6262108425686995,A,801,Correct
2,new_learn,50,466,A,44.887185744288665,54.91840767841778,2.2443592872144333,0.8626563305468328,B,482,Incorrect
2,new_learn,50,467,A,36.53368997699878,64.96194087592586,1.8266844988499389,1.020419781093716,B,492,Incorrect
2,new_learn,50,468,A,57.59442985195136,85.4480014151101,2.879721492597568,1.3422140675482008,A,603,Incorrect
2,new_learn,50,469,B,76.54981965681642,46.47014365035533,3.8274909828408217,0.7299513095160934,109,628,Incorrect
2,new_learn,50,470,A,24.12150423821513,54.811340611162706,1.2060752119107565,0.8609745249871832,B,754,Incorrect
2,new_learn,50,471,B,54.471260407361484,37.10045343680027,2.723563020368074,0.5827725598095096,A,5420,Incorrect
2,new_learn,50,472,B,76.560984760979,62.46831748487588,3.82804923804895,0.9812500364630045,A,430,Incorrect
2,new_learn,50,473,B,58.54229563108313,29.542486430784283,2.9271147815541565,0.4640522916986403,B,1429,Incorrect
2,new_learn,50,474,A,26.07892181076845,37.56999320967922,1.3039460905384226,0.5901480733147332,B,1223,Incorrect
2,new_learn,50,475,B,38.642195390390455,28.523164844315247,1.9321097695195226,0.4480408256601572,107,781,Correct
2,new_learn,50,476,A,34.790902552732774,57.10099283273236,1.7395451276366387,0.896940297979977,100,897,Correct
2,new_learn,50,477,A,57.76461710241199,75.42920468208654,2.8882308551205993,1.1848391764768196,A,616,Correct
2,new_learn,50,478,B,41.68944442879558,21.0320554945142,2.0844722214397793,0.33037075515729325,B,1157,Incorrect
2,new_learn,50,479,A,54.19320824127716,68.2190357904252,2.709660412063858,1.071582108370895,A,698,Correct
2,new_learn,50,480,A,25.748993012763613,44.50957837251257,1.2874496506381805,0.6991548221473233,A,604,Incorrect
2,new_learn,50,481,B,57.6326804995076,44.569655353564784,2.88163402497538,0.7000985091589406,B,911,Incorrect
2,new_learn,50,482,A,55.84711641063194,79.6500329035371,2.792355820531597,1.2511397911396873,A,976,Correct
2,new_learn,50,483,A,40.35903642144991,50.793137346615566,2.0179518210724954,0.7978567357045241,B,853,Correct
2,new_learn,50,484,B,71.5203892618698,43.30729413690217,3.57601946309349,0.680269385536721,107,1240,Incorrect
2,new_learn,50,485,B,52.42672758112961,35.18167596714518,2.6213363790564808,0.5526324737967994,107,898,Correct
2,new_learn,50,486,B,60.41955461090215,47.37010755225927,3.0209777305451073,0.7440879094296804,107,872,Correct
2,new_learn,50,487,A,61.39992824221106,75.5351768371076,3.069996412110553,1.1865037831953156,100,695,Correct
2,new_learn,50,488,A,59.67248969667578,86.39332970169012,2.983624484833789,1.3570632495499528,107,636,Correct
2,new_learn,50,489,B,38.55629953258328,21.883163684964114,1.9278149766291641,0.343739931349931,100,737,Correct
2,new_learn,50,490,B,51.30055730391205,44.376945107182095,2.5650278651956024,0.6970714236874039,100,736,Incorrect
2,new_learn,50,491,B,77.57867616341899,45.28188981949053,3.8789338081709497,0.7112862619878695,B,740,Correct
2,new_learn,50,492,B,56.153310249705434,31.442398807262894,2.8076655124852716,0.4938960455206879,100,902,Incorrect
2,new_learn,50,493,A,42.13892467037628,66.76761854495209,2.106946233518814,1.0487832995925355,100,753,Incorrect
2,new_learn,50,494,B,61.22671095180226,30.370721702869037,3.061335547590113,0.4770621809297673,107,640,Incorrect
2,new_learn,50,495,B,47.57895108748637,25.852173328476635,2.378947554374318,0.40608498904036094,107,491,Incorrect
2,new_learn,50,496,B,77.53374474253283,50.84809079200964,3.8766872371266414,0.7987199424062215,100,1201,Correct
2,new_learn,50,497,B,68.82203184665241,44.341429541905086,3.4411015923326205,0.6965135464925922,B,2380,Incorrect
2,new_learn,50,498,A,36.44483388677061,46.38404274619969,1.8222416943385304,0.7285988396762794,B,1978,Incorrect
2,new_learn,50,499,A,64.04447377980154,76.12185681056931,3.2022236889900766,1.1957193306684937,A,873,Incorrect
2,new_learn,50,500,A,53.09636887462664,82.418056719606,2.654818443731332,1.2946198075673054,B,561,Incorrect
2,new_learn,50,501,A,26.190343142923805,47.18063232967484,1.30951715714619,0.7411116395931377,A,637,Incorrect
2,new_learn,50,502,A,55.35279461675415,73.7122206911412,2.767639730837708,1.157868855015394,A,989,Correct
2,new_learn,50,503,B,35.663417812983866,20.35664467699021,1.7831708906491934,0.3197614268448511,B,2019,Correct
2,new_learn,50,504,B,77.96618662964127,51.10294786855803,3.8983093314820634,0.8027232280032204,A,1925,Correct
2,new_learn,50,505,B,56.47873111428001,42.60357458970986,2.8239365557140004,0.6692153847384863,B,1032,Correct
2,new_learn,50,506,B,59.68110404202597,31.54431765321008,2.9840552021012985,0.495496983009138,B,816,Correct
2,new_learn,50,507,B,43.2276417182617,16.543371224489547,2.1613820859130852,0.25986266752232573,B,1563,Correct
2,new_learn,50,508,A,38.80074901088843,53.895841224997206,1.9400374505444216,0.8465938942574657,A,880,Correct
2,new_learn,50,509,B,51.57518997296855,33.776770475666886,2.5787594986484277,0.5305642699417186,B,1974,Incorrect
2,new_learn,50,510,A,38.112654987793135,53.914325171401764,1.9056327493896565,0.8468842394086353,A,903,Incorrect
2,new_learn,50,511,A,47.100655531914285,71.25782492412029,2.3550327765957144,1.1193152964620197,A,1298,Incorrect
2,new_learn,50,512,A,59.66225554725693,84.30852346036943,2.9831127773628463,1.3243151896904968,A,905,Correct
2,new_learn,50,513,B,46.5350201374725,26.816670675661612,2.326751006873625,0.4212352779419767,B,719,Incorrect
2,new_learn,50,514,B,56.54211665272772,44.99703423816692,2.827105832636386,0.706811760979768,A,791,Correct
2,new_learn,50,515,B,56.2057059329271,38.8184823279309,2.8102852966463554,0.6097592945246647,A,1159,Incorrect
2,new_learn,50,516,B,60.9174647074462,48.10624474180721,3.04587323537231,0.7556511253632708,B,1257,Correct
2,new_learn,50,517,A,52.109212329789884,63.43629965738528,2.6054606164894945,0.9964550648728117,A,681,Correct
2,new_learn,50,518,A,21.739452039356447,47.25919126821137,1.0869726019678223,0.7423456405140386,A,1131,Incorrect
2,new_learn,50,519,B,74.50211007722562,47.55580502058405,3.725105503861281,0.7470048384410772,B,713,Correct
2,new_learn,50,520,B,72.78035909736113,45.07886402372392,3.6390179548680566,0.7080971402455215,B,4171,Correct
2,new_learn,50,521,B,62.69847606662641,37.59741580174784,3.1349238033313207,0.5905788263836592,B,3033,Incorrect
2,new_learn,50,522,A,39.895200414220916,69.709156603174,1.9947600207110456,1.0949888713623592,A,4696,Correct
2,new_learn,50,523,A,56.25754587297213,83.65490748029323,2.812877293648606,1.314048213884115,A,1500,Correct
2,new_learn,50,524,A,28.04419392544405,46.743023260596985,1.4022096962722026,0.7342376924103416,A,1291,Incorrect
2,new_learn,50,525,A,66.05570343981879,83.09068855103976,3.3027851719909394,1.3051854836683203,A,749,Incorrect
2,new_learn,50,526,B,60.03143092818924,35.560345024317435,3.001571546409462,0.55858059343757,B,1281,Correct
2,new_learn,50,527,B,70.17602858729492,40.41916764852819,3.508801429364746,0.634902800744152,B,1706,Incorrect
2,new_learn,50,528,A,15.920045464265286,45.675383461987835,0.7960022732132643,0.7174672456703886,B,1497,Incorrect
2,new_learn,50,529,B,54.48297602010261,40.78501522270738,2.7241488010051307,0.6406495210010269,B,1106,Correct
2,new_learn,50,530,B,83.35190618622138,59.95830928835829,4.16759530931107,0.9418229199098553,B,1213,Correct
2,new_learn,50,531,A,62.23083455104645,73.7177290555688,3.1115417275523227,1.1579553802014888,B,1445,Correct
2,new_learn,50,532,A,54.128375136801104,68.43757704877015,2.7064187568400553,1.0750149464295087,B,765,Incorrect
2,new_learn,50,533,A,46.497750345746454,65.80177374080246,2.3248875172873227,1.0336118448864138,B,660,Incorrect
2,new_learn,50,534,B,42.7891305543163,27.717267093374073,2.139456527715815,0.43538181339065063,B,631,Incorrect
2,new_learn,50,535,A,49.711404043932106,78.38894212438251,2.4855702021966053,1.231330623503178,A,797,Incorrect
2,new_learn,50,536,B,45.23343458947356,27.10048012189246,2.261671729473678,0.4256933462984679,A,967,Correct
2,new_learn,50,537,B,70.50968101602606,38.979559087905294,3.5254840508013037,0.6122894823536627,107,738,Incorrect
2,new_learn,50,538,B,56.9978634841432,32.600586943269704,2.84989317420716,0.5120888222184572,107,609,Incorrect
2,new_learn,50,539,A,26.01874991794411,52.24792627035038,1.3009374958972055,0.8207085066811696,B,1970,Incorrect
2,new_learn,50,540,B,40.11608717068756,17.79879533231592,2.005804358534378,0.27958282329375994,A,785,Correct
2,new_learn,50,541,A,45.5535109778459,55.14002975225407,2.2776755488922955,0.86613756194202,A,998,Correct
2,new_learn,50,542,B,43.412840853418615,22.331959364855816,2.1706420426709307,0.35078959740448407,B,1737,Incorrect
2,new_learn,50,543,A,19.037603181996868,47.81808903248938,0.9518801590998435,0.7511247860658565,A,438,Incorrect
2,new_learn,50,544,B,61.78350718405056,31.026057988123384,3.089175359202528,0.4873561792266967,B,553,Incorrect
2,new_learn,50,545,B,43.986746611870245,15.147727265654776,2.1993373305935124,0.23793994348181427,B,469,Correct
2,new_learn,50,546,A,53.4429909964087,82.31932701291728,2.6721495498204355,1.293068964961184,A,118,Correct
2,new_learn,50,547,B,46.53388978444303,34.633452562569644,2.3266944892221515,0.544021000695097,A,690,Correct
2,new_learn,50,548,A,45.047495473231024,59.86909467903943,2.2523747736615514,0.9404215401037102,100,1388,Correct
2,new_learn,50,549,A,20.187062098461823,32.78104430961653,1.009353104923091,0.514923439900464,B,386,Incorrect
2,new_learn,50,550,A,23.55911941068588,48.78845659768191,1.1779559705342941,0.7663672841363096,A,601,Incorrect
2,new_learn,50,551,A,59.88065025906947,79.70434043564889,2.9940325129534733,1.251992851859272,A,1607,Incorrect
2,new_learn,50,552,B,65.49263393478671,49.67440739501694,3.2746316967393354,0.7802837667180587,B,1950,Correct
2,new_learn,50,553,B,66.03021332486514,43.77442542284714,3.3015106662432574,0.6876070666176543,B,1311,Correct
2,new_learn,50,554,B,86.44286370786052,60.04376113562991,4.322143185393026,0.9431651943879762,B,823,Correct
2,new_learn,50,555,A,22.765493503323896,35.94695005675221,1.1382746751661947,0.5646533710862597,107,1654,Incorrect
2,new_learn,50,556,B,54.77480624977075,43.500007402913546,2.738740312488537,0.683296518440474,107,570,Incorrect
2,new_learn,50,557,A,43.972871328896694,58.22256030590766,2.1986435664448347,0.9145578386511409,B,321,Incorrect
2,new_learn,50,558,A,46.1075871503451,65.02495480458663,2.3053793575172548,1.0214096015704883,107,422,Incorrect
2,new_learn,50,559,B,56.7641021337415,30.898036485739244,2.8382051066870755,0.48534522216973897,B,1005,Correct
2,new_learn,50,560,B,41.947204245262185,19.194689476197222,2.0973602122631094,0.3015094772317925,B,782,Incorrect
2,new_learn,50,561,A,36.391745722244124,61.575249948308155,1.8195872861122064,0.9672217644028009,B,1075,Incorrect
2,new_learn,50,562,A,32.38896064768006,57.34117875601242,1.6194480323840028,0.9007131296403387,A,911,Correct
2,new_learn,50,563,A,37.086185633045446,61.94579203794136,1.8543092816522722,0.9730422259359883,A,540,Correct
2,new_learn,50,564,A,56.23398150244824,84.10052078157884,2.811699075122412,1.3210478912524193,107,1061,Incorrect
2,new_learn,50,565,B,59.51368216491219,44.87858146917759,2.9756841082456096,0.7049511092354968,B,762,Incorrect
2,new_learn,50,566,B,59.75750426815531,47.4752558129649,2.9878752134077655,0.7457395744465332,B,801,Incorrect
2,new_learn,50,567,A,18.723283195492005,35.94663980075954,0.9361641597746002,0.5646484975965231,A,803,Correct
2,new_learn,50,568,A,27.383792132561094,40.42669177153638,1.3691896066280547,0.6350209893919881,A,657,Correct
2,new_learn,50,569,B,38.42420581189259,11.876080592503175,1.9212102905946296,0.18654903771424144,B,1048,Incorrect
2,new_learn,50,570,B,49.912588484806925,39.17859866598906,2.495629424240346,0.6154159887350705,A,1886,Incorrect
2,new_learn,50,571,B,65.15990800573414,40.69885879015415,3.2579954002867066,0.6392961789231831,B,644,Incorrect
2,new_learn,50,572,A,55.95606691903478,83.31244965680841,2.7978033459517393,1.308668898971994,A,3811,Incorrect
2,new_learn,50,573,B,57.68853428935333,34.15904664680705,2.8844267144676667,0.5365690499962005,B,2784,Correct
2,new_learn,50,574,B,77.1384518761947,61.624432082942334,3.856922593809735,0.967994315567074,B,3290,Correct
2,new_learn,50,575,B,53.0919097224767,24.578906218772406,2.654595486123835,0.3860845560508394,B,838,Correct
2,new_learn,50,576,A,65.03362575397466,79.02445191063654,3.251681287698733,1.2413131878820785,A,736,Correct
2,new_learn,50,577,A,59.45636960892484,80.84060314872964,2.972818480446242,1.2698412248190845,B,12729,Incorrect
2,new_learn,50,578,B,48.922796623983956,41.11920504647451,2.446139831199198,0.6458989624772834,B,900,Incorrect
2,new_learn,50,579,A,64.10066855641026,89.0058633568053,3.2050334278205126,1.3981008322407826,A,762,Correct
2,new_learn,50,580,B,42.8676734150002,16.204756869462518,2.14338367075001,0.2545437256715609,B,709,Correct
2,new_learn,50,581,B,44.917293773420816,21.035601480511925,2.2458646886710407,0.33042645537509424,A,812,Correct
2,new_learn,50,582,B,52.54666703207721,25.582780770147135,2.6273333516038604,0.4018533806294623,B,535,Correct
2,new_learn,50,583,B,63.69095724530011,55.88852019872182,3.184547862265006,0.8778948223815461,B,746,Correct
2,new_learn,50,584,A,16.762554490735216,31.18780240163964,0.8381277245367608,0.48989685453300597,A,762,Incorrect
2,new_learn,50,585,B,76.9707862431553,45.28172620185611,3.848539312157765,0.711283691888078,A,631,Incorrect
2,new_learn,50,586,B,80.80846772779452,57.83931661389271,4.040423386389726,0.9085378608142971,B,762,Incorrect
2,new_learn,50,587,B,58.06563685560356,37.20158008662065,2.903281842780178,0.5843610535102989,B,800,Correct
2,new_learn,50,588,B,49.19684420944237,39.025496881662384,2.4598422104721185,0.6130110715306096,B,719,Incorrect
2,new_learn,50,589,A,33.14141612643874,51.90467807637334,1.657070806321937,0.8153167766583883,A,1451,Correct
2,new_learn,50,590,A,39.599515091945506,48.58169585036497,1.9799757545972754,0.7631194939122016,A,1268,Correct
2,new_learn,50,591,B,33.467932130505076,13.267525030029898,1.6733966065252537,0.20840579582830315,100,2044,Incorrect
2,new_learn,50,592,A,68.42738947974038,85.66953928401108,3.4213694739870193,1.345693976255357,107,1067,Incorrect
2,new_learn,50,593,A,40.51562912290494,55.896705497982175,2.025781456145247,0.878023396761665,107,1620,Correct
2,new_learn,50,594,B,31.242345767364085,15.301078459621152,1.5621172883682044,0.24034877840373423,100,961,Incorrect
2,new_learn,50,595,A,35.65711807668202,51.626283737917994,1.782855903834101,0.810943768615927,107,1395,Incorrect
2,new_learn,50,596,A,57.20971770246017,68.77114713392767,2.8604858851230084,1.0802546530744497,A,741,Correct
2,new_learn,50,597,A,34.7363684926519,48.091331549826336,1.736818424632595,0.7554168694914272,B,745,Incorrect
2,new_learn,50,598,A,20.12690720812803,40.550808970926354,1.0063453604064017,0.6369706178009266,A,784,Incorrect
2,new_learn,50,599,A,33.07304490543485,65.17028495833372,1.6536522452717424,1.023692442287273,A,620,Correct
2,new_learn,50,600,B,16.774577182393557,66.08612020183962,0.8387288591196779,1.0380783486517569,A,989,Incorrect
2,new_learn,50,601,B,15.026257969381618,66.03001162831951,0.7513128984690809,1.037196997239886,B,1749,Correct
2,new_learn,50,602,B,58.19323774668203,23.93140694725321,2.9096618873341016,0.3759136612777921,B,965,Correct
2,new_learn,50,603,B,39.221686082348306,50.315764943163686,1.9610843041174153,0.7903581875259694,B,788,Correct
2,new_learn,50,604,B,30.12657866359826,55.85836741651637,1.5063289331799128,0.8774211835862367,B,992,Correct
2,new_learn,50,605,A,49.841443995614796,77.04578730270515,2.49207219978074,1.2102323969011013,A,1044,Correct
2,new_learn,50,606,A,76.61964858073836,43.97925871136401,3.830982429036918,0.6908245803897305,B,1061,Incorrect
2,new_learn,50,607,A,82.45171137930384,43.61943878698037,4.122585568965192,0.685172542234436,A,892,Correct
2,new_learn,50,608,B,62.88811528702584,17.164070975286435,3.144405764351292,0.2696125964082683,B,612,Correct
2,new_learn,50,609,B,20.139106298379286,63.574323864913396,1.0069553149189643,0.998623144054751,A,814,Incorrect
2,new_learn,50,610,B,48.37209106263663,38.4234394826092,2.418604553131831,0.6035539760210853,A,522,Incorrect
2,new_learn,50,611,A,71.93420389966535,49.62105300667926,3.5967101949832676,0.7794456779458664,B,779,Incorrect
2,new_learn,50,612,A,63.30122219206534,67.89618314379342,3.1650611096032666,1.0665107508566427,A,611,Correct
2,new_learn,50,613,B,40.78501522270738,45.51702397989739,2.039250761135369,0.7149797407425803,A,962,Incorrect
2,new_learn,50,614,B,39.95938839179727,32.192407236716605,1.9979694195898634,0.5056771503811989,B,620,Correct
2,new_learn,50,615,B,28.337163442820987,47.840444659308424,1.4168581721410494,0.7514759474307621,A,2486,Incorrect
2,new_learn,50,616,B,45.27746344161126,35.82045419961305,2.263873172080563,0.5626663788087701,B,2953,Correct
2,new_learn,50,617,B,37.303963995747935,53.026971592787,1.865198199787397,0.8329457219900714,B,1393,Correct
2,new_learn,50,618,A,58.281068053183056,58.30731699013615,2.914053402659153,0.9158891935337153,B,4840,Incorrect
2,new_learn,50,619,A,56.68293682091316,71.99710992803551,2.834146841045658,1.1309279581480656,A,744,Correct
2,new_learn,50,620,B,40.41916764852819,29.823971412705077,2.020958382426409,0.4684738474551314,B,1085,Correct
2,new_learn,50,621,A,40.13867312455953,86.67869875536196,2.006933656227977,1.3615458161628395,A,1111,Correct
2,new_learn,50,622,A,68.64415600243176,47.09490394677209,3.432207800121588,0.739765021303481,B,1396,Incorrect
2,new_learn,50,623,B,53.662235510169566,36.0255872190047,2.6831117755084786,0.5658886007424174,B,671,Correct
2,new_learn,50,624,A,41.85725732757325,83.92852634235314,2.0928628663786624,1.3183462089187703,A,1107,Correct
2,new_learn,50,625,A,85.66953928401108,31.572610520259616,4.283476964200554,0.4959414063254971,B,789,Incorrect
2,new_learn,50,626,A,68.69790287790246,54.65507324208373,3.4348951438951234,0.8585198828937117,A,837,Correct
2,new_learn,50,627,B,52.24188556718893,25.027617902719783,2.6120942783594465,0.39313290270018436,B,611,Correct
2,new_learn,50,628,B,21.45485053359309,52.14130889638834,1.0727425266796544,0.8190337648872485,A,797,Incorrect
2,new_learn,50,629,A,75.42920468208654,42.23538289758801,3.771460234104327,0.6634318431630722,B,508,Incorrect
2,new_learn,50,630,B,59.5150655014272,23.34376733695501,2.9757532750713604,0.3666830398644362,B,773,Correct
2,new_learn,50,631,A,52.251849131935934,78.61050772538563,2.6125924565967966,1.234810967825176,A,453,Correct
2,new_learn,50,632,B,27.756661168054222,48.588468081729694,1.3878330584027112,0.7632258718737208,B,364,Correct
2,new_learn,50,633,A,73.10596953997516,39.30655567756993,3.655298476998758,0.6174259327728594,B,445,Incorrect
2,new_learn,50,634,A,85.91910632315596,34.65452774287196,4.295955316157798,0.5443520488531512,A,833,Correct
2,new_learn,50,635,B,21.81159156903215,56.99801924225284,1.0905795784516075,0.895322792603156,B,798,Correct
2,new_learn,50,636,A,49.59499951560395,81.60609702258857,2.4797499757801975,1.2818655744715008,A,2286,Correct
2,new_learn,50,637,B,60.371629950885655,29.41217909873201,3.018581497544283,0.46200542891321866,B,4453,Correct
2,new_learn,50,638,A,58.482298912896006,74.31333957123884,2.9241149456448006,1.167311208303638,A,1753,Correct
2,new_learn,50,639,A,43.25792362760963,68.04437205638799,2.1628961813804812,1.0688384968523954,107,1699,Incorrect
2,new_learn,50,640,B,46.47014365035533,23.450180343183575,2.323507182517767,0.3683545714575065,B,687,Correct
2,new_learn,50,641,A,79.21553620006297,51.369185544084196,3.960776810003148,0.8069052796309295,B,1425,Incorrect
2,new_learn,50,642,A,63.47129863289358,56.40802818343904,3.173564931644679,0.8860552347228905,A,627,Correct
2,new_learn,50,643,A,64.76156374921902,57.14391197792947,3.238078187460951,0.8976144703362252,A,459,Correct
2,new_learn,50,644,B,40.44290463153897,44.434598067052534,2.0221452315769484,0.6979770342633372,B,687,Correct
2,new_learn,50,645,A,57.10099283273236,65.20909744726723,2.855049641636618,1.024302107437778,A,569,Correct
2,new_learn,50,646,A,63.84407664195434,44.58772762203394,3.1922038320977166,0.7003823876882226,B,765,Incorrect
2,new_learn,50,647,B,32.2497574381449,54.93430417267353,1.612487871907245,0.8629060320946913,100,2118,Incorrect
2,new_learn,50,648,A,47.18063232967484,73.80965685707619,2.359031616483742,1.1593993787308703,A,650,Correct
2,new_learn,50,649,A,46.96554873592744,69.61653428080436,2.348277436796372,1.093533963324785,B,659,Incorrect
2,new_learn,50,650,B,58.463225508687444,29.19231735129243,2.9231612754343725,0.45855184866041077,A,2217,Incorrect
2,new_learn,50,651,A,67.93089084520416,58.75320244333443,3.396544542260208,0.9228931458542665,B,1060,Incorrect
2,new_learn,50,652,A,55.56444556292314,73.55431255925001,2.778222278146157,1.1553884398799363,A,728,Correct
2,new_learn,50,653,B,21.0320554945142,58.31055557120442,1.05160277472571,0.9159400650461761,A,1581,Incorrect
2,new_learn,50,654,B,59.95830928835829,16.648093813778615,2.9979154644179147,0.2615076461082029,B,830,Correct
2,new_learn,50,655,B,18.12295135596734,63.74647497290728,0.9061475677983671,1.0013272873356556,B,703,Correct
2,new_learn,50,656,A,55.14002975225407,54.4464890221541,2.757001487612704,0.8552434496287832,B,2065,Incorrect
2,new_learn,50,657,A,57.409171078349736,68.9462890517256,2.8704585539174867,1.0830057758858977,B,1506,Incorrect
2,new_learn,50,658,A,71.26375250356875,50.042180009196045,3.5631876251784376,0.7860607254325416,B,783,Incorrect
2,new_learn,50,659,B,48.601321212655364,31.153903673687935,2.430066060632768,0.48936437455951043,B,596,Correct
2,new_learn,50,660,B,37.25480449493945,54.46763015335917,1.8627402247469724,0.8555755337411952,B,1390,Correct
2,new_learn,50,661,B,45.266098476781224,34.008961040460676,2.263304923839061,0.5342115108046637,A,880,Incorrect
2,new_learn,50,662,B,23.768881173935096,45.596383183862805,1.1884440586967548,0.7162263122034429,B,724,Correct
2,new_learn,50,663,A,52.35044313077545,58.14851801400008,2.6175221565387727,0.9133947850495819,107,1293,Incorrect
2,new_learn,50,664,B,45.86442070950545,40.47121987434928,2.2932210354752725,0.6357204351953646,A,2234,Incorrect
2,new_learn,50,665,A,47.81808903248938,80.96239681800313,2.3909044516244693,1.2717543553023014,B,1020,Incorrect
2,new_learn,50,666,B,48.87969180652639,43.954855853025705,2.4439845903263193,0.6904412611873193,B,594,Correct
2,new_learn,50,667,B,36.311612926483576,55.69755413129405,1.8155806463241788,0.874895134408966,B,781,Correct
2,new_learn,50,668,A,83.0740432434893,34.466318332894474,4.153702162174465,0.5413956623545424,B,845,Incorrect
2,new_learn,50,669,A,80.2628758740276,33.581117924404026,4.01314379370138,0.5274909668532011,100,458,Incorrect
2,new_learn,50,670,B,56.31991669675301,21.85830047724042,2.8159958348376506,0.3433493809962838,A,595,Incorrect
2,new_learn,50,671,A,80.3667350733821,33.29568285586724,4.018336753669105,0.5230073632812406,A,1105,Correct
2,new_learn,50,672,A,65.80177374080246,53.502249654253546,3.290088687040123,0.8404113723216499,B,897,Incorrect
2,new_learn,50,673,B,26.76263449891279,42.084750332837274,1.3381317249456395,0.6610657123690109,A,669,Incorrect
2,new_learn,50,674,A,56.87561584129549,58.17091409118644,2.843780792064775,0.9137465818073716,B,1971,Incorrect
2,new_learn,50,675,A,54.47293040715822,77.41893868229064,2.723646520357911,1.2160938450650147,A,817,Correct
2,new_learn,50,676,B,27.717267093374073,57.2108694456837,1.3858633546687036,0.8986662357802234,B,1156,Correct
2,new_learn,50,677,B,39.17859866598906,50.087411515193075,1.9589299332994528,0.7867712202672968,100,599,Correct
2,new_learn,50,678,A,48.65258192667813,78.56192906279233,2.4326290963339066,1.2340478959775543,A,792,Correct
2,new_learn,50,679,B,57.04599972912213,27.759082147327405,2.8522999864561065,0.4360386427221967,B,641,Correct
2,new_learn,50,680,B,58.18168875005764,26.39581709998383,2.909084437502882,0.4146245254340452,B,736,Correct
2,new_learn,50,681,B,23.179717562100933,60.195092778980445,1.1589858781050466,0.9455423062830048,100,629,Incorrect
2,new_learn,50,682,B,30.570034924345087,56.65151695874238,1.5285017462172545,0.8898799474615131,B,395,Correct
2,new_learn,50,683,A,80.84060314872964,40.54363039107516,4.042030157436482,0.636857856932308,B,1514,Incorrect
2,new_learn,50,684,A,67.60329040346349,55.860692929722276,3.380164520173174,0.877457712662254,A,758,Correct
2,new_learn,50,685,B,41.238973631993275,36.68863569790378,2.061948681599664,0.5763037418938337,B,906,Correct
2,new_learn,50,686,A,72.31057260867159,39.594710354964064,3.6155286304335794,0.6219522558608541,A,2403,Correct
2,new_learn,50,687,B,43.835867379761034,47.73885242738147,2.1917933689880518,0.7498801403833445,107,936,Incorrect
2,new_learn,50,688,A,46.38404274619969,63.55516611322939,2.3192021373099845,0.998322214795002,B,762,Incorrect
2,new_learn,50,689,A,33.316107224804306,85.223359371633,1.6658053612402153,1.3386853985808256,A,995,Correct
2,new_learn,50,690,A,45.675383461987835,84.07995453573471,2.283769173099392,1.3207248374181402,A,1026,Correct
2,new_learn,50,691,B,33.257598877582474,54.32890004797283,1.6628799438791235,0.8533963663416281,A,1137,Incorrect
2,new_learn,50,692,B,32.01181564163545,37.7878172024024,1.6005907820817726,0.593569644591307,B,703,Correct
2,new_learn,50,693,A,48.812532637642846,74.43615960573482,2.440626631882142,1.169240460894069,B,623,Incorrect
2,new_learn,50,694,A,83.65490748029323,43.74245412702787,4.182745374014662,0.6871048626772964,A,2297,Correct
2,new_learn,50,695,A,49.1305957381453,78.43630369511361,2.4565297869072653,1.2320745773165345,A,1170,Correct
2,new_learn,50,696,A,55.63257325638449,53.91881220019837,2.7816286628192244,0.8469547214921546,B,1227,Incorrect
2,new_learn,50,697,B,41.44544460013318,33.887295735686905,2.072272230006659,0.5323003966662935,A,588,Incorrect
2,new_learn,50,698,B,54.134426369863796,38.466964090434864,2.70672131849319,0.6042376589620627,B,751,Correct
2,new_learn,50,699,A,42.39810358782208,86.31378081642059,2.119905179391104,1.3558136985821327,A,1043,Correct
2,new_learn,50,700,B,55.7075729525417,21.35180209267827,2.7853786476270854,0.3353933229763061,B,2302,Correct
2,new_learn,50,701,A,51.801564412636935,67.04759762435074,2.5900782206318467,1.0531812006875236,A,2824,Correct
2,new_learn,50,702,A,52.63288087066849,78.40531590720106,2.6316440435334245,1.231587822282249,A,4435,Correct
2,new_learn,50,703,A,34.20860820303612,82.55070161702878,1.7104304101518062,1.2967033887437034,A,1601,Correct
2,new_learn,50,704,B,32.67941898550444,36.02259454835809,1.6339709492752221,0.5658415919818276,107,8055,Incorrect
2,new_learn,50,705,A,85.93037666217828,38.919619292361446,4.296518833108914,0.6113479502469714,107,187,Correct
2,new_learn,50,706,B,48.01484332199251,23.93199542013629,2.4007421660996253,0.37592290498822367,107,66,Incorrect
2,new_learn,50,707,B,60.144018499652056,16.430248772957995,3.0072009249826026,0.25808574420888775,107,278,Incorrect
2,new_learn,50,708,B,28.754844561011957,38.79262065722722,1.437742228050598,0.6093530603512034,107,1036,Correct
2,new_learn,50,709,A,57.34117875601242,67.61103935231995,2.867058937800621,1.0620317226540938,B,1620,Incorrect
2,new_learn,50,710,A,77.00612960115706,34.47730135137448,3.850306480057853,0.5415681832053976,B,798,Incorrect
2,new_learn,50,711,A,74.33739822277614,36.57154147722562,3.716869911138807,0.5744644301765321,A,1275,Correct
2,new_learn,50,712,B,31.36049234447255,53.41230472668185,1.5680246172236274,0.8389985207032155,A,2327,Incorrect
2,new_learn,50,713,A,55.20328733296031,62.02637680084731,2.760164366648015,0.9743080484316713,A,1833,Correct
2,new_learn,50,714,A,69.16854975488303,58.07015337009252,3.4584274877441517,0.9121638361015761,A,714,Correct
2,new_learn,50,715,B,64.68092865406751,17.986222374804044,3.234046432703376,0.2825269203925837,B,614,Correct
2,new_learn,50,716,B,42.57574996735905,38.79554227897037,2.1287874983679527,0.6093989530782277,B,517,Correct
2,new_learn,50,717,B,53.91739620538292,36.12803737055109,2.695869810269146,0.5674978839597041,B,2419,Correct
2,new_learn,50,718,B,65.82380363848,14.248824452688297,3.291190181924,0.22382001111428076,B,1789,Correct
2,new_learn,50,719,A,56.26806141262485,55.27663224675953,2.8134030706312427,0.8682833089080221,B,1053,Incorrect
2,new_learn,50,720,A,52.21658272955498,54.41290409831004,2.610829136477749,0.8547158988786838,A,644,Correct
2,new_learn,50,721,A,58.22256030590766,56.027128671103306,2.9111280152953833,0.8800720791743412,A,3062,Correct
2,new_learn,50,722,B,28.84424276130143,59.8177437905276,1.4422121380650714,0.9396149222331899,A,855,Incorrect
2,new_learn,50,723,A,34.181447705047816,83.4823366835325,1.7090723852523908,1.311337478147477,B,1182,Incorrect
2,new_learn,50,724,B,47.02277364264547,31.56350909381787,2.3511386821322735,0.4957984414532643,B,1068,Correct
2,new_learn,50,725,B,24.341892765029407,48.61239232566878,1.2170946382514702,0.7636016730187295,A,818,Incorrect
2,new_learn,50,726,A,41.01006610083621,67.32283071977602,2.0505033050418104,1.0575045520405881,A,907,Correct
2,new_learn,50,727,B,35.160576719832775,50.788584343150006,1.7580288359916387,0.7977852172933282,B,6764,Correct
2,new_learn,50,728,B,62.97376290223138,17.93448374608755,3.148688145111569,0.28171421191317103,B,1663,Correct
2,new_learn,50,729,A,42.64163066103875,68.62900047149765,2.132081533051937,1.0780218185223371,A,1030,Correct
2,new_learn,50,730,B,52.176165213081454,35.804262432728066,2.608808260654073,0.5624120391292976,A,1504,Incorrect
2,new_learn,50,731,B,29.078723669507646,58.46182746896858,1.4539361834753821,0.9183162384597283,B,1587,Correct
2,new_learn,50,732,B,35.560345024317435,39.96856907181076,1.7780172512158716,0.6278248148524845,B,640,Correct
2,new_learn,50,733,B,51.198759843321774,39.73429931610202,2.5599379921660885,0.6241449141350203,B,1205,Correct
2,new_learn,50,734,B,58.350144145648756,18.14282688954036,2.917507207282438,0.2849868583576567,B,1999,Correct
2,new_learn,50,735,B,25.28998152264203,54.76012532599921,1.2644990761321013,0.8601700371690775,B,946,Correct
2,new_learn,50,736,A,35.85340884883482,84.24750384491098,1.7926704424417408,1.3233566958122507,A,5171,Correct
2,new_learn,50,737,A,50.16320621418494,67.96241958080988,2.508160310709247,1.067551190376297,A,5140,Correct
2,new_learn,50,738,A,55.44548863630822,75.82422870942568,2.772274431815411,1.19104419938822,A,1027,Correct
2,new_learn,50,739,A,61.575249948308155,63.608254277755876,3.0787624974154078,0.9991561217333469,A,4547,Correct
2,new_learn,50,740,A,70.92754092093,41.10050786557497,3.5463770460465,0.6456052678464991,B,2773,Incorrect
2,new_learn,50,741,A,48.84826138102964,58.33180565711866,2.4424130690514816,0.9162738606151576,A,790,Correct
2,new_learn,50,742,B,31.153970037947353,52.56935578874943,1.5576985018973675,0.8257575097494162,107,834,Incorrect
2,new_learn,50,743,B,38.979559087905294,29.490318983973935,1.9489779543952648,0.46323284736036063,B,822,Correct
2,new_learn,50,744,B,28.523164844315247,61.357804609609545,1.4261582422157624,0.9638061410097365,A,739,Incorrect
2,new_learn,50,745,A,66.63831452387052,53.97731357029901,3.331915726193526,0.8478736588648202,A,680,Correct
2,new_learn,50,746,B,51.22239422601175,29.92827111322285,2.5611197113005875,0.4701121833197226,B,940,Correct
2,new_learn,50,747,B,52.86889207219098,23.305407283313144,2.6434446036095487,0.36608048155087314,B,664,Correct
2,new_learn,50,748,A,76.12185681056931,35.955526220198465,3.8060928405284655,0.5647880851466535,B,536,Incorrect
2,new_learn,50,749,B,38.8184823279309,43.7942940670729,1.940924116396545,0.6879191625513364,B,695,Correct
2,new_learn,50,750,B,39.025496881662384,50.80315579055763,1.9512748440831191,0.7980141050539681,107,998,Incorrect
2,new_learn,50,751,A,44.565735148156556,63.84317081472548,2.228286757407828,1.0028461820670993,A,1199,Correct
2,new_learn,50,752,B,46.18056020202129,32.02267086534384,2.3090280101010645,0.5030109376944405,B,581,Correct
2,new_learn,50,753,A,55.896705497982175,59.48437087709506,2.7948352748991088,0.9343783127544624,A,1703,Correct
2,new_learn,50,754,A,53.16846095894592,68.3745187224594,2.6584230479472963,1.0740244285560812,B,796,Incorrect
2,new_learn,50,755,B,60.49463202206566,28.046127126450457,3.024731601103283,0.44054753471051084,100,4804,Correct
2,new_learn,50,756,B,40.16741417407929,50.38707742247257,2.0083707087039646,0.7914783613314998,B,8898,Correct
2,new_learn,50,757,B,60.666494368136654,22.99594253067528,3.033324718406833,0.36121942058371265,B,1342,Correct
2,new_learn,50,758,A,47.539039649521754,68.66981216002856,2.3769519824760876,1.078662887026684,A,1878,Correct
2,new_learn,50,759,A,85.4480014151101,42.40557014804864,4.272400070755505,0.6661051382419813,B,559,Incorrect
2,new_learn,50,760,B,48.13844160357611,42.603654589186384,2.4069220801788056,0.6692166413673251,A,755,Incorrect
2,new_learn,50,761,B,21.035601480511925,55.082706226579184,1.0517800740255963,0.8652371261063295,A,2122,Incorrect
2,new_learn,50,762,A,84.27323827255992,38.529556374997995,4.2136619136279965,0.6052208562688375,100,852,Incorrect
2,new_learn,50,763,B,58.63697630557739,28.27032230129575,2.9318488152788693,0.44406918428183206,A,826,Incorrect
2,new_learn,50,764,A,74.29951600086888,51.88182924966676,3.714975800043444,0.8149578681277657,B,757,Incorrect
2,new_learn,50,765,A,82.91204101285527,39.13662539129377,4.145602050642764,0.6147566740779213,B,911,Incorrect
2,new_learn,50,766,B,38.92017227030344,34.59367909435983,1.9460086135151722,0.5433962405174182,B,1475,Correct
2,new_learn,50,767,A,76.36965781340034,42.17345960065332,3.8184828906700172,0.662459154289392,B,1353,Incorrect
2,new_learn,50,768,A,46.879801027595335,73.54607931648945,2.343990051379767,1.1552591124050775,A,1828,Correct
2,new_learn,50,769,A,77.65325629565548,48.651424189434664,3.882662814782774,0.7642147841010434,A,1198,Correct
2,new_learn,50,770,A,54.811340611162706,75.87849576178488,2.740567030558135,1.1918966242533382,A,879,Correct
2,new_learn,50,771,A,70.13727726153947,48.53193198283623,3.506863863076973,0.7623378049089891,A,667,Correct
2,new_learn,50,772,B,28.021868682262564,60.59387517784002,1.401093434113128,0.9518063655561957,A,639,Incorrect
2,new_learn,50,773,B,21.328140581112507,47.133799625266086,1.0664070290556253,0.7403759931925464,B,433,Correct
2,new_learn,50,774,A,70.64839367994568,39.14868510288236,3.532419683997284,0.6149461075845769,A,1214,Correct
2,new_learn,50,775,A,71.08679556739705,53.13910197476451,3.5543397783698527,0.8347070619113951,A,368,Correct
2,new_learn,50,776,B,44.87858146917759,40.48631783508781,2.2439290734588795,0.6359575934080665,A,411,Incorrect
2,new_learn,50,777,B,56.141461006613795,32.64572225466806,2.8070730503306898,0.51279780603199,B,687,Correct
2,new_learn,50,778,B,34.11376758574938,50.58247322531828,1.7056883792874689,0.7945476314253117,B,2058,Correct
2,new_learn,50,779,A,45.34599425997496,81.30043743625947,2.267299712998748,1.2770642849169467,A,1101,Correct
2,new_learn,50,780,B,36.55606285129879,34.52011962729344,1.8278031425649397,0.5422407711107294,B,1588,Correct
2,new_learn,50,781,A,57.151709274057886,60.67951810031672,2.857585463702894,0.9531516414366195,A,996,Correct
2,new_learn,50,782,A,76.99715929953405,54.60412963165943,3.849857964976702,0.85771966253243,B,1376,Incorrect
2,new_learn,50,783,A,47.70997044755253,77.64961795545325,2.3854985223776266,1.2197173466145304,A,1110,Correct
2,new_learn,50,784,B,27.10048012189246,54.76656541052644,1.355024006094623,0.8602711977802736,B,2366,Correct
2,new_learn,50,785,B,34.12193800420299,40.3089778326488,1.7060969002101496,0.6331719431638165,B,1107,Correct
2,new_learn,50,786,B,32.547816678811515,36.07136995253782,1.6273908339405756,0.5666077542390622,107,535,Correct
2,new_learn,50,787,A,52.9121692657452,71.96035031643848,2.64560846328726,1.1303505395193554,A,651,Correct
2,new_learn,50,788,A,70.81959012941066,43.90135741084765,3.5409795064705327,0.6896009096226939,A,2655,Correct
2,new_learn,50,789,B,53.4392416091462,28.59121148767754,2.67196208045731,0.44910969983459936,107,944,Incorrect
2,new_learn,50,790,A,53.67675221997948,64.98504335398701,2.6838376109989737,1.020782673970499,A,714,Correct
2,new_learn,50,791,A,59.60082117287516,49.54750582525707,2.980041058643758,0.7782904015216254,A,1126,Correct
2,new_learn,50,792,A,63.74932602892442,52.311584607708006,3.187466301446221,0.8217084495060819,A,822,Correct
2,new_learn,50,793,A,70.02564709514377,38.823678207296624,3.5012823547571883,0.6098409112068861,A,1603,Correct
2,new_learn,50,794,B,34.87699067695721,33.61377473737605,1.7438495338478606,0.5280039388718138,B,1136,Correct
2,new_learn,50,795,A,35.99352508852537,77.11995921457785,1.7996762544262683,1.2113974865683113,A,883,Correct
2,new_learn,50,796,B,38.85161659793597,32.34297280599266,1.9425808298967986,0.5080422288128049,A,2242,Incorrect
2,new_learn,50,797,A,63.675095321250815,54.6476401263465,3.183754766062541,0.8584031237847449,B,453,Incorrect
2,new_learn,50,798,A,69.39885283190578,54.26299774478182,3.4699426415952894,0.8523611753838304,A,2491,Correct
2,new_learn,50,799,B,36.26048690127758,35.08020538652217,1.813024345063879,0.5510385776435957,A,2592,Incorrect
2,new_learn,50,800,B,25.56460464491019,45.24512489221643,1.2782302322455095,0.7107087598606991,B,3459,Correct
2,new_learn,50,801,B,15.14772726565478,56.013253388129755,0.757386363282739,0.87985412673906,B,1581,Correct
2,new_learn,50,802,A,51.21672555834425,72.16132033273895,2.5608362779172125,1.1335073691533624,A,832,Correct
2,new_learn,50,803,B,67.27303507271097,11.448684387207635,3.3636517536355486,0.17983551382059837,B,1268,Correct
2,new_learn,50,804,A,55.80114015141267,70.15344451407809,2.790057007570633,1.1019677295472345,A,694,Correct
2,new_learn,50,805,B,42.82112347484083,49.216912640345164,2.1410561737420415,0.7730974559163951,B,3049,Correct
2,new_learn,50,806,B,59.74282840336003,18.546763392038116,2.9871414201680015,0.29133187810147526,B,998,Correct
2,new_learn,50,807,B,42.903826473757704,45.07418965260808,2.145191323687885,0.708023715395733,A,826,Incorrect
2,new_learn,50,808,B,34.15904664680705,42.31146571064667,1.7079523323403523,0.6646269491959201,100,927,Incorrect
2,new_learn,50,809,A,42.024806852620415,84.28470304505242,2.101240342631021,1.3239410194816699,A,673,Correct
2,new_learn,50,810,A,67.27883699486677,55.33625223974201,3.3639418497433384,0.8692198175678262,A,1438,Correct
2,new_learn,50,811,A,62.48014714085788,62.83826371055034,3.1240073570428937,0.9870611381870152,A,882,Correct
2,new_learn,50,812,B,67.15336525261021,19.65508873124145,3.357668262630511,0.30874141181861836,B,837,Correct
2,new_learn,50,813,B,52.92909903067494,18.890826812991776,2.646454951533747,0.29673641367966025,B,752,Correct
2,new_learn,50,814,B,21.772653892094837,65.66189808481576,1.0886326946047418,1.0314146832200943,A,667,Incorrect
2,new_learn,50,815,A,66.96772390152611,52.21211950824792,3.348386195076306,0.8201460553773201,B,632,Incorrect
2,new_learn,50,816,B,13.800749380671952,62.602608256604434,0.6900374690335976,0.983359470972541,A,748,Incorrect
2,new_learn,50,817,B,44.15858975702662,34.39954467020367,2.207929487851331,0.5403467841137288,A,1561,Incorrect
2,new_learn,50,818,A,69.8944739979245,53.194218370385435,3.494723699896225,0.8355728282292704,A,872,Correct
2,new_learn,50,819,A,51.38039768542416,56.59840872465638,2.5690198842712078,0.8890457252712647,A,971,Correct
2,new_learn,50,820,A,72.74498276974467,50.9796274919458,3.637249138487233,0.800786116057206,A,942,Correct
2,new_learn,50,821,B,34.38672686616466,48.647031244321305,1.7193363433082327,0.7641457798805646,A,1558,Incorrect
2,new_learn,50,822,B,66.00978927534831,20.453201025071863,3.300489463767416,0.32127813041380493,A,1343,Incorrect
2,new_learn,50,823,A,63.04715235705939,57.08455798893898,3.1523576178529695,0.8966821400573564,A,639,Correct
2,new_learn,50,824,B,13.32046587711912,63.64518667922914,0.6660232938559559,0.9997362545390861,A,953,Incorrect
2,new_learn,50,825,B,18.140425275722443,67.67863656195058,0.907021263786122,1.0630935371399877,B,991,Correct
2,new_learn,50,826,B,51.88201960550114,36.32578282980442,2.5941009802750568,0.570604062370059,B,3261,Correct
2,new_learn,50,827,A,83.26570519067458,34.375723409885126,4.163285259533729,0.5399726006316489,B,1816,Incorrect
2,new_learn,50,828,A,32.459541024990344,82.71605415293696,1.6229770512495174,1.2993007403040113,A,785,Correct
2,new_learn,50,829,A,74.65995846538165,49.158802266865735,3.732997923269082,0.7721846603042934,A,687,Correct
2,new_learn,50,830,B,56.18046350115253,29.429722952076105,2.8090231750576264,0.4622810071171261,B,613,Correct
2,new_learn,50,831,A,87.19491362642972,38.831236554130186,4.3597456813214865,0.6099596374413142,A,2032,Correct
2,new_learn,50,832,A,55.66418444230544,58.62373823698544,2.783209222115272,0.9208595268564224,A,1817,Correct
2,new_learn,50,833,A,83.64017844679975,35.49473930915639,4.182008922339987,0.5575500612736528,A,431,Correct
2,new_learn,50,834,A,75.4270860958632,57.03212019285518,3.77135430479316,0.8958584490826196,A,434,Correct
2,new_learn,50,835,B,25.654174302597756,56.33566444456419,1.2827087151298877,0.8849185477707129,A,692,Incorrect
2,new_learn,50,836,B,45.94686195735686,38.134576522534246,2.2973430978678433,0.5990165272547568,A,435,Incorrect
2,new_learn,50,837,A,30.428556755115615,87.82773379036541,1.5214278377557806,1.3795948162862601,A,4054,Correct
2,new_learn,50,838,B,19.194689476197222,58.052795754737815,0.9597344738098612,0.9118911833171651,100,5407,Correct
2,new_learn,50,839,A,70.23610471569299,55.12382530359733,3.5118052357846494,0.8658830230577427,A,666,Correct
2,new_learn,50,840,B,59.29808240511723,14.457604401419118,2.964904120255861,0.2270995188800288,B,1226,Correct
2,new_learn,50,841,B,62.754232010480486,13.683882872997131,3.137711600524024,0.21494592953195485,A,694,Incorrect
2,new_learn,50,842,B,59.27760466775169,32.24321840122141,2.9638802333875844,0.5064752902868421,B,720,Correct
2,new_learn,50,843,A,35.94695005675221,77.2345064966761,1.7973475028376102,1.213196791067954,A,1578,Correct
2,new_learn,50,844,B,44.569655353564784,42.3673195004924,2.228482767678239,0.6655042984751925,B,1047,Correct
2,new_learn,50,845,B,28.512488724914334,39.04616819035439,1.4256244362457167,0.6133357756882442,A,902,Incorrect
2,new_learn,50,846,A,67.8457993249083,43.35932838709732,3.3922899662454147,0.6810867376274616,A,3251,Correct
2,new_learn,50,847,B,13.01311714140843,67.41974188694209,0.6506558570704215,1.0590268290946867,B,1020,Correct
2,new_learn,50,848,A,73.89173522947391,46.64201771007396,3.6945867614736954,0.7326511009328668,A,1064,Correct
2,new_learn,50,849,A,64.40108073440673,57.388156064820116,3.2200540367203363,0.9014510474815169,A,560,Correct
2,new_learn,50,850,A,47.51366278264504,82.28142827221504,2.375683139132252,1.2924736529343313,A,909,Correct
2,new_learn,50,851,A,40.36111070634715,72.82106954299474,2.0180555353173575,1.1438706855141183,A,796,Correct
2,new_learn,50,852,A,62.52154388569163,48.07336459095026,3.1260771942845818,0.7551346451613652,A,569,Correct
2,new_learn,50,853,B,58.99409779360613,27.629084939494476,2.9497048896803064,0.4339966513566212,A,575,Incorrect
2,new_learn,50,854,B,51.10294786855803,22.03381337035873,2.5551473934279016,0.3461063310744377,B,515,Correct
2,new_learn,50,855,A,73.7177290555688,37.76916544895355,3.6858864527784396,0.5932766635332496,A,684,Correct
2,new_learn,50,856,A,55.605668863428576,67.6180429362383,2.780283443171429,1.0621417346930273,B,952,Incorrect
2,new_learn,50,857,B,43.30729413690217,28.479610738130205,2.1653647068451085,0.44735667936003415,B,833,Correct
2,new_learn,50,858,B,49.584936758950114,23.349667960135122,2.4792468379475054,0.3667757266366074,B,1672,Correct
2,new_learn,50,859,A,46.66382929463806,75.65929932649325,2.333191464731903,1.188453494699312,A,1106,Correct
2,new_learn,50,860,B,66.90070028721219,20.83346944216835,3.34503501436061,0.3272513727415177,B,1380,Correct
2,new_learn,50,861,B,50.74230488912863,25.2500800532015,2.5371152444564316,0.39662732998845995,B,1343,Correct
2,new_learn,50,862,B,13.279093229531853,67.51784581103419,0.6639546614765927,1.0605678419307671,A,1073,Incorrect
2,new_learn,50,863,A,68.77684301622833,62.98542671125802,3.4388421508114164,0.9893727691965326,B,952,Incorrect
2,new_learn,50,864,B,49.628492092046244,32.456054866713615,2.4814246046023123,0.5098185176688738,A,791,Incorrect
2,new_learn,50,865,A,64.68391221288911,44.90604421481987,3.234195610644456,0.7053824930352827,A,2004,Correct
2,new_learn,50,866,B,32.5458079809891,46.058356436484075,1.6272903990494552,0.7234829710863926,B,777,Correct
2,new_learn,50,867,B,30.488470377492703,38.61551497270397,1.5244235188746353,0.6065710907641673,B,606,Correct
2,new_learn,50,868,A,45.531092513906394,72.59255641545641,2.27655462569532,1.1402812097005022,A,866,Correct
2,new_learn,50,869,A,54.13339296229804,73.65130564901662,2.706669648114902,1.1569120037712353,A,603,Correct
2,new_learn,50,870,A,42.626144096551045,84.80546826796399,2.1313072048275523,1.33212118047439,A,685,Correct
2,new_learn,50,871,A,75.5351768371076,38.60007175778894,3.77675884185538,0.6063285093115428,B,3044,Incorrect
2,new_learn,50,872,A,43.97642878270623,70.99915213875104,2.1988214391353114,1.1152520738510217,A,645,Correct
2,new_learn,50,873,B,30.12822301891856,55.14808725339134,1.5064111509459281,0.8662641288739157,A,583,Incorrect
2,new_learn,50,874,B,45.07886402372392,27.219640902638872,2.253943201186196,0.4275651194654126,B,1271,Correct
2,new_learn,50,875,B,67.55515735979147,14.332995265793983,3.377757867989573,0.22514216315477834,A,818,Incorrect
2,new_learn,50,876,A,54.07564976306665,53.955941159637035,2.7037824881533323,0.8475379418231941,A,692,Correct
2,new_learn,50,877,B,56.92198927243841,22.201689105630564,2.84609946362192,0.3487433169576676,B,704,Correct
2,new_learn,50,878,A,65.85383167052983,65.23764654314584,3.292691583526491,1.0247505555871725,A,524,Correct
2,new_learn,50,879,A,71.6264079283052,37.738438280854055,3.5813203964152596,0.5927940023054146,A,1939,Correct
2,new_learn,50,880,B,26.83056363281249,58.847881450469146,1.3415281816406244,0.9243803602205847,B,7323,Correct
2,new_learn,50,881,B,21.350225557517653,50.30097623499712,1.0675112778758828,0.7901258870413086,A,580,Incorrect
2,new_learn,50,882,A,62.464387763644226,52.73678489045257,3.1232193881822115,0.8283874799289551,B,382,Incorrect
2,new_learn,50,883,B,50.37203437512809,34.98970142191533,2.5186017187564045,0.5496169446919477,B,441,Correct
2,new_learn,50,884,A,59.65391825160122,51.58698696244238,2.982695912580061,0.8103264963102071,A,931,Correct
2,new_learn,50,885,B,36.29525207864464,53.27690007862067,1.8147626039322318,0.8368715894651607,A,1143,Incorrect
2,new_learn,50,886,B,10.286835124296118,67.00539715436925,0.5143417562148059,1.0525183172551644,B,693,Correct
2,new_learn,50,887,B,61.296867506615314,20.965648758770698,3.0648433753307653,0.32932764059149,B,838,Correct
2,new_learn,50,888,A,33.45162128696577,88.1102867439278,1.6725810643482886,1.3840331477020684,A,2236,Correct
2,new_learn,50,889,B,27.48576535543784,49.82094561957834,1.3742882677718922,0.7825855837668194,B,5095,Correct
2,new_learn,50,890,A,83.7955790458583,33.17712187313242,4.189778952292915,0.5211450117194303,A,1897,Correct
2,new_learn,50,891,B,56.75985598489292,18.442509533414793,2.837992799244646,0.2896942623196782,B,556,Correct
2,new_learn,50,892,A,78.38894212438251,50.288595956067894,3.919447106219126,0.7899314180746414,A,511,Correct
2,new_learn,50,893,A,61.099666313421594,48.784619855599686,3.05498331567108,0.7663070167326135,B,389,Incorrect
2,new_learn,50,894,A,84.61651280215722,32.55930120289025,4.230825640107861,0.5114403073250867,B,985,Incorrect
2,new_learn,50,895,A,47.67337072424738,68.57867742040415,2.383668536212369,1.0772313458842293,A,852,Correct
2,new_learn,50,896,B,30.370721702869037,38.77328904819774,1.5185360851434517,0.609049400146658,A,634,Incorrect
2,new_learn,50,897,A,67.3650288815658,57.50256335170609,3.3682514440782905,0.9032481529415075,A,666,Correct
2,new_learn,50,898,B,41.92320332555149,28.449622693584317,2.0961601662775746,0.4468856282578297,B,519,Correct
