experiment,condition,subject,trial,cat,x,y,xt,yt,resp,rt,fb
2,new_learn,74,0,A,21.605398407889123,41.42211627623955,1.0802699203944561,0.6506570809478818,B,1307,Incorrect
2,new_learn,74,1,A,64.17880436529123,84.94335441615723,3.208940218264561,1.3342870910253686,B,1386,Incorrect
2,new_learn,74,2,A,29.06743359773312,58.981204059687784,1.453371679886656,0.926474586868978,A,756,Correct
2,new_learn,74,3,A,40.90191917738281,72.85591909963357,2.0450959588691404,1.1444181010697057,B,1257,Incorrect
2,new_learn,74,4,A,20.459199162762555,48.399976105696275,1.022959958138128,0.7602650468378849,A,801,Correct
2,new_learn,74,5,B,65.53675110315258,49.973952820828586,3.276837555157629,0.7849890152637901,A,540,Incorrect
2,new_learn,74,6,A,21.214548162872156,45.6268078235605,1.0607274081436078,0.7167042213262548,A,740,Correct
2,new_learn,74,7,B,48.65852837009729,27.19180366709218,2.4329264185048642,0.4271278531919639,B,525,Correct
2,new_learn,74,8,A,50.017509027893695,62.37582832858388,2.500875451394685,0.979797220193286,B,606,Incorrect
2,new_learn,74,9,A,47.090359011731536,65.03336272609694,2.354517950586577,1.0215416728927322,A,1230,Correct
2,new_learn,74,10,A,37.31832231768492,65.5947672266221,1.8659161158842459,1.0303601941654426,B,2294,Incorrect
2,new_learn,74,11,B,54.69193807471077,26.564583837698763,2.734596903735538,0.417275507150923,A,368,Incorrect
2,new_learn,74,12,A,49.52370674359409,79.26933863437621,2.4761853371797047,1.2451598595433893,B,658,Incorrect
2,new_learn,74,13,B,36.090949633491476,19.570911353329926,1.804547481674574,0.30741915665839187,B,1118,Correct
2,new_learn,74,14,A,58.69997290073868,84.37335349153796,2.934998645036934,1.325333537438752,A,1018,Correct
2,new_learn,74,15,B,36.764288980797545,16.569323327891745,1.8382144490398773,0.26027032220929347,B,963,Correct
2,new_learn,74,16,A,34.94697827859752,61.177670855893375,1.7473489139298761,0.9609766066230451,B,1872,Incorrect
2,new_learn,74,17,A,26.547067428167825,43.53019289036219,1.3273533714083914,0.6837706709685425,B,1405,Incorrect
2,new_learn,74,18,B,62.44360856165963,54.30156304737679,3.1221804280829817,0.8529669577404094,B,1445,Correct
2,new_learn,74,19,A,22.5883812511231,40.65243972217036,1.1294190625561549,0.6385670299083614,A,1009,Correct
2,new_learn,74,20,A,43.920410041557616,64.08301807283131,2.1960205020778805,1.0066136939873438,B,1475,Incorrect
2,new_learn,74,21,B,50.897041084840225,29.58277785921846,2.5448520542420114,0.4646851879764975,A,931,Incorrect
2,new_learn,74,22,A,41.952142049785,56.811876112887234,2.0976071024892504,0.8923988631644998,B,1202,Incorrect
2,new_learn,74,23,B,60.185024614679804,50.04617390884324,3.0092512307339905,0.7861234614614955,A,2187,Incorrect
2,new_learn,74,24,A,41.416315293943704,50.299988895025116,2.070815764697185,0.7901103779412953,B,823,Incorrect
2,new_learn,74,25,B,60.686895319488166,36.76666846621394,3.0343447659744083,0.5775294777521461,B,845,Correct
2,new_learn,74,26,A,46.35990365620607,66.50732287260405,2.3179951828103036,1.0446945847324864,A,1462,Correct
2,new_learn,74,27,B,51.19101510258561,40.19517888900449,2.55955075512928,0.6313843935371202,A,1073,Incorrect
2,new_learn,74,28,A,24.86239893122641,52.301258683597894,1.2431199465613205,0.8215462502694526,A,1076,Correct
2,new_learn,74,29,A,51.06379905330222,71.72975437215094,2.553189952665111,1.1267283468967486,B,756,Incorrect
2,new_learn,74,30,A,53.25337382462515,82.78288251170986,2.662668691231257,1.300350477708873,B,1042,Incorrect
2,new_learn,74,31,A,17.348510177628693,41.43096074795395,0.8674255088814347,0.650796009584696,A,1178,Correct
2,new_learn,74,32,A,59.236115525589845,74.06045481564433,2.9618057762794923,1.1633389038517354,A,1313,Correct
2,new_learn,74,33,B,56.172134166591725,26.434907406497103,2.8086067083295863,0.41523855453288855,B,1020,Correct
2,new_learn,74,34,B,54.038702166742155,24.249308165173165,2.701935108337108,0.380907241931715,B,785,Correct
2,new_learn,74,35,A,65.70321323209063,81.94592177855364,3.285160661604532,1.2872035292557396,A,822,Correct
2,new_learn,74,36,B,65.54316933585737,49.264983141234964,3.277158466792869,0.7738525455786439,A,1850,Incorrect
2,new_learn,74,37,B,63.54820964912548,42.13784488521054,3.1774104824562746,0.6618997196474184,B,507,Correct
2,new_learn,74,38,A,24.81397951158172,43.41110591205109,1.240698975579086,0.6819000570875408,A,1187,Correct
2,new_learn,74,39,A,68.47392647902171,87.9566912270108,3.4236963239510856,1.3816204749642145,A,1341,Correct
2,new_learn,74,40,B,68.25581352815985,52.095463789528296,3.412790676407992,0.8183136316326759,B,794,Correct
2,new_learn,74,41,A,13.83504617903722,34.779900991539904,0.691752308951861,0.5463214072380106,A,853,Correct
2,new_learn,74,42,A,56.70377140350454,84.61717109906502,2.835188570175227,1.3291634154618661,B,692,Incorrect
2,new_learn,74,43,A,31.13849237296099,62.80540181842745,1.5569246186480497,0.9865449447926334,A,719,Correct
2,new_learn,74,44,B,84.16864841576727,58.76945074810466,4.208432420788363,0.9231483736287637,B,753,Correct
2,new_learn,74,45,A,65.39187454222701,84.96676784880702,3.2695937271113507,1.3346548683654078,B,750,Incorrect
2,new_learn,74,46,B,45.09362780377534,28.326306440834514,2.2546813901887672,0.44494858108929475,A,837,Incorrect
2,new_learn,74,47,A,53.92840572343804,82.17732806605657,2.696420286171902,1.2908384507198083,B,755,Incorrect
2,new_learn,74,48,B,39.16416815428211,20.176709140041723,1.9582084077141053,0.3169350060398656,A,766,Incorrect
2,new_learn,74,49,A,38.34298216229124,55.74280675203511,1.917149108114562,0.8756059609133451,B,1133,Incorrect
2,new_learn,74,50,B,58.6990466639938,44.685011539591144,2.9349523331996896,0.7019105198917734,B,1161,Correct
2,new_learn,74,51,A,60.86164016596979,85.35860225487318,3.0430820082984895,1.3408097888230137,B,878,Incorrect
2,new_learn,74,52,A,52.82633808754493,80.41042051224612,2.6413169043772466,1.2630839317666922,A,890,Correct
2,new_learn,74,53,B,69.22275797338074,38.29486638925437,3.461137898669037,0.6015343545934211,B,672,Correct
2,new_learn,74,54,A,24.434821442371423,36.29095078396976,1.2217410721185713,0.5700569218735407,A,844,Correct
2,new_learn,74,55,B,43.87566631803333,16.934849410161483,2.1937833159016664,0.2660119924830638,B,1981,Correct
2,new_learn,74,56,A,20.477313488784375,48.25665302312744,1.0238656744392187,0.7580137331214444,A,820,Correct
2,new_learn,74,57,A,48.72664939011676,66.57053142956882,2.436332469505838,1.045687462423509,A,1784,Correct
2,new_learn,74,58,A,65.32572617958074,87.56861972062215,3.266286308979037,1.3755246619965242,A,1278,Correct
2,new_learn,74,59,A,65.16286502544583,83.56669528480775,3.2581432512722914,1.312662579957644,A,1170,Correct
2,new_learn,74,60,B,77.89159752258313,47.16641668709974,3.8945798761291566,0.7408883408017378,B,798,Correct
2,new_learn,74,61,B,37.09115665847544,26.925138629120074,1.854557832923772,0.42293908857065193,A,1069,Incorrect
2,new_learn,74,62,B,66.4592154659141,37.37947796802921,3.322960773295705,0.5871554668969103,B,496,Correct
2,new_learn,74,63,A,20.391153299503866,47.88098966900716,1.0195576649751934,0.7521128269538083,A,1010,Correct
2,new_learn,74,64,B,53.403687780551806,45.62748220841188,2.6701843890275905,0.7167148145387288,B,999,Correct
2,new_learn,74,65,B,55.474741241134936,39.811402684483426,2.773737062056747,0.6253560510133904,B,791,Correct
2,new_learn,74,66,B,61.99284226083411,48.74928783390089,3.099642113041705,0.7657520226335867,B,798,Correct
2,new_learn,74,67,A,51.097059276775525,73.36117936490675,2.5548529638387762,1.152354710757371,B,905,Incorrect
2,new_learn,74,68,B,40.25448771093988,25.22354791106325,2.012724385546994,0.3962105640743324,A,923,Incorrect
2,new_learn,74,69,A,12.835299184724,31.123768108610193,0.6417649592361999,0.48889100621021037,A,788,Correct
2,new_learn,74,70,A,39.01156341132982,50.90994459625894,1.9505781705664906,0.7996915396913523,B,444,Incorrect
2,new_learn,74,71,A,22.27871957031183,46.062975969213,1.1139359785155916,0.7235555345368136,A,837,Correct
2,new_learn,74,72,B,35.165489049046016,24.391970984756604,1.7582744524523009,0.38314818426143366,A,1398,Incorrect
2,new_learn,74,73,A,43.12418944397662,65.4439593506788,2.1562094721988307,1.0279913095896078,B,550,Incorrect
2,new_learn,74,74,A,37.5243630734201,58.389888414801234,1.8762181536710048,0.9171862224393367,A,766,Correct
2,new_learn,74,75,A,52.42064150153111,70.62126505119609,2.6210320750765557,1.1093162373602763,B,594,Incorrect
2,new_learn,74,76,B,84.74366920161903,56.618448546972076,4.237183460080951,0.8893605100640959,B,718,Correct
2,new_learn,74,77,A,23.413285815296973,34.30712788338748,1.1706642907648486,0.5388951046210783,A,704,Correct
2,new_learn,74,78,A,43.60933531365056,64.28336494323715,2.180466765682528,1.0097607352685274,A,707,Correct
2,new_learn,74,79,A,52.805187758506435,80.88711252748848,2.640259387925322,1.2705717924322437,A,577,Correct
2,new_learn,74,80,B,63.05554620018996,44.192831026047564,3.152777310009498,0.6941793664638305,A,1020,Incorrect
2,new_learn,74,81,B,38.00751833586256,19.76916812869691,1.9003759167931278,0.31053336680347843,B,1250,Correct
2,new_learn,74,82,B,59.32780228876934,35.36402775705692,2.966390114438467,0.5554968490145776,B,599,Correct
2,new_learn,74,83,B,62.377958391644505,49.83827534674663,3.1188979195822255,0.7828577984846226,B,566,Correct
2,new_learn,74,84,A,12.943746020865635,31.53536768339168,0.6471873010432817,0.4953563972119813,A,701,Correct
2,new_learn,74,85,A,33.68993522444591,66.15040262085968,1.6844967612222956,1.0390880945284988,A,943,Correct
2,new_learn,74,86,A,12.141088471809038,33.08363542189822,0.6070544235904519,0.5196765299773926,A,655,Correct
2,new_learn,74,87,B,45.22040418121694,19.014090490995816,2.261020209060847,0.29867263500602004,A,2255,Incorrect
2,new_learn,74,88,B,39.10890044001858,19.025815102684817,1.955445022000929,0.2988568047757618,B,600,Correct
2,new_learn,74,89,A,47.160445872845514,68.76230142426301,2.358022293642276,1.0801157049919583,B,592,Incorrect
2,new_learn,74,90,A,50.76696114498772,69.59676771062355,2.5383480572493857,1.0932234707664514,A,862,Correct
2,new_learn,74,91,B,83.08240499244856,52.56653844990122,4.154120249622428,0.8257132550942755,B,724,Correct
2,new_learn,74,92,B,52.13781478381962,35.809756861808886,2.6068907391909812,0.5624983454194773,B,603,Correct
2,new_learn,74,93,A,19.021447111665072,46.487967866802634,0.9510723555832535,0.7302312916533276,A,1003,Correct
2,new_learn,74,94,B,36.53447406770381,23.634920211854503,1.8267237033851904,0.37125645852871514,B,901,Correct
2,new_learn,74,95,B,71.96762967973316,42.79611145399365,3.598381483986658,0.6722397467303823,B,674,Correct
2,new_learn,74,96,A,34.48936293588082,51.14763620266285,1.724468146794041,0.8034251907138448,B,559,Incorrect
2,new_learn,74,97,A,58.257611429507264,79.73777994713068,2.9128805714753634,1.2525181184773264,B,815,Incorrect
2,new_learn,74,98,A,27.35986613668361,56.88259370822506,1.3679933068341805,0.8935096925544641,A,1458,Correct
2,new_learn,74,99,A,64.52641486800515,88.576668834424,3.226320743400257,1.3913590604484123,A,1617,Correct
2,new_learn,74,100,B,49.95944229848411,39.62454131129383,2.4979721149242056,0.6224208394271299,B,651,Correct
2,new_learn,74,101,B,36.96081634600769,12.095043824889121,1.8480408173003844,0.1899885041255913,B,601,Correct
2,new_learn,74,102,B,64.00986330173617,44.79189557130271,3.200493165086809,0.703589450335829,B,530,Correct
2,new_learn,74,103,B,70.78965333582724,37.80895736294048,3.5394826667913617,0.5939017134565177,B,502,Correct
2,new_learn,74,104,B,63.01227345894868,36.72931925093705,3.1506136729474337,0.5769427976504901,B,558,Correct
2,new_learn,74,105,B,50.81730933845618,42.111141315481454,2.5408654669228086,0.6614802609549907,B,784,Correct
2,new_learn,74,106,A,33.33791437210779,43.24933989823566,1.6668957186053894,0.6793590424845254,B,892,Incorrect
2,new_learn,74,107,A,19.016797575095797,38.29754085684233,0.9508398787547898,0.601576365032054,A,797,Correct
2,new_learn,74,108,B,71.13887660821152,38.81947114312983,3.556943830410576,0.6097748267974882,A,2300,Incorrect
2,new_learn,74,109,B,82.0577262779732,62.5087058411618,4.10288631389866,0.9818844552799966,B,638,Correct
2,new_learn,74,110,A,55.67647616186665,67.24584635662323,2.7838238080933326,1.0562952844919775,B,580,Incorrect
2,new_learn,74,111,B,42.00573240209823,30.58236722167556,2.1002866201049115,0.4803867009650062,A,831,Incorrect
2,new_learn,74,112,B,80.43951114209831,55.03512963143004,4.021975557104915,0.8644897946973128,B,467,Correct
2,new_learn,74,113,B,41.46784009837893,24.2314301734314,2.0733920049189463,0.38062641509413064,B,756,Correct
2,new_learn,74,114,A,53.122627739888806,73.15587288676974,2.6561313869944403,1.1491297641401228,B,877,Incorrect
2,new_learn,74,115,A,13.938860605617133,36.45882200411833,0.6969430302808567,0.5726938368333803,A,785,Correct
2,new_learn,74,116,B,78.22186665539694,49.32985103420225,3.9110933327698465,0.7748714880586433,B,571,Correct
2,new_learn,74,117,A,19.37081761717348,40.39239799981841,0.9685408808586741,0.6344823040855228,A,770,Correct
2,new_learn,74,118,A,26.68652242928346,51.26832512142063,1.334326121464173,0.8053209678165404,A,585,Correct
2,new_learn,74,119,A,23.70808288810596,48.51610379454091,1.185404144405298,0.7620891763086479,A,514,Correct
2,new_learn,74,120,B,85.30565683078476,62.16039481239794,4.265282841539237,0.9764131984343523,B,773,Correct
2,new_learn,74,121,B,49.97117654755974,38.60849114327928,2.498558827377987,0.6064607607095639,B,603,Correct
2,new_learn,74,122,A,55.18611039983233,73.9334501330547,2.7593055199916163,1.1613439189627597,B,939,Incorrect
2,new_learn,74,123,B,79.57841662207913,55.17242970538102,3.978920831103957,0.8666464992156215,B,667,Correct
2,new_learn,74,124,A,44.97349422256799,63.73260303883003,2.2486747111283996,1.0011093875047146,B,801,Incorrect
2,new_learn,74,125,B,81.44100303399209,65.80947087995591,4.072050151699605,1.0337327512655046,B,640,Correct
2,new_learn,74,126,B,82.91421115968981,56.55287573402493,4.14571055798449,0.8883304947269459,B,575,Correct
2,new_learn,74,127,B,37.8503843456611,20.24316084360732,1.892519217283055,0.31797882695856655,A,604,Incorrect
2,new_learn,74,128,B,55.958191195717774,41.927415098783335,2.7979095597858885,0.6585942962917375,B,655,Correct
2,new_learn,74,129,A,65.63642244602599,85.6685634763903,3.2818211223012996,1.345678648305093,B,1811,Incorrect
2,new_learn,74,130,A,58.09200906880115,77.56665423222474,2.9046004534400574,1.2184141554974843,B,483,Incorrect
2,new_learn,74,131,B,51.56497860891112,38.49280157531982,2.578248930445556,0.6046435132255717,A,618,Incorrect
2,new_learn,74,132,A,29.727480067250372,53.88018130871329,1.4863740033625186,0.8463479088676987,B,342,Incorrect
2,new_learn,74,133,A,39.7472247399543,71.32824534021803,1.987361236997715,1.1204214577713967,A,389,Correct
2,new_learn,74,134,B,33.611131329665035,14.203905611232642,1.6805565664832516,0.2231144276026565,B,782,Correct
2,new_learn,74,135,A,13.56544419118137,42.20456133125551,0.6782722095590685,0.6629476991312608,A,892,Correct
2,new_learn,74,136,B,79.71040741398821,52.41796395202231,3.9855203706994105,0.8233794523390394,B,766,Correct
2,new_learn,74,137,A,56.539482387159154,65.08076129746496,2.826974119357958,1.0222862079107342,B,408,Incorrect
2,new_learn,74,138,A,37.44002590219591,65.6996897877589,1.8720012951097957,1.0320083139017586,A,944,Correct
2,new_learn,74,139,B,46.68773997814565,18.625782357653208,2.3343869989072825,0.29257310511082846,A,1099,Incorrect
2,new_learn,74,140,A,24.690107945882662,38.09931894762279,1.2345053972941331,0.5984627025631308,A,1096,Correct
2,new_learn,74,141,B,66.32070087503777,56.05268027185421,3.316035043751889,0.8804734427803734,B,615,Correct
2,new_learn,74,142,B,60.773885431578876,40.345921528099495,3.038694271578944,0.6337522533749382,B,795,Correct
2,new_learn,74,143,B,58.02177980249585,45.829527645626726,2.9010889901247925,0.7198885368449562,B,641,Correct
2,new_learn,74,144,B,44.427574776562885,14.853997638734704,2.2213787388281445,0.2333260492914454,B,684,Correct
2,new_learn,74,145,A,51.27496529905052,76.15984225323297,2.563748264952526,1.196316004606571,B,773,Incorrect
2,new_learn,74,146,A,46.57655422830964,62.9823056299163,2.328827711415482,0.9893237433654606,A,751,Correct
2,new_learn,74,147,A,39.887208674691294,61.64133633859404,1.9943604337345646,0.968259846993923,A,925,Correct
2,new_learn,74,148,A,47.67898389575049,77.46421206822846,2.3839491947875247,1.2168049977483417,A,684,Correct
2,new_learn,74,149,A,41.53200221098348,49.334800335770794,2.076600110549174,0.774949231505884,A,528,Correct
2,new_learn,74,150,A,62.54741932405098,80.23890533994569,3.1273709662025486,1.260389777740301,B,1000,Incorrect
2,new_learn,74,151,B,65.42405016840877,52.72370125861158,3.2712025084204384,0.8281819627205853,A,661,Incorrect
2,new_learn,74,152,A,56.39520429540724,74.4097919158383,2.8197602147703615,1.1688262781897136,B,709,Incorrect
2,new_learn,74,153,A,59.94003679136516,86.54471678048014,2.997001839568258,1.3594412322228286,A,817,Correct
2,new_learn,74,154,A,50.001193788875206,67.98895662204733,2.5000596894437606,1.0679680332452952,B,808,Incorrect
2,new_learn,74,155,A,30.44838217632499,48.09168321237542,1.5224191088162495,0.7554223933938311,A,968,Correct
2,new_learn,74,156,B,56.40531073453721,48.26256550581851,2.8202655367268608,0.7581066061823779,B,3236,Correct
2,new_learn,74,157,B,68.58095193908783,54.3553654986754,3.429047596954391,0.8538120846691336,B,602,Correct
2,new_learn,74,158,A,59.082989724740486,82.95549150422903,2.9541494862370246,1.303061813423082,B,635,Incorrect
2,new_learn,74,159,B,57.047828725375766,35.786454524466464,2.8523914362687885,0.5621323131604453,B,695,Correct
2,new_learn,74,160,B,60.37498901232309,49.85212033424324,3.0187494506161543,0.7830752750396645,B,639,Correct
2,new_learn,74,161,B,35.66009515268462,11.195839851571122,1.783004757634231,0.1758638411423184,A,1605,Incorrect
2,new_learn,74,162,B,56.4125215942757,25.693562556879172,2.8206260797137848,0.40359353686620697,B,1014,Correct
2,new_learn,74,163,A,24.302305177434533,40.24147092809126,1.2151152588717267,0.6321115471866937,A,1116,Correct
2,new_learn,74,164,A,42.827560392571954,52.581353964259264,2.141378019628598,0.8259459766496072,A,764,Correct
2,new_learn,74,165,B,75.29722364306441,53.10096072166445,3.7648611821532203,0.834107940508706,B,746,Correct
2,new_learn,74,166,B,81.87365057926928,66.68036859508467,4.093682528963464,1.0474127805848878,B,636,Correct
2,new_learn,74,167,B,41.200760331460955,28.64783406246228,2.060038016573048,0.4499991251594547,B,1611,Correct
2,new_learn,74,168,A,13.945722086475442,42.22150820629664,0.6972861043237721,0.6632139000219135,A,681,Correct
2,new_learn,74,169,A,27.46623634005104,58.06943113993325,1.373311817002552,0.9121524913367633,A,1841,Correct
2,new_learn,74,170,A,28.704885983988618,57.2112347563198,1.435244299199431,0.8986719740662765,A,706,Correct
2,new_learn,74,171,A,56.95906343677335,84.73665815326434,2.8479531718386677,1.3310403137202247,A,1158,Correct
2,new_learn,74,172,B,43.05548553120283,19.56138899391594,2.1527742765601414,0.3072695797864928,B,1132,Correct
2,new_learn,74,173,B,55.07447377951455,45.798188513957214,2.7537236889757275,0.7193962629158422,A,3659,Incorrect
2,new_learn,74,174,B,75.79601931756447,58.767542251452035,3.7898009658782232,0.9231183950334473,B,778,Correct
2,new_learn,74,175,B,78.92022604517726,47.93883511918658,3.946011302258863,0.7530214611604447,B,442,Correct
2,new_learn,74,176,B,56.87711228135305,37.53577118151654,2.8438556140676523,0.5896105149533991,A,1914,Incorrect
2,new_learn,74,177,A,50.801978687292745,76.93919076240067,2.540098934364637,1.2085579823615082,A,1378,Correct
2,new_learn,74,178,A,32.02914829507397,63.72058501734831,1.6014574147536988,1.0009206088647267,A,2332,Correct
2,new_learn,74,179,A,55.45537479783893,66.17417851433501,2.7727687398919465,1.039461565389872,A,1128,Correct
2,new_learn,74,180,B,51.35538695910758,38.634958080563685,2.567769347955379,0.6068765023882423,B,1160,Correct
2,new_learn,74,181,A,48.24577152419946,72.76839487815992,2.412288576209973,1.1430432738137417,A,977,Correct
2,new_learn,74,182,A,64.45591911674556,79.46915949255929,3.2227959558372783,1.2482986382438992,B,1111,Incorrect
2,new_learn,74,183,B,52.53201149647177,36.596681260343125,2.6266005748235886,0.5748593249663061,B,2508,Correct
2,new_learn,74,184,A,32.94422283698332,59.98953352966822,1.6472111418491662,0.9423133891454214,A,645,Correct
2,new_learn,74,185,A,48.265002971225115,78.14092734524425,2.4132501485612554,1.2274348164625657,B,1032,Incorrect
2,new_learn,74,186,A,13.89424287284249,32.56352459427414,0.6947121436421244,0.5115066482018109,A,706,Correct
2,new_learn,74,187,B,54.1695982183288,47.39978658026462,2.70847991091644,0.7445541065114171,B,3130,Correct
2,new_learn,74,188,A,35.47178350050565,57.397957004020704,1.7735891750252823,0.9016050002744713,A,1492,Correct
2,new_learn,74,189,B,52.87190746607599,36.83099148777683,2.6435953733038,0.5785398614121394,A,668,Incorrect
2,new_learn,74,190,B,56.57617123447561,31.016255390506924,2.828808561723781,0.48720220038340684,B,616,Correct
2,new_learn,74,191,A,42.02110357045619,61.49030796152887,2.1010551785228095,0.9658874987945653,A,1309,Correct
2,new_learn,74,192,A,38.25726041834563,62.80260694945071,1.9128630209172814,0.986501043093408,B,2077,Incorrect
2,new_learn,74,193,A,37.025056852072886,47.516755703114235,1.8512528426036443,0.7463914531966229,A,864,Correct
2,new_learn,74,194,A,16.669269519067687,44.728772384843836,0.8334634759533843,0.702597913641577,A,709,Correct
2,new_learn,74,195,B,83.51265136952073,55.32591605305802,4.175632568476036,0.8690574571270634,B,1008,Correct
2,new_learn,74,196,A,18.85015267733341,42.1051467140971,0.9425076338666705,0.6613860979766393,B,1074,Incorrect
2,new_learn,74,197,A,10.895426998572635,33.619432067489754,0.5447713499286317,0.5280928040054346,A,813,Correct
2,new_learn,74,198,B,78.61654523345757,61.35007517266199,3.9308272616728788,0.9636847272980822,B,647,Correct
2,new_learn,74,199,A,37.00300735962717,48.645209310665685,1.8501503679813585,0.7641171610136256,B,788,Incorrect
2,new_learn,74,200,B,86.91875264661893,63.524452941314664,4.345937632330947,0.9978397734187234,A,634,Incorrect
2,new_learn,74,201,B,63.93142399916728,44.79593174071946,3.196571199958364,0.7036528503367705,B,390,Correct
2,new_learn,74,202,B,54.62270056613373,39.840559139957655,2.731135028306687,0.6258140395450033,B,688,Correct
2,new_learn,74,203,B,57.0760453945935,25.169743115027835,2.853802269729675,0.39536540031456857,B,482,Correct
2,new_learn,74,204,A,63.313674308078994,88.74351758310863,3.16568371540395,1.3939799144640534,B,565,Incorrect
2,new_learn,74,205,A,37.479600682034345,45.51767699033465,1.8739800341017172,0.7149899982065425,B,607,Incorrect
2,new_learn,74,206,B,74.07528563816685,42.04824635093363,3.7037642819083425,0.6604923091621345,B,463,Correct
2,new_learn,74,207,B,54.397425232658655,30.672080524597853,2.719871261632933,0.48179591423195595,B,544,Correct
2,new_learn,74,208,B,89.4598662508817,67.14858748087843,4.4729933125440855,1.0547675456442962,B,622,Correct
2,new_learn,74,209,B,67.50629568045692,37.408596249252696,3.3753147840228457,0.5876128557887947,B,1104,Correct
2,new_learn,74,210,A,53.965880495848026,79.59364355569672,2.698294024792401,1.250254029335107,A,1449,Correct
2,new_learn,74,211,B,77.49284168625539,52.493451893032066,3.8746420843127694,0.8245652141435938,B,583,Correct
2,new_learn,74,212,B,34.08596762966279,12.838326505532411,1.7042983814831394,0.20166396117083873,B,1319,Correct
2,new_learn,74,213,A,53.826565721815726,71.51214993057631,2.691328286090786,1.123310224321552,B,1444,Incorrect
2,new_learn,74,214,A,46.510309937104964,74.73825094076122,2.3255154968552483,1.1739857004882295,B,770,Incorrect
2,new_learn,74,215,A,57.260673012161554,73.03315309559923,2.863033650608078,1.1472020861681662,A,717,Correct
2,new_learn,74,216,A,45.09364490126992,57.98185834559586,2.254682245063496,0.91077690110004,A,687,Correct
2,new_learn,74,217,A,59.454617606043286,78.12234077214208,2.972730880302164,1.2271428592549996,B,1006,Incorrect
2,new_learn,74,218,A,52.5637408339532,65.19344391004168,2.6281870416976596,1.0240562222500258,B,848,Incorrect
2,new_learn,74,219,A,65.34728741770942,80.71721550196906,3.2673643708854714,1.267903056196051,A,835,Correct
2,new_learn,74,220,B,77.38569574303074,60.855097980402824,3.869284787151537,0.9559096437436029,B,981,Correct
2,new_learn,74,221,A,41.106223160254636,66.76459177892959,2.055311158012732,1.0487357552630334,A,653,Correct
2,new_learn,74,222,A,52.88920383789158,75.4840127927092,2.644460191894579,1.1857001002652658,A,587,Correct
2,new_learn,74,223,A,54.66866342367679,67.80277054567044,2.7334331711838393,1.0650434291965634,A,484,Correct
2,new_learn,74,224,A,37.054604452522135,57.34156433606295,1.8527302226261069,0.900719186317609,A,1092,Correct
2,new_learn,74,225,B,59.59430501272594,38.54823870772966,2.979715250636297,0.605514317665146,B,856,Correct
2,new_learn,74,226,B,75.04123625497579,62.49537684934987,3.7520618127487895,0.9816750839662159,B,942,Correct
2,new_learn,74,227,B,33.140063895140784,18.832468172635107,1.6570031947570392,0.29581971830057024,A,1145,Incorrect
2,new_learn,74,228,B,47.77149289067994,39.41878978897775,2.388574644533997,0.6191889020722642,B,541,Correct
2,new_learn,74,229,B,78.19421359018668,59.76918999305698,3.9097106795093337,0.9388522409660018,A,911,Incorrect
2,new_learn,74,230,B,33.96045313886869,16.559627467071586,1.6980226569434342,0.2601180199836792,B,503,Correct
2,new_learn,74,231,B,44.15223112775695,22.464246316085283,2.2076115563878473,0.35286755597522557,B,581,Correct
2,new_learn,74,232,B,40.892151488484686,20.045923917943572,2.044607574424234,0.31488063657515725,B,536,Correct
2,new_learn,74,233,A,38.014208032149604,57.54507689342091,1.9007104016074803,0.9039159540931545,A,708,Correct
2,new_learn,74,234,A,32.097981454974864,49.215005996546836,1.6048990727487433,0.7730675064256458,A,633,Correct
2,new_learn,74,235,B,51.04761109043599,37.67219055845937,2.5523805545217995,0.5917533855154536,A,645,Incorrect
2,new_learn,74,236,B,57.026402926543014,37.22436111685524,2.8513201463271507,0.5847188970964299,B,397,Correct
2,new_learn,74,237,B,56.677000566481865,38.54545273096772,2.8338500283240933,0.605470555644504,B,469,Correct
2,new_learn,74,238,B,70.76889379402616,51.29669717092777,3.5384446897013078,0.8057666349280351,B,345,Correct
2,new_learn,74,239,B,47.71854813468803,21.919663675395125,2.3859274067344014,0.34431327185890187,A,823,Incorrect
2,new_learn,74,240,B,55.01860146119559,30.7436824825649,2.7509300730597794,0.48292063515761546,B,465,Correct
2,new_learn,74,241,A,48.96254082594483,60.29123255664053,2.448127041297241,0.9470524663790784,B,547,Incorrect
2,new_learn,74,242,A,68.83617068984773,89.25096806883401,3.4418085344923868,1.4019509280541307,A,411,Correct
2,new_learn,74,243,B,38.02899247112636,16.81586241094193,1.9014496235563179,0.26414294906995955,B,598,Correct
2,new_learn,74,244,B,72.10435506564329,58.376369787780625,3.6052177532821643,0.9169738723426638,B,550,Correct
2,new_learn,74,245,B,84.8330670006643,56.15989589186751,4.241653350033215,0.8821575818012928,B,644,Correct
2,new_learn,74,246,B,68.90999619982448,37.00163109585944,3.445499809991224,0.5812202621079583,B,601,Correct
2,new_learn,74,247,B,46.325796950973185,22.444825144796553,2.3162898475486595,0.3525624889300015,B,943,Correct
2,new_learn,74,248,A,65.11324023470988,79.17677630299761,3.255662011735494,1.2437058938420984,B,654,Incorrect
2,new_learn,74,249,B,38.602595863904135,28.992697711823574,1.9301297931952066,0.4554162306960727,A,482,Incorrect
2,new_learn,74,250,A,55.13353872520382,62.68516519955177,2.7566769362601913,0.9846562723998719,B,395,Incorrect
2,new_learn,74,251,B,45.61283033114341,28.903054348602705,2.2806415165571705,0.45400811603938396,A,314,Incorrect
2,new_learn,74,252,B,54.97557440895385,39.113152766599875,2.7487787204476923,0.6143879669514273,B,343,Correct
2,new_learn,74,253,A,63.07671743801574,75.09465431463505,3.153835871900787,1.1795840715936128,B,1056,Incorrect
2,new_learn,74,254,B,42.981256844146955,19.105023831272877,2.149062842207348,0.300101012574924,A,430,Incorrect
2,new_learn,74,255,B,75.29718102384624,60.540968088981316,3.7648590511923117,0.9509753029477891,B,271,Correct
2,new_learn,74,256,B,56.603698073149324,49.651774671107006,2.8301849036574662,0.7799282527222278,B,741,Correct
2,new_learn,74,257,A,49.85084757901008,71.68382742669056,2.4925423789505037,1.1260069281244478,A,667,Correct
2,new_learn,74,258,B,63.132434911467406,41.21728962040287,3.1566217455733705,0.6474396713617024,A,724,Incorrect
2,new_learn,74,259,A,53.77214845646731,70.40474516533253,2.6886074228233654,1.105915150946351,B,355,Incorrect
2,new_learn,74,260,A,39.628293220310574,65.13612197072823,1.9814146610155288,1.0231558113328425,A,386,Correct
2,new_learn,74,261,A,64.23382953849875,84.23800863641988,3.211691476924938,1.3232075454260512,B,352,Incorrect
2,new_learn,74,262,B,31.72340799402633,15.987226220374843,1.5861703997013166,0.25112676222603864,B,851,Correct
2,new_learn,74,263,A,41.117923648962815,60.06697705070541,2.0558961824481408,0.9435298691292142,B,745,Incorrect
2,new_learn,74,264,B,64.87157955914024,50.4715616337182,3.243578977957012,0.7928054362184679,A,382,Incorrect
2,new_learn,74,265,A,37.71645981876327,56.90758884983669,1.8858229909381634,0.8939023153207768,B,340,Incorrect
2,new_learn,74,266,B,67.16459696482619,43.41294763131113,3.3582298482413093,0.6819289867460272,A,304,Incorrect
2,new_learn,74,267,A,66.5068336992869,83.88375795798163,3.325341684964345,1.3176429887814973,B,555,Incorrect
2,new_learn,74,268,B,79.24838260002747,65.47650560429062,3.9624191300013734,1.0285025449458518,B,887,Correct
2,new_learn,74,269,A,61.11223964546656,70.83753407681914,3.055611982273328,1.112713383270758,B,501,Incorrect
2,new_learn,74,270,A,40.70371265328062,58.4993396359891,2.0351856326640307,0.9189054782013879,A,631,Correct
2,new_learn,74,271,A,29.3101365597948,42.49340992591829,1.4655068279897399,0.6674849222462225,A,1102,Correct
2,new_learn,74,272,B,78.64975581698837,55.100286306530506,3.932487790849419,0.8655132733564526,B,740,Correct
2,new_learn,74,273,A,38.69053958070479,47.876549092480865,1.9345269790352393,0.7520430745408448,B,1100,Incorrect
2,new_learn,74,274,B,62.10687823877011,29.676236987697536,3.105343911938505,0.4661532405337014,A,640,Incorrect
2,new_learn,74,275,A,68.4463166042741,89.31881702022326,3.422315830213705,1.403016696890322,B,1230,Incorrect
2,new_learn,74,276,A,22.957576252947742,35.01698378697954,1.1478788126473871,0.550045495080239,A,564,Correct
2,new_learn,74,277,A,63.35463716122672,82.61015478715784,3.167731858061336,1.2976372769562536,B,1237,Incorrect
2,new_learn,74,278,A,45.14565094916045,71.51426965162975,2.2572825474580225,1.1233435208219975,A,1651,Correct
2,new_learn,74,279,A,60.28858642792598,70.50411982767993,3.0144293213962987,1.1074761244922686,A,862,Correct
2,new_learn,74,280,A,64.12040982238253,80.78146323210049,3.206020491119126,1.2689122571810043,A,531,Correct
2,new_learn,74,281,B,56.614201648195845,29.144380438477068,2.830710082409792,0.4577988573947282,B,848,Correct
2,new_learn,74,282,B,52.974954361033,28.704791437362424,2.64874771805165,0.4508938095122249,B,1031,Correct
2,new_learn,74,283,A,57.94858077618968,80.8362678889183,2.897429038809484,1.269773126717211,A,615,Correct
2,new_learn,74,284,A,27.614854811255537,56.83756016602064,1.3807427405627768,0.8928023073276915,A,874,Correct
2,new_learn,74,285,B,61.98656116266532,40.12544010568526,3.0993280581332656,0.6302889392903902,A,984,Incorrect
2,new_learn,74,286,A,53.71189350722474,63.82807034873471,2.6855946753612367,1.0026089845019872,B,482,Incorrect
2,new_learn,74,287,B,35.61324363759586,23.36409853495699,1.780662181879793,0.36700240157584463,B,713,Correct
2,new_learn,74,288,B,66.98898293096941,49.41757400924197,3.349449146548471,0.7762494373283223,B,692,Correct
2,new_learn,74,289,B,43.88564833947598,34.960626782770575,2.194282416973799,0.5491602413282329,B,675,Correct
2,new_learn,74,290,A,33.16655480392972,42.447388270897534,1.6583277401964862,0.6667620157796262,B,609,Incorrect
2,new_learn,74,291,B,38.54522925451313,11.642435309034926,1.9272614627256563,0.1828789461837927,A,558,Incorrect
2,new_learn,74,292,A,27.380200865376942,53.64621993178465,1.369010043268847,0.8426728521527849,B,645,Incorrect
2,new_learn,74,293,A,62.75313565058828,81.23257962756212,3.1376567825294135,1.2759983769504852,A,317,Correct
2,new_learn,74,294,A,46.60124326810223,71.47866319515953,2.3300621634051115,1.1227842159116614,B,356,Incorrect
2,new_learn,74,295,B,39.441584362453426,29.56715009753664,1.9720792181226714,0.46443970767003917,A,325,Incorrect
2,new_learn,74,296,A,42.83522653374011,69.46456157364807,2.1417613266870057,1.0911467816230431,B,281,Incorrect
2,new_learn,74,297,B,77.90193269194971,62.83539762160616,3.8950966345974853,0.9870161177671575,B,567,Correct
2,new_learn,74,298,B,57.045641654245934,27.99555011407847,2.8522820827122968,0.43975307285796905,B,830,Correct
2,new_learn,74,299,A,36.310034801889415,59.12908387958033,1.8155017400944706,0.9287974776479211,A,971,Correct
2,new_learn,74,300,A,37.09839059999555,50.39276525179619,1.8549195299997774,0.7915677055455895,A,633,Incorrect
2,new_learn,74,301,B,70.13213383720455,38.767644040214364,3.5066066918602274,0.6089607285686078,B,895,Correct
2,new_learn,74,302,B,55.83021560120354,34.24780639539479,2.791510780060177,0.537963284866689,A,618,Incorrect
2,new_learn,74,303,B,65.46760035548006,33.54185612424455,3.2733800177740027,0.5268742439384625,B,376,Incorrect
2,new_learn,74,304,A,42.70247618197017,75.27095130014881,2.1351238090985083,1.1823533381663132,A,1302,Correct
2,new_learn,74,305,B,56.96695489629185,36.983437997073935,2.8483477448145926,0.5809344855805054,A,1011,Incorrect
2,new_learn,74,306,A,20.8911986184437,51.07545336606103,1.044559930922185,0.802291345367927,A,909,Correct
2,new_learn,74,307,B,55.999579573105756,39.92326568853105,2.7999789786552878,0.627113190972013,A,1170,Incorrect
2,new_learn,74,308,B,65.65161039812483,40.24754910759903,3.2825805199062414,0.6322070230071377,A,656,Incorrect
2,new_learn,74,309,A,19.284654273174066,40.543630610948696,0.9642327136587033,0.6368578603860734,A,736,Correct
2,new_learn,74,310,A,21.41162087069997,39.10956555803582,1.0705810435349985,0.6143316192110686,A,1392,Incorrect
2,new_learn,74,311,A,46.94966862261164,61.91259575008482,2.347483431130582,0.9725207798657056,A,1123,Incorrect
2,new_learn,74,312,B,74.53759314627781,55.85503005267419,3.7268796573138907,0.8773687603975918,B,554,Correct
2,new_learn,74,313,B,88.52414798466961,61.94911678566322,4.426207399233481,0.9730944509510786,B,722,Correct
2,new_learn,74,314,B,82.92891092952595,60.90068840624762,4.146445546476298,0.9566257764781431,B,780,Correct
2,new_learn,74,315,A,35.714583037804104,54.6712963468421,1.7857291518902054,0.858774714827348,B,783,Correct
2,new_learn,74,316,A,14.775425636494358,44.057880542495994,0.738771281824718,0.6920595692252105,A,753,Correct
2,new_learn,74,317,B,72.28637768896225,62.7015693452489,3.6143188844481124,0.9849139481179245,B,1164,Correct
2,new_learn,74,318,A,35.312150815465955,63.36224086385026,1.7656075407732976,0.995291752064295,B,1037,Correct
2,new_learn,74,319,B,82.90059686401779,65.98766675385264,4.145029843200889,1.0365318455071746,B,698,Incorrect
2,new_learn,74,320,A,58.16866738894198,68.2356190166301,2.908433369447099,1.0718425970789853,B,3050,Incorrect
2,new_learn,74,321,A,45.532004106616846,75.36815117722011,2.2766002053308423,1.183880150264998,B,396,Incorrect
2,new_learn,74,322,A,36.36218481453247,50.3550951997524,1.8181092407266235,0.790975985751784,B,1343,Incorrect
2,new_learn,74,323,A,13.410681020479451,35.846749073501435,0.6705340510239725,0.5630794177219441,A,1764,Incorrect
2,new_learn,74,324,B,54.31106922931456,28.511667862068432,2.7155534614657277,0.447860231485332,A,1026,Incorrect
2,new_learn,74,325,A,46.51847206810877,67.9385902856466,2.3259236034054385,1.0671768806831712,B,1063,Correct
2,new_learn,74,326,B,80.09220727908877,57.47982471851558,4.004610363954439,0.9028909753265876,B,2362,Correct
2,new_learn,74,327,A,56.93618219180108,75.24163574144737,2.8468091095900543,1.1818928504470512,B,532,Incorrect
2,new_learn,74,328,B,86.32173025346033,62.84130108836305,4.316086512673016,0.9871088492061282,B,495,Incorrect
2,new_learn,74,329,B,74.96127612043001,52.77583354811118,3.7480638060215004,0.8290008548091192,A,2040,Correct
2,new_learn,74,330,B,37.37690797050679,11.250512895916835,1.8688453985253397,0.1767226433146478,B,1667,Correct
2,new_learn,74,331,B,73.17220415083244,48.930785886228655,3.658610207541622,0.7686029873727555,A,1575,Incorrect
2,new_learn,74,332,B,69.60961653106264,49.24293636083762,3.480480826553132,0.7735062355619858,A,951,Incorrect
2,new_learn,74,333,B,75.81912298132983,63.915920123358205,3.790956149066491,1.0039889255348708,A,719,Incorrect
2,new_learn,74,334,B,79.7164807744104,64.92532853550611,3.98582403872052,1.0198446757952488,A,665,Incorrect
2,new_learn,74,335,B,50.681151046442636,24.539670118763595,2.534057552322132,0.3854682368331234,B,916,Correct
2,new_learn,74,336,A,36.11924156575489,56.13146479014145,1.8059620782877446,0.8817109870997126,B,2311,Incorrect
2,new_learn,74,337,A,25.367852282200957,37.58540498957365,1.268392614110048,0.5903901609872085,B,1526,Incorrect
2,new_learn,74,338,A,45.505133127413146,60.75491143668532,2.2752566563706575,0.9543359171949454,A,916,Incorrect
2,new_learn,74,339,B,53.06822940985563,37.94368478270394,2.653411470492782,0.5960180068173476,A,2122,Incorrect
2,new_learn,74,340,B,63.91079665684628,32.39859815827413,3.195539832842314,0.5089159898032091,B,615,Correct
2,new_learn,74,341,A,38.40697750560235,47.71384329634782,1.9203488752801174,0.7494872978717045,B,900,Incorrect
2,new_learn,74,342,B,84.32290333593511,61.983984190598974,4.216145166796755,0.9736421468670582,B,1220,Incorrect
2,new_learn,74,343,A,38.78572883899997,64.27794827531478,1.9392864419499987,1.0096756504477682,A,1092,Correct
2,new_learn,74,344,A,22.12876842425047,52.07141257007768,1.1064384212125236,0.8179358359609962,A,3870,Incorrect
2,new_learn,74,345,B,49.13318992992363,33.962256738473236,2.456659496496181,0.5334778813445898,A,1668,Correct
2,new_learn,74,346,A,37.51720789724908,70.34195833841181,1.875860394862454,1.1049288977753693,A,3290,Correct
2,new_learn,74,347,A,67.69800796893745,80.33660331363747,3.384900398446872,1.2619244139224044,B,1679,Incorrect
2,new_learn,74,348,B,51.4352928193524,24.696231244281613,2.5717646409676203,0.3879274932419491,A,1531,Incorrect
2,new_learn,74,349,B,65.50928715762339,42.92724802872829,3.275464357881169,0.6742996352293987,A,5044,Correct
2,new_learn,74,350,A,45.814509917694764,72.03317694650758,2.290725495884738,1.1314944975494092,B,549,Incorrect
2,new_learn,74,351,A,34.758582880401015,61.874792233708,1.7379291440200506,0.9719269636190592,A,1349,Correct
2,new_learn,74,352,B,44.61693877583278,25.328401829456574,2.2308469387916388,0.3978576055729553,B,1175,Incorrect
2,new_learn,74,353,A,19.58997718633658,32.948193472815674,0.979498859316829,0.5175490128162644,A,1073,Correct
2,new_learn,74,354,A,31.254734864996685,55.639390909284366,1.5627367432498342,0.8739815086540924,B,1216,Incorrect
2,new_learn,74,355,A,65.13546074341028,88.15382368007096,3.2567730371705137,1.3847170242958042,B,1265,Incorrect
2,new_learn,74,356,A,26.60183262445845,41.38660079391377,1.3300916312229225,0.650099205056065,A,770,Incorrect
2,new_learn,74,357,A,25.74656040633246,39.68490802224768,1.2873280203166229,0.6233690775053997,B,482,Correct
2,new_learn,74,358,B,57.30012663895679,32.25462334800258,2.8650063319478396,0.5066544387719536,B,2339,Correct
2,new_learn,74,359,B,84.33042431938105,69.23407528310986,4.216521215969053,1.0875263114375031,B,889,Incorrect
2,new_learn,74,360,B,69.53128679881227,46.667741591739436,3.476564339940614,0.7330551707211773,A,1263,Correct
2,new_learn,74,361,A,36.41967115552802,59.55963393230149,1.820983557776401,0.9355605420610786,A,1203,Incorrect
2,new_learn,74,362,B,42.604136363692035,23.5119245132185,2.1302068181846017,0.3693244466124251,B,742,Correct
2,new_learn,74,363,B,47.06782084553599,27.919756643337394,2.3533910422767996,0.43856251180361794,B,861,Correct
2,new_learn,74,364,A,35.10411286763154,66.56912762411662,1.7552056433815773,1.0456654114990307,B,722,Correct
2,new_learn,74,365,B,43.29611321312332,20.081818143834585,2.1648056606561656,0.31544446175698476,B,1006,Correct
2,new_learn,74,366,B,61.259754842215045,28.97126147847071,3.062987742110752,0.4550795111299628,B,795,Correct
2,new_learn,74,367,B,61.20717101027765,43.689829039155605,3.0603585505138824,0.6862782297300263,B,697,Correct
2,new_learn,74,368,B,43.76999341144381,17.17090083893037,2.1884996705721904,0.2697198796555123,B,817,Incorrect
2,new_learn,74,369,A,28.00342987345071,48.36312604597026,1.4001714936725356,0.7596862074532869,A,879,Correct
2,new_learn,74,370,B,63.29341918946681,36.46794317033853,3.1646709594733404,0.572837111777328,A,619,Correct
2,new_learn,74,371,B,72.95069148629646,44.55021429166523,3.6475345743148235,0.6997931296727324,A,427,Correct
2,new_learn,74,372,B,88.39872141900729,68.06605714434342,4.419936070950365,1.0691791254174619,A,622,Incorrect
2,new_learn,74,373,A,52.740798127411146,66.81175609706891,2.637039906370557,1.0494766106399238,B,452,Incorrect
2,new_learn,74,374,B,51.386124756254034,39.51759940515945,2.569306237812702,0.6207409998937665,A,497,Correct
2,new_learn,74,375,A,54.29936090297749,73.37021218404746,2.7149680451488747,1.1524965979486392,A,486,Incorrect
2,new_learn,74,376,A,20.400747472512386,52.229398623371566,1.0200373736256194,0.8204174750829848,B,317,Incorrect
2,new_learn,74,377,A,31.982096237236497,58.56878733542242,1.599104811861825,0.9199963601131298,A,598,Incorrect
2,new_learn,74,378,A,31.668048208027276,44.08936453747458,1.583402410401364,0.6925541186618625,B,747,Incorrect
2,new_learn,74,379,B,56.95265844610664,28.750017205284188,2.8476329223053316,0.4516042142135048,A,549,Incorrect
2,new_learn,74,380,B,37.27462136504971,13.424121027245612,1.8637310682524855,0.2108656000004754,B,1157,Incorrect
2,new_learn,74,381,A,35.488128092444605,52.11016630153185,1.7744064046222303,0.8185445781511742,A,325,Correct
2,new_learn,74,382,A,61.90130842767383,85.58735357065132,3.095065421383692,1.3444030060887517,A,655,Correct
2,new_learn,74,383,B,66.24334776419572,50.53511833047257,3.312167388209786,0.7938037824765175,A,489,Incorrect
2,new_learn,74,384,B,79.32341600900313,61.42718873769152,3.9661708004501564,0.9648960243450267,B,545,Incorrect
2,new_learn,74,385,A,33.53771042451721,56.17823007708156,1.6768855212258602,0.8824455745091829,A,325,Incorrect
2,new_learn,74,386,A,29.24596172609879,42.80856103255085,1.4622980863049395,0.6724353042530602,B,280,Correct
2,new_learn,74,387,A,16.922382156715482,36.97793481138753,0.8461191078357742,0.5808480417418866,A,898,Correct
2,new_learn,74,388,B,45.92934016690042,36.690678298539595,2.296467008345021,0.5763358269895922,A,770,Incorrect
2,new_learn,74,389,B,78.36351112720465,48.83355202014775,3.9181755563602327,0.7670756413759557,B,623,Correct
2,new_learn,74,390,B,60.999697352874485,27.93332266498513,3.0499848676437242,0.4387756063733527,B,516,Correct
2,new_learn,74,391,B,61.646159025734875,36.94942922193694,3.0823079512867433,0.5804002769898655,B,397,Correct
2,new_learn,74,392,A,52.343875031936776,77.04240185964679,2.6171937515968384,1.2101792184858948,A,694,Correct
2,new_learn,74,393,B,54.461980022193856,23.976185286823615,2.723099001109693,0.37661703779096384,B,645,Correct
2,new_learn,74,394,A,28.266247352747975,44.769212641123445,1.4133123676373986,0.7032331477017636,B,626,Correct
2,new_learn,74,395,A,33.373247657433616,60.67302215808947,1.6686623828716807,0.9530496034147232,B,428,Incorrect
2,new_learn,74,396,A,55.68255293578055,74.0479729059156,2.7841276467890275,1.1631428384722025,B,666,Incorrect
2,new_learn,74,397,B,40.24749443604662,32.00695820069993,2.012374721802331,0.5027641237353723,A,781,Correct
2,new_learn,74,398,A,64.97411553783326,80.4073213660609,3.2487057768916627,1.2630352504922526,A,814,Incorrect
2,new_learn,74,399,B,59.782931884840394,41.86325947255494,2.98914659424202,0.6575865420715095,B,523,Incorrect
2,new_learn,74,400,A,42.19768491567557,74.91312714733553,2.1098842457837788,1.176732649517537,A,682,Incorrect
2,new_learn,74,401,B,59.91230647015664,39.230764097461346,2.9956153235078324,0.6162354014164938,B,469,Correct
2,new_learn,74,402,B,79.59593172403227,50.80955831073764,3.9797965862016134,0.798114675605778,B,884,Correct
2,new_learn,74,403,B,33.51715301638556,14.486936706353259,1.6758576508192784,0.22756026964849857,B,1233,Incorrect
2,new_learn,74,404,B,49.63232956553807,19.707019225724604,2.4816164782769037,0.3095571341184462,A,835,Correct
2,new_learn,74,405,B,54.99871568561652,44.14762696075931,2.749935784280826,0.6934693026667206,B,1019,Correct
2,new_learn,74,406,B,61.276434370041095,45.97340638984771,3.0638217185020546,0.7221485788742181,B,982,Correct
2,new_learn,74,407,B,65.20858166851798,53.19305986485851,3.260429083425899,0.8355546304670078,B,753,Correct
2,new_learn,74,408,A,58.808691531806076,69.4407700871024,2.9404345765903037,1.0907730658262937,B,861,Incorrect
2,new_learn,74,409,A,38.67959232810972,61.83664653648345,1.933979616405486,0.9713277724082255,B,867,Incorrect
2,new_learn,74,410,A,66.47628327665853,82.7338226404539,3.323814163832927,1.2995798470532542,B,592,Incorrect
2,new_learn,74,411,A,15.893046621768764,39.62909188474728,0.7946523310884381,0.6224923196677848,B,1048,Correct
2,new_learn,74,412,A,42.97510917058688,75.29547191171193,2.1487554585293442,1.182738507032054,B,839,Incorrect
2,new_learn,74,413,A,62.218382361534246,83.59128684211825,3.1109191180767124,1.313048863236579,B,1073,Incorrect
2,new_learn,74,414,B,58.50477868756201,25.769362332966505,2.9252389343781005,0.4047841969647056,B,527,Incorrect
2,new_learn,74,415,B,77.95986770816813,52.8954829420028,3.8979933854084066,0.8308803030934011,A,471,Incorrect
2,new_learn,74,416,B,55.80018150083096,37.862117217367455,2.7900090750415476,0.594736746497186,B,295,Correct
2,new_learn,74,417,B,59.92029100929726,27.474746344108738,2.996014550464863,0.43157230636947524,B,425,Correct
2,new_learn,74,418,B,37.38468762241439,26.341751593069347,1.8692343811207195,0.41377526643736945,B,636,Incorrect
2,new_learn,74,419,B,57.935368308208204,33.83563658215955,2.8967684154104103,0.5314889365802326,B,543,Correct
2,new_learn,74,420,A,51.13718160204148,64.43026143732898,2.556859080102074,1.0120681800019125,B,364,Incorrect
2,new_learn,74,421,A,56.99751335295301,75.99594545863098,2.84987566764765,1.1937415197772285,A,1726,Incorrect
2,new_learn,74,422,A,31.568032446539455,40.31137907856329,1.5784016223269728,0.6332096618464387,B,1159,Correct
2,new_learn,74,423,A,40.35607891704778,63.41860389254967,2.017803945852389,0.9961771004487755,B,706,Incorrect
2,new_learn,74,424,B,66.58507119354866,40.60049885056789,3.3292535596774324,0.6377511446051246,A,1142,Correct
2,new_learn,74,425,A,45.97728705380721,67.23809168411763,2.2988643526903605,1.0561734743811046,A,3805,Incorrect
2,new_learn,74,426,A,48.88195286907651,66.4323450478828,2.4440976434538255,1.0435168358158544,B,1398,Incorrect
2,new_learn,74,427,A,49.1505566219494,64.91108818846303,2.4575278310974698,1.0196209889469732,A,1217,Correct
2,new_learn,74,428,B,79.37365782810978,54.415942975695785,3.9686828914054892,0.854763633453035,B,1623,Correct
2,new_learn,74,429,B,35.897322583842275,12.022366377209394,1.7948661291921137,0.18884688944702982,B,1861,Correct
2,new_learn,74,430,B,45.6581030621969,26.18919694003882,2.282905153109845,0.4113789435512112,B,839,Correct
2,new_learn,74,431,B,46.92275731665455,24.169234393839602,2.3461378658327274,0.3796494460728812,B,917,Correct
2,new_learn,74,432,B,67.77339896075807,48.11396179245106,3.3886699480379034,0.7557723445113211,A,1450,Incorrect
2,new_learn,74,433,A,48.95178419850417,73.97371730903511,2.4475892099252086,1.161976434283964,A,1225,Incorrect
2,new_learn,74,434,B,57.975291814139794,44.21301631671831,2.8987645907069894,0.6944964362682394,B,528,Correct
2,new_learn,74,435,B,88.19091829557647,61.86774325634545,4.409545914778823,0.9718162385415716,B,723,Correct
2,new_learn,74,436,B,52.06743003271986,22.552694058169894,2.603371501635993,0.3542568898590236,B,757,Correct
2,new_learn,74,437,A,53.900334295078935,70.28232566526366,2.695016714753947,1.1039921899359884,B,1470,Incorrect
2,new_learn,74,438,B,83.3975812583889,60.10601069916967,4.169879062919445,0.9441430082455047,A,932,Correct
2,new_learn,74,439,B,64.76397553219587,41.17215629137372,3.238198776609794,0.6467307186871523,A,595,Correct
2,new_learn,74,440,B,47.369974979680784,32.7329968714035,2.3684987489840394,0.5141687125058946,B,1114,Correct
2,new_learn,74,441,B,53.6245198309685,22.254666311937537,2.681225991548425,0.3495754809683761,A,2708,Correct
2,new_learn,74,442,B,58.678736522997,46.24303815761894,2.93393682614985,0.7263839447782406,B,1055,Incorrect
2,new_learn,74,443,B,49.677529862884484,22.27382041627626,2.483876493144224,0.34987635293575925,A,770,Incorrect
2,new_learn,74,444,B,68.58743080651057,55.114507600717815,3.429371540325528,0.8657366609231695,B,611,Incorrect
2,new_learn,74,445,A,21.386743625365362,46.59843667507277,1.0693371812682682,0.731966531635889,A,1620,Correct
2,new_learn,74,446,A,48.48476912021991,72.10980293238227,2.4242384560109955,1.1326981357208994,A,798,Incorrect
2,new_learn,74,447,B,62.100088188102475,44.89623550501528,3.1050044094051237,0.7052284181819661,B,513,Correct
2,new_learn,74,448,A,39.41525226114846,71.39680247366636,1.970762613057423,1.1214983507053589,B,457,Incorrect
2,new_learn,74,449,B,60.08184423548,30.52218218207262,3.004092211774,0.4794413165736431,B,607,Correct
2,new_learn,74,450,B,63.443477535678724,32.15798762906974,3.172173876783936,0.5051364884485847,B,701,Correct
2,new_learn,74,451,B,50.04180994399415,43.06205826142214,2.502090497199708,0.6764172294126973,B,554,Incorrect
2,new_learn,74,452,A,32.18053684717115,58.958445652051815,1.6090268423585572,0.9261170986377952,B,470,Correct
2,new_learn,74,453,A,20.281788886586334,45.13131547975309,1.0140894443293167,0.7089210457901781,B,457,Incorrect
2,new_learn,74,454,B,65.96618565670181,48.37870406874649,3.29830928283509,0.759930906462843,B,557,Incorrect
2,new_learn,74,455,B,64.8872859133732,53.00919325183377,3.2443642956686602,0.8326664604634131,A,533,Correct
2,new_learn,74,456,A,32.81208541823501,45.85335171153715,1.6406042709117503,0.7202627643971703,A,672,Incorrect
2,new_learn,74,457,A,29.93454894829356,43.85606841661878,1.496727447414678,0.6888895117649045,A,1293,Correct
2,new_learn,74,458,A,45.84389314650662,66.17331184256517,2.292194657325331,1.039447951741546,A,819,Correct
2,new_learn,74,459,A,16.474450685789545,45.14779658064401,0.8237225342894773,0.709179930317588,B,948,Incorrect
2,new_learn,74,460,A,43.11856141135012,58.4185461741336,2.1559280705675063,0.9176363774702713,B,1202,Incorrect
2,new_learn,74,461,A,17.962804315750855,35.90939683073245,0.8981402157875428,0.5640634863913483,A,770,Correct
2,new_learn,74,462,A,59.45104549815116,72.7294758328211,2.9725522749075584,1.1424319348791359,B,797,Correct
2,new_learn,74,463,A,54.21499276943623,81.25948292365277,2.7107496384718117,1.2764209729372638,A,1251,Correct
2,new_learn,74,464,A,62.71815164631552,85.1061127019496,3.1359075823157756,1.3368436922001492,A,860,Correct
2,new_learn,74,465,B,46.16084633292523,17.657604907416495,2.3080423166462616,0.2773650092856537,B,876,Correct
2,new_learn,74,466,B,63.886055370769164,44.893386891164155,3.194302768538458,0.7051836722602282,B,583,Correct
2,new_learn,74,467,B,69.943471731393,44.80639342674213,3.4971735865696503,0.7038171821165354,A,1378,Incorrect
2,new_learn,74,468,A,32.083697002300866,41.89992267163186,1.6041848501150435,0.6581624462558955,B,467,Incorrect
2,new_learn,74,469,B,81.93145228736422,55.245607485310124,4.096572614368211,0.8677959730947779,B,1053,Correct
2,new_learn,74,470,A,68.14483684060986,87.52884887149749,3.407241842030493,1.374899942959339,B,1126,Incorrect
2,new_learn,74,471,A,48.26641779428339,62.54557257525176,2.4133208897141696,0.9824635565848909,B,2942,Incorrect
2,new_learn,74,472,A,40.690522608989866,70.93081878247527,2.034526130449493,1.114178696000666,A,1041,Incorrect
2,new_learn,74,473,A,14.94859524623844,34.668081944171526,0.747429762311922,0.5445649577492911,B,626,Incorrect
2,new_learn,74,474,B,35.5365978091384,20.26607483661626,1.7768298904569202,0.31833875911907306,B,4840,Correct
2,new_learn,74,475,A,50.166860339855816,75.78748397836392,2.5083430169927907,1.1904670145024112,B,1207,Correct
2,new_learn,74,476,B,77.20431311419512,44.78956005078181,3.8602156557097556,0.7035527640652751,B,1070,Correct
2,new_learn,74,477,A,39.744791604495525,61.9417931293348,1.9872395802247764,0.9729794112264846,A,809,Correct
2,new_learn,74,478,B,57.88829349877446,27.608006998870998,2.8944146749387234,0.4336655598395435,B,3008,Correct
2,new_learn,74,479,A,12.626977648511051,35.889453877448034,0.6313488824255525,0.5637502232137023,A,1398,Correct
2,new_learn,74,480,A,36.34037214691384,50.52004266359967,1.817018607345692,0.7935669744550381,A,2289,Incorrect
2,new_learn,74,481,A,30.29016651444644,41.651365299447775,1.514508325722322,0.6542581161836498,B,854,Correct
2,new_learn,74,482,B,47.92446598251668,22.46280109010602,2.396223299125834,0.35284485441862934,B,578,Incorrect
2,new_learn,74,483,B,51.48099511945165,21.07716473516078,2.574049755972583,0.3310793294524148,B,764,Correct
2,new_learn,74,484,A,38.358486820949175,70.64899824111339,1.9179243410474587,1.1097518692888002,A,1132,Correct
2,new_learn,74,485,B,79.8399480286595,57.53532526717048,3.991997401432975,0.9037627759062098,B,1376,Incorrect
2,new_learn,74,486,A,43.28491577434456,50.28631519950099,2.164245788717228,0.7898955920342653,A,2996,Correct
2,new_learn,74,487,B,45.52278404164207,36.64355367363405,2.2761392020821036,0.5755955951125601,A,472,Incorrect
2,new_learn,74,488,B,54.54567024632581,27.881565720236075,2.7272835123162906,0.4379626101863734,B,357,Correct
2,new_learn,74,489,B,56.811113799030686,38.15783962177313,2.8405556899515343,0.5993819431630999,B,1075,Incorrect
2,new_learn,74,490,B,44.62563263365254,31.19350251538097,2.231281631682627,0.48998639171027797,A,445,Incorrect
2,new_learn,74,491,A,54.37055771745562,81.37170813442937,2.718527885872781,1.2781838024258807,B,585,Incorrect
2,new_learn,74,492,B,71.5851614670069,50.20970293351991,3.579258073350345,0.7886921693743603,A,929,Incorrect
2,new_learn,74,493,A,65.2111360062959,79.74729515548555,3.2605568003147947,1.2526675830206515,B,745,Correct
2,new_learn,74,494,B,45.14635898579911,15.307495628706274,2.2573179492899555,0.24044957906000747,B,919,Correct
2,new_learn,74,495,A,32.60220201530466,50.13496860354638,1.6301101007652332,0.7875182452642812,B,851,Incorrect
2,new_learn,74,496,A,15.25623047634808,34.108674648063115,0.762811523817404,0.5357778084901975,A,1339,Correct
2,new_learn,74,497,B,49.42630566244119,27.136368840750308,2.4713152831220593,0.42625708497602066,B,839,Correct
2,new_learn,74,498,A,32.5848988367211,62.405778326715854,1.629244941836055,0.9802676736638183,B,670,Incorrect
2,new_learn,74,499,B,81.87223881657641,51.617658798406296,4.093611940828821,0.8108082883828889,A,278,Correct
2,new_learn,74,500,B,76.82248062558672,62.051965221566476,3.8411240312793358,0.974709990404413,B,351,Incorrect
2,new_learn,74,501,A,19.11329688544034,36.54820394100474,0.9556648442720171,0.5740978450148101,A,717,Correct
2,new_learn,74,502,A,64.13918278123664,77.47207026709161,3.2069591390618317,1.216928434047436,A,544,Correct
2,new_learn,74,503,B,54.22850662941946,41.47013467040114,2.711425331470973,0.6514113521195579,A,367,Incorrect
2,new_learn,74,504,B,40.69752297266447,14.641691194834667,2.0348761486332236,0.22999114746911475,B,438,Incorrect
2,new_learn,74,505,A,26.36946065421158,42.10087216580002,1.3184730327105791,0.6613189535290018,A,890,Correct
2,new_learn,74,506,B,59.36126001681812,41.21420779180398,2.968063000840906,0.647391262111273,A,579,Correct
2,new_learn,74,507,B,55.317393118016106,44.34751005928498,2.765869655900805,0.6966090590362457,A,807,Incorrect
2,new_learn,74,508,A,42.471767900859625,53.54813940900845,2.1235883950429812,0.8411322069037152,A,827,Incorrect
2,new_learn,74,509,B,69.11629107974662,54.64039106063612,3.4558145539873304,0.8582892557268392,B,499,Incorrect
2,new_learn,74,510,A,39.05403817350048,65.69310091464155,1.9527019086750241,1.031904816124854,A,708,Correct
2,new_learn,74,511,B,51.300881894764174,40.705657216427745,2.5650440947382087,0.6394029683533689,B,496,Correct
2,new_learn,74,512,B,45.851194823938435,20.61309592827164,2.292559741196922,0.3237897536799993,B,1056,Correct
2,new_learn,74,513,B,45.85931828366693,36.4292806591031,2.2929659141833465,0.5722298024709952,B,867,Incorrect
2,new_learn,74,514,A,32.01724267071417,58.47533910715886,1.6008621335357083,0.9185284787761112,A,749,Correct
2,new_learn,74,515,A,25.710690680776608,51.25497201052215,1.2855345340388304,0.8051112176410343,A,1023,Correct
2,new_learn,74,516,A,48.194076387835054,61.4127699016829,2.4097038193917526,0.9646695337986367,B,1446,Incorrect
2,new_learn,74,517,A,21.094137706132848,39.8627690707769,1.0547068853066424,0.6261629123224957,A,822,Incorrect
2,new_learn,74,518,A,46.33508474530596,67.323767813562,2.316754237265298,1.0575192718753568,B,2170,Incorrect
2,new_learn,74,519,B,65.13937919846538,47.05038448416876,3.2569689599232685,0.7390657112201988,B,1513,Correct
2,new_learn,74,520,A,43.206712171024634,53.556879845913784,2.1603356085512315,0.8412695013655701,A,1551,Correct
2,new_learn,74,521,B,67.58925169186097,48.27064571118652,3.3794625845930484,0.758233529751496,B,917,Correct
2,new_learn,74,522,B,65.85212333353917,35.727893720059654,3.2926061666769586,0.5612124421958816,B,523,Correct
2,new_learn,74,523,B,63.186189180909885,41.39234619086491,3.1593094590454944,0.6501894535403333,B,606,Incorrect
2,new_learn,74,524,A,51.416133229993925,76.77947353608054,2.570806661499696,1.2060491500372128,A,1136,Incorrect
2,new_learn,74,525,B,38.23231350442713,18.537380638461748,1.9116156752213567,0.2911844941529455,B,638,Incorrect
2,new_learn,74,526,B,59.125867807470435,29.87161174483424,2.9562933903735216,0.46922218004228916,A,1244,Correct
2,new_learn,74,527,B,75.59329030973203,61.548947688352165,3.7796645154866013,0.966808609469548,A,788,Incorrect
2,new_learn,74,528,B,69.17304248039251,37.62639084461478,3.4586521240196255,0.5910339652927004,B,336,Correct
2,new_learn,74,529,A,57.39054921971873,66.42089485062412,2.8695274609859367,1.0433369765379044,B,571,Correct
2,new_learn,74,530,B,64.1160587523846,35.41409435896418,3.2058029376192305,0.556283293358288,A,879,Incorrect
2,new_learn,74,531,B,43.060183502928666,25.350541875716715,2.1530091751464333,0.39820538060636024,B,387,Correct
2,new_learn,74,532,B,40.09601662972308,19.464047456119733,2.004800831486154,0.30574054248634425,B,661,Correct
2,new_learn,74,533,B,43.43620398010717,16.369868406502,2.1718101990053587,0.2571372916304917,B,478,Correct
2,new_learn,74,534,B,49.16276922153323,38.12835392531565,2.4581384610766617,0.5989187829262159,B,301,Correct
2,new_learn,74,535,B,63.83102623129129,35.550920978499356,3.1915513115645644,0.5584325608720242,B,482,Correct
2,new_learn,74,536,A,47.12202309108575,55.32911305407424,2.3561011545542874,0.8691076755015937,B,511,Incorrect
2,new_learn,74,537,A,40.23872864719361,57.26226679315168,2.011936432359681,0.8994735834263203,A,553,Correct
2,new_learn,74,538,B,38.50187287234952,14.547877790324577,1.925093643617476,0.228517529957029,A,745,Incorrect
2,new_learn,74,539,B,64.23646897977413,48.19464965403585,3.2118234489887065,0.7570397864772643,B,390,Correct
2,new_learn,74,540,A,32.20287718316254,44.05319985698346,1.6101438591581272,0.6919860451891108,B,424,Incorrect
2,new_learn,74,541,B,43.54116031583765,24.232453467434873,2.1770580157918826,0.3806424889587495,A,645,Incorrect
2,new_learn,74,542,A,39.5668807045099,51.30981618350526,1.978344035225495,0.8059727078957142,B,351,Correct
2,new_learn,74,543,A,49.51702452414224,60.971294105466804,2.475851226207112,0.9577348482079859,B,668,Incorrect
2,new_learn,74,544,B,48.910540535667174,41.1373993482605,2.4455270267833584,0.6461847579014237,A,420,Correct
2,new_learn,74,545,B,42.981701442010575,32.55286573074457,2.1490850721005286,0.5113392191650105,A,1009,Correct
2,new_learn,74,546,A,18.04303604558105,43.05317214780402,0.9021518022790525,0.676277646666389,A,951,Correct
2,new_learn,74,547,A,50.16269242017526,58.59317261798273,2.508134621008763,0.9203794032358659,B,925,Correct
2,new_learn,74,548,B,81.73889585482391,63.92397950164434,4.086944792741195,1.0041155219529518,B,708,Correct
2,new_learn,74,549,A,27.218391704810553,49.55447149837781,1.3609195852405276,0.7783998180591425,A,713,Correct
2,new_learn,74,550,B,50.44638286085463,30.934418391359095,2.522319143042731,0.48591670780683366,A,714,Correct
2,new_learn,74,551,B,66.14718926197204,33.04241935653209,3.307359463098602,0.519029109536572,A,1078,Correct
2,new_learn,74,552,B,57.45191424330183,48.23108151861032,2.8725957121650914,0.7576120568677831,A,1024,Correct
2,new_learn,74,553,A,66.95942112462137,83.51197918802956,3.3479710562310685,1.3118031015192868,B,1230,Incorrect
2,new_learn,74,554,A,51.68422912434506,76.07703139676113,2.584211456217253,1.195015214714924,A,575,Incorrect
2,new_learn,74,555,B,74.11298949300165,56.50521888546753,3.705649474650082,0.8875819027003401,B,473,Incorrect
2,new_learn,74,556,A,18.524504678512944,42.59394403382797,0.9262252339256472,0.6690641083204437,A,2693,Correct
2,new_learn,74,557,A,29.649966057139004,41.03381982165506,1.4824983028569503,0.6445577345021938,A,523,Correct
2,new_learn,74,558,A,65.43370756375694,79.5069875696781,3.2716853781878465,1.2488928402897785,A,747,Correct
2,new_learn,74,559,A,44.71486609793652,53.577363063713975,2.2357433048968263,0.8415912509983847,A,530,Incorrect
2,new_learn,74,560,A,35.50279713537107,50.1638827548069,1.7751398567685532,0.7879724276902053,B,560,Incorrect
2,new_learn,74,561,B,51.869451409941135,21.449639097051065,2.5934725704970565,0.3369301430472401,A,828,Incorrect
2,new_learn,74,562,A,18.28276941735258,40.327970670954,0.914138470867629,0.6334702819702686,A,647,Correct
2,new_learn,74,563,A,37.35326639766907,69.08858682062676,1.8676633198834534,1.0852409840129082,A,580,Incorrect
2,new_learn,74,564,B,68.3826541800961,35.03754208505083,3.419132709004805,0.5503684240711945,B,410,Incorrect
2,new_learn,74,565,A,69.49894989400636,86.41000612392507,3.4749474947003183,1.3573252021778603,A,313,Correct
2,new_learn,74,566,A,34.452368278673596,64.54589980751551,1.7226184139336798,1.0138846232731678,A,748,Correct
2,new_learn,74,567,A,13.240072047514836,39.384229858463364,0.6620036023757419,0.6186460359532014,A,719,Incorrect
2,new_learn,74,568,A,24.932466100154002,53.621065618959506,1.2466233050077,0.842277729130897,B,440,Incorrect
2,new_learn,74,569,B,61.54265983682736,54.04234225269136,3.0771329918413683,0.8488951270192021,B,624,Incorrect
2,new_learn,74,570,A,24.602929152954687,37.00307518936221,1.2301464576477343,0.5812429458756553,A,577,Correct
2,new_learn,74,571,A,42.43463915753727,58.374286851698834,2.1217319578768636,0.9169411536592016,A,537,Correct
2,new_learn,74,572,A,51.62276680087662,64.74297532755823,2.5811383400438306,1.0169802783030109,A,355,Incorrect
2,new_learn,74,573,A,55.4906711024309,63.97069730712027,2.774533555121545,1.004849363525327,B,467,Incorrect
2,new_learn,74,574,B,53.72714573230451,35.92452953550377,2.6863572866152254,0.564301190362041,A,1145,Correct
2,new_learn,74,575,A,60.01652782256171,81.76008880239833,3.000826391128086,1.2842844716923185,A,638,Correct
2,new_learn,74,576,B,34.90050116659875,10.839949958983048,1.7450250583299376,0.17027353578211063,B,780,Correct
2,new_learn,74,577,A,58.01555434554862,79.82347913717572,2.900777717277431,1.253864278206647,A,694,Incorrect
2,new_learn,74,578,B,58.92191476410472,33.264199655583084,2.946095738205236,0.5225128263276198,B,2680,Correct
2,new_learn,74,579,B,71.84248497359444,47.500806112646735,3.592124248679722,0.7461409176154206,B,627,Correct
2,new_learn,74,580,B,69.62363374025307,42.64413934942636,3.4811816870126533,0.6698525744940863,B,746,Correct
2,new_learn,74,581,B,54.30615093816034,43.821637845285274,2.715307546908017,0.6883486776151033,A,1059,Correct
2,new_learn,74,582,B,67.53873918160377,49.9405571950675,3.3769369590801888,0.7844644380010247,B,1411,Correct
2,new_learn,74,583,B,75.25617115303035,61.00349198006363,3.762808557651517,0.9582406112394588,B,1561,Correct
2,new_learn,74,584,B,70.20473521499214,59.23400511505052,3.5102367607496068,0.9304455765607148,B,623,Correct
2,new_learn,74,585,A,37.67962871861324,61.150840017008576,1.8839814359306617,0.9605551487913944,A,1892,Incorrect
2,new_learn,74,586,B,66.4712516855451,48.23577407241618,3.323562584277255,0.7576857673305984,B,567,Incorrect
2,new_learn,74,587,B,79.23717329709237,51.88756899536375,3.9618586648546184,0.8150480278423414,B,778,Incorrect
2,new_learn,74,588,A,28.02057998622729,56.94533251028531,1.4010289993113645,0.8944951913527017,A,964,Incorrect
2,new_learn,74,589,A,63.790912651361396,75.10121816534316,3.1895456325680698,1.1796871763194319,B,324,Incorrect
2,new_learn,74,590,A,31.754143506818323,61.39467462568396,1.587707175340916,0.964385293867922,A,1059,Incorrect
2,new_learn,74,591,B,38.30096500779227,17.095236655391528,1.9150482503896138,0.26853134943978485,A,1039,Incorrect
2,new_learn,74,592,B,72.1072513760198,39.55090292348837,3.6053625688009903,0.6212641303363706,B,409,Correct
2,new_learn,74,593,A,53.34310362859333,69.52255632013284,2.667155181429667,1.0920577609705597,B,684,Incorrect
2,new_learn,74,594,B,58.83080453289226,29.219118703154887,2.941540226644613,0.4589728433109975,B,852,Correct
2,new_learn,74,595,A,30.056920456457593,43.54272072038279,1.5028460228228797,0.6839674576623331,B,966,Incorrect
2,new_learn,74,596,B,44.471061609758145,27.198910965587967,2.2235530804879073,0.42723949437567005,A,456,Correct
2,new_learn,74,597,B,83.08410989261047,63.12631098145522,4.154205494630523,0.991585774137822,B,601,Incorrect
2,new_learn,74,598,A,59.68542134359956,69.61584068056675,2.9842710671799777,1.0935230682777297,A,369,Correct
2,new_learn,74,599,B,74.9687107490411,47.60232670154943,3.7484355374520546,0.7477355992968447,B,329,Incorrect
2,new_learn,74,600,A,67.78160960864302,58.20049363548609,3.389080480432151,0.9142112162027131,A,705,Correct
2,new_learn,74,601,A,80.71721550196906,34.652712582290576,4.035860775098453,0.5443235363774134,B,2227,Incorrect
2,new_learn,74,602,B,38.29486638925437,30.777242026619263,1.9147433194627186,0.48344778724291054,A,1100,Incorrect
2,new_learn,74,603,B,51.29669717092777,29.231106205973845,2.5648348585463885,0.45916114256495216,B,601,Correct
2,new_learn,74,604,B,56.618448546972076,15.256330798380972,2.830922427348604,0.2396458837846468,B,764,Correct
2,new_learn,74,605,B,22.27382041627626,50.322470137115516,1.113691020813813,0.7904635124662693,B,2783,Correct
2,new_learn,74,606,B,37.862117217367455,44.19981849916904,1.8931058608683728,0.6942891254349585,B,619,Correct
2,new_learn,74,607,B,59.23400511505052,29.79526478500786,2.9617002557525263,0.46802292480171676,B,634,Correct
2,new_learn,74,608,B,59.76918999305698,21.805786409813322,2.9884594996528495,0.34252449195408846,B,771,Correct
2,new_learn,74,609,A,30.720122450384405,85.35106863535833,1.5360061225192203,1.3406914510043997,A,1252,Correct
2,new_learn,74,610,A,41.38660079391377,73.39816737554155,2.0693300396956884,1.152935717069777,B,1164,Incorrect
2,new_learn,74,611,B,65.47650560429062,20.75161739997253,3.2738252802145316,0.32596564386929905,B,759,Correct
2,new_learn,74,612,B,48.90879546342403,19.84038848348314,2.4454397731712016,0.31165209352039086,B,591,Correct
2,new_learn,74,613,B,64.06188170470388,20.645529510686828,3.2030940852351937,0.3242992192012251,B,751,Correct
2,new_learn,74,614,B,32.00695820069993,59.75250556395338,1.6003479100349964,0.9385901625664959,B,1292,Correct
2,new_learn,74,615,B,55.245607485310124,18.068547712635777,2.762280374265506,0.2838200837752661,B,743,Correct
2,new_learn,74,616,B,51.617658798406296,18.127761183423587,2.580882939920315,0.28475020679936874,B,667,Correct
2,new_learn,74,617,B,29.144380438477068,43.385798351804155,1.4572190219238532,0.6815025268607804,B,2177,Correct
2,new_learn,74,618,B,24.249308165173165,45.961297833257845,1.2124654082586581,0.7219583781120767,B,1207,Correct
2,new_learn,74,619,A,34.108674648063115,84.74376952365192,1.7054337324031559,1.3311520188650574,B,886,Incorrect
2,new_learn,74,620,B,49.24293636083762,30.390383468937358,2.462146818041881,0.47737102722895147,B,484,Correct
2,new_learn,74,621,A,58.97324650599227,50.72359502351011,2.9486623252996136,0.7967643674476157,B,461,Incorrect
2,new_learn,74,622,A,44.20900193695715,80.6978439007311,2.2104500968478575,1.2675987677953637,B,1804,Incorrect
2,new_learn,74,623,B,20.26607483661626,64.4634021908616,1.0133037418308128,1.012588753741075,A,801,Incorrect
2,new_learn,74,624,A,82.78288251170986,46.74662617537485,4.139144125585493,0.7342942868633298,B,569,Incorrect
2,new_learn,74,625,A,89.32689880604629,32.97345640164703,4.4663449403023145,0.5179458419743882,B,1137,Incorrect
2,new_learn,74,626,A,36.45882200411833,86.06113939438286,1.8229411002059166,1.3518452164048018,B,3833,Incorrect
2,new_learn,74,627,B,57.298512677785155,26.31890404306158,2.8649256338892575,0.4134163779610848,B,762,Correct
2,new_learn,74,628,A,65.6996897877589,62.55997409780409,3.2849844893879445,0.9826897751721453,B,1610,Incorrect
2,new_learn,74,629,B,46.2927323005561,23.89450195673156,2.314636615027805,0.37533395904227407,B,1249,Correct
2,new_learn,74,630,A,65.53096975640389,60.39051240492518,3.276548487820195,0.948611950589181,B,550,Incorrect
2,new_learn,74,631,B,30.043447038650857,36.73082830471275,1.5021723519325427,0.5769665018117681,A,1392,Incorrect
2,new_learn,74,632,A,56.0143883520295,75.72215349643452,2.800719417601475,1.1894408056919865,B,530,Incorrect
2,new_learn,74,633,B,49.9405571950675,32.46126081839623,2.497027859753375,0.5099002925666789,B,1534,Correct
2,new_learn,74,634,A,33.08363542189822,87.85891152819096,1.6541817710949112,1.3800845550468017,B,3657,Incorrect
2,new_learn,74,635,B,35.19904964517959,34.024601303196505,1.7599524822589796,0.5344571874772192,B,1873,Correct
2,new_learn,74,636,A,43.05317214780402,81.95696395441895,2.152658607390201,1.2873769793486305,A,1898,Correct
2,new_learn,74,637,A,60.8290078585297,47.93555948415759,3.041450392926485,0.7529700076057299,B,1865,Incorrect
2,new_learn,74,638,B,42.85382840475523,35.3077812533604,2.1426914202377616,0.5546133310005623,A,994,Incorrect
2,new_learn,74,639,A,51.14763620266285,65.51063706411918,2.5573818101331427,1.0290386806631202,B,623,Incorrect
2,new_learn,74,640,A,79.82347913717572,41.98444565445138,3.991173956858786,0.6594901301653219,B,974,Incorrect
2,new_learn,74,641,B,50.53511833047257,33.75665223580428,2.5267559165236286,0.530248253368941,B,2781,Correct
2,new_learn,74,642,A,56.94533251028531,71.97942001377271,2.8472666255142656,1.1306500856246124,B,861,Incorrect
2,new_learn,74,643,B,25.328401829456574,55.38306122416722,1.2664200914728285,0.8699550913757873,A,1248,Incorrect
2,new_learn,74,644,A,31.123768108610193,87.164700815276,1.5561884054305097,1.3691799186681168,A,1736,Correct
2,new_learn,74,645,A,69.61584068056675,40.31457865640044,3.4807920340283376,0.6332599206975775,B,698,Incorrect
2,new_learn,74,646,B,37.94368478270394,46.93177059014437,1.897184239135197,0.7372025285297953,A,3729,Incorrect
2,new_learn,74,647,B,22.464246316085283,55.84776887224305,1.1232123158042642,0.8772547020420974,B,1676,Correct
2,new_learn,74,648,A,66.14813647683229,50.852945135321704,3.3074068238416148,0.7987961942526574,B,1148,Incorrect
2,new_learn,74,649,A,74.06045481564433,40.763884474410155,3.7030227407822167,0.6403175999829498,B,1455,Incorrect
2,new_learn,74,650,B,49.83827534674663,37.622041608355495,2.4919137673373313,0.5909656476492957,A,752,Incorrect
2,new_learn,74,651,B,29.622221154229095,60.50400604518913,1.4811110577114548,0.950394704521593,B,716,Correct
2,new_learn,74,652,B,52.493451893032066,22.50715831374461,2.6246725946516034,0.35354161605821255,B,902,Correct
2,new_learn,74,653,A,62.80540181842745,68.861507627039,3.1402700909213723,1.081674032381116,B,1211,Incorrect
2,new_learn,74,654,A,78.24669017763827,53.25901491069886,3.9123345088819135,0.8365906499044039,A,9832,Correct
2,new_learn,74,655,A,86.30133157051807,42.510706246359646,4.3150665785259035,0.6677566122123859,A,665,Correct
2,new_learn,74,656,A,57.2112347563198,71.29511401601138,2.86056173781599,1.1199010321477403,B,3208,Incorrect
2,new_learn,74,657,A,80.18687309994075,51.45513179065309,4.009343654997037,0.8082553201150519,B,1325,Incorrect
2,new_learn,74,658,B,63.12631098145522,16.91589010738953,3.156315549072761,0.265714180451536,B,1148,Correct
2,new_learn,74,659,B,43.41294763131113,32.83540303517381,2.1706473815655563,0.5157773047648102,B,1056,Correct
2,new_learn,74,660,B,14.547877790324577,61.49812712765048,0.7273938895162289,0.9660103219687896,B,1618,Correct
2,new_learn,74,661,A,61.150840017008576,62.32037128138676,3.057542000850429,0.978926102932965,B,877,Incorrect
2,new_learn,74,662,A,44.728772384843836,83.33073048093232,2.236438619242192,1.3089560534858402,A,1283,Correct
2,new_learn,74,663,A,34.30712788338748,76.58671418470303,1.715356394169374,1.2030212932262212,A,686,Correct
2,new_learn,74,664,B,37.67219055845937,48.95238890956401,1.8836095279229683,0.7689423268697837,A,711,Incorrect
2,new_learn,74,665,A,77.04240185964679,47.656124968063224,3.85212009298234,0.7485806604911226,A,1013,Correct
2,new_learn,74,666,B,38.767644040214364,29.86786616279545,1.938382202010718,0.46916334457720676,A,832,Incorrect
2,new_learn,74,667,A,64.54589980751551,65.54763172132641,3.2272949903757757,1.0296197913796417,A,1045,Correct
2,new_learn,74,668,B,45.76365270813822,46.67524849862425,2.2881826354069106,0.7331730889387797,A,1000,Incorrect
2,new_learn,74,669,B,68.06605714434342,11.601278580992712,3.4033028572171706,0.18223245781147665,A,951,Incorrect
2,new_learn,74,670,A,44.44442858901343,83.54038717794916,2.2222214294506712,1.31224933318146,B,2830,Incorrect
2,new_learn,74,671,A,39.68490802224768,74.25343959366754,1.984245401112384,1.166370301656197,A,1245,Correct
2,new_learn,74,672,B,31.827984919980615,38.86889577787662,1.591399245999031,0.6105511871446225,A,3056,Incorrect
2,new_learn,74,673,B,45.85970197231333,45.853896496682154,2.2929850986156666,0.720271321862217,B,483,Correct
2,new_learn,74,674,B,49.79638045835046,27.824172416000607,2.489819022917523,0.4370610782716164,B,1358,Correct
2,new_learn,74,675,B,31.19350251538097,55.37436736634746,1.5596751257690484,0.8698185285764979,B,625,Correct
2,new_learn,74,676,B,14.641691194834664,59.30247702733553,0.7320845597417331,0.9315211308437739,B,990,Correct
2,new_learn,74,677,B,31.773656305980392,39.60664299489394,1.5886828152990196,0.6221396933305622,B,709,Correct
2,new_learn,74,678,B,27.198910965587967,55.528938390241855,1.3599455482793983,0.8722465245421204,B,643,Correct
2,new_learn,74,679,B,12.095043824889117,63.03918365399231,0.6047521912444559,0.9902171812784002,B,781,Correct
2,new_learn,74,680,A,39.16892897048963,75.00199840909522,1.9584464485244815,1.1781286360328345,B,713,Incorrect
2,new_learn,74,681,A,64.27794827531478,61.21427116100003,3.2138974137657392,0.9615515228712559,B,674,Incorrect
2,new_learn,74,682,B,48.26256550581851,43.59468926546279,2.4131282752909256,0.6847837776595386,A,2275,Incorrect
2,new_learn,74,683,B,16.06188868472249,62.07840611025026,0.8030944342361245,0.97512532291263,A,708,Incorrect
2,new_learn,74,684,A,33.56193497940273,88.77376184620796,1.6780967489701366,1.3944549902378838,B,1042,Incorrect
2,new_learn,74,685,A,34.70927045811529,89.3204376835032,1.7354635229057647,1.403042154209593,B,804,Incorrect
2,new_learn,74,686,B,61.42718873769152,20.676583990996875,3.071359436884576,0.3247870218372405,A,733,Incorrect
2,new_learn,74,687,A,70.19415518649575,52.356814510026666,3.5097077593247876,0.8224189191503162,B,1413,Incorrect
2,new_learn,74,688,A,47.876549092480865,61.30946041929521,2.3938274546240432,0.9630467522440601,A,43,Correct
2,new_learn,74,689,A,35.90939683073245,82.03719568424914,1.7954698415366224,1.288637256413727,A,437,Correct
2,new_learn,74,690,B,17.93851745006144,58.530907672297644,0.896925872503072,0.9194013477561639,A,892,Incorrect
2,new_learn,74,691,B,22.444825144796553,53.674203049026815,1.1222412572398277,0.8431124099305475,B,582,Correct
2,new_learn,74,692,B,25.769362332966505,41.49522131243799,1.2884681166483254,0.651805412171189,B,620,Correct
2,new_learn,74,693,B,52.26573553172178,27.942711291510832,2.613286776586089,0.43892308257395496,B,1136,Correct
2,new_learn,74,694,A,89.31881702022326,31.553683395725898,4.465940851011164,0.4956440997485535,B,731,Incorrect
2,new_learn,74,695,B,52.8954829420028,22.040132291831867,2.64477414710014,0.3462055884608308,B,1679,Correct
2,new_learn,74,696,A,84.94335441615723,35.82119563470877,4.247167720807862,0.5626780252440192,B,643,Incorrect
2,new_learn,74,697,B,65.98766675385264,17.099403135982215,3.299383337692632,0.26859679636385997,B,737,Correct
2,new_learn,74,698,A,42.22150820629664,86.05427791352456,2.111075410314832,1.3517374365155157,B,1111,Incorrect
2,new_learn,74,699,A,64.53989618897488,45.9678104888543,3.226994809448744,0.7220606786669624,A,1112,Correct
2,new_learn,74,700,B,18.832468172635107,66.85993610485922,0.9416234086317553,1.0502334204325434,B,1053,Correct
2,new_learn,74,701,B,16.569323327891745,63.235711019202455,0.8284661663945871,0.9933042259122679,B,548,Correct
2,new_learn,74,702,A,55.639390909284366,68.74526513500331,2.781969545464218,1.0798480995860447,B,1147,Incorrect
2,new_learn,74,703,B,44.192831026047564,36.94445379981004,2.2096415513023784,0.5803221232418537,A,499,Incorrect
2,new_learn,74,704,A,52.24954488568283,70.64007972985488,2.6124772442841415,1.1096117776415466,B,557,Incorrect
2,new_learn,74,705,B,52.77583354811118,25.038723879569986,2.6387916774055586,0.3933073549766019,A,1879,Incorrect
2,new_learn,74,706,A,64.86312226736251,58.62175285939223,3.243156113368126,0.9208283406181154,B,636,Incorrect
2,new_learn,74,707,B,55.32591605305802,16.487348630479275,2.766295802652901,0.2589826666734371,A,849,Incorrect
2,new_learn,74,708,B,38.81947114312983,28.86112339178848,1.9409735571564914,0.4533494661099562,B,854,Correct
2,new_learn,74,709,B,27.19180366709218,51.34147162990271,1.3595901833546091,0.8064699504849557,B,824,Correct
2,new_learn,74,710,A,74.4097919158383,43.60479570459276,3.720489595791915,0.6849425292341619,B,499,Incorrect
2,new_learn,74,711,A,41.42211627623955,78.39460159211087,2.071105813811977,1.2314195222143711,A,704,Correct
2,new_learn,74,712,A,87.19211977750122,38.6140200966867,4.359605988875061,0.6065476093065978,A,962,Correct
2,new_learn,74,713,A,56.13146479014145,63.88075843424511,2.806573239507072,1.0034366070138432,A,691,Correct
2,new_learn,74,714,B,38.12835392531565,50.83723077846677,1.9064176962657826,0.7985493537124005,B,912,Correct
2,new_learn,74,715,B,30.58236722167556,57.99426759790177,1.529118361083778,0.910971825179444,B,749,Correct
2,new_learn,74,716,A,56.83756016602064,72.38514518874446,2.8418780083010318,1.1370232017699506,B,1290,Incorrect
2,new_learn,74,717,A,57.49157642660863,59.62671951713326,2.8745788213304313,0.936614319963425,A,807,Correct
2,new_learn,74,718,B,24.909725704337742,44.5112584578613,1.245486285216887,0.6991812128662681,A,1256,Incorrect
2,new_learn,74,719,B,29.58277785921846,49.102958915159775,1.4791388929609228,0.771307474986937,B,974,Correct
2,new_learn,74,720,A,61.874792233708,65.24141711959899,3.0937396116854,1.0248097836635979,B,781,Incorrect
2,new_learn,74,721,B,24.539670118763595,49.318848953557364,1.2269835059381797,0.7746986677800024,A,459,Incorrect
2,new_learn,74,722,A,79.26933863437621,50.47629325640591,3.9634669317188105,0.7928797603738441,B,325,Incorrect
2,new_learn,74,723,A,51.28893675924097,60.063323967948556,2.5644468379620484,0.9434724866394546,A,1901,Correct
2,new_learn,74,724,A,60.67302215808947,66.62675234256639,3.0336511079044737,1.0465705784597654,A,569,Correct
2,new_learn,74,725,B,21.468984345512524,66.5458468947085,1.0734492172756263,1.0452997186566368,A,791,Incorrect
2,new_learn,74,726,B,31.918765395447558,46.50414879870214,1.595938269772378,0.7304854611372461,A,2092,Incorrect
2,new_learn,74,727,A,62.49944444931648,60.48056932360139,3.124972222465824,0.9500265613597716,B,629,Incorrect
2,new_learn,74,728,B,60.540968088981316,24.702818976153765,3.027048404449066,0.388030973092216,B,1633,Correct
2,new_learn,74,729,A,45.219771999316606,67.22531078924963,2.26098859996583,1.0559727125539866,B,4409,Incorrect
2,new_learn,74,730,A,77.46421206822846,52.32101610424951,3.873210603411423,0.8218565991073176,B,1237,Incorrect
2,new_learn,74,731,A,58.389888414801234,62.4756369265799,2.9194944207400617,0.981365009984433,A,1246,Correct
2,new_learn,74,732,A,38.29754085684233,80.9832024249042,1.9148770428421165,1.272081169011271,B,1059,Incorrect
2,new_learn,74,733,B,50.20970293351991,28.4148385329931,2.5104851466759954,0.44633923994095653,B,1800,Correct
2,new_learn,74,734,A,70.62126505119609,47.57935849846889,3.5310632525598042,0.7473748156065247,A,1400,Correct
2,new_learn,74,735,A,58.80596587287158,48.45345607040806,2.940298293643579,0.7611051081591487,A,1070,Correct
2,new_learn,74,736,A,72.10980293238227,51.51523087978009,3.605490146619113,0.8091993543994959,A,1864,Correct
2,new_learn,74,737,A,84.37335349153796,41.30002709926132,4.218667674576897,0.6487393086404937,A,2489,Correct
2,new_learn,74,738,A,59.55963393230149,63.58032884447198,2.9779816966150743,0.998717470053082,A,1497,Correct
2,new_learn,74,739,A,84.61717109906502,43.29622859649546,4.230858554953251,0.6800955684344723,A,2032,Correct
2,new_learn,74,740,B,48.83355202014775,21.636488872795354,2.4416776010073873,0.3398651724612559,B,1513,Correct
2,new_learn,74,741,B,31.102018353823773,45.6926075021879,1.5551009176911887,0.7177378002611768,B,2077,Correct
2,new_learn,74,742,B,27.881565720236075,45.45432975367419,1.3940782860118037,0.7139949421399538,B,1097,Correct
2,new_learn,74,743,A,73.9334501330547,44.81388960016767,3.6966725066527353,0.703934931733354,A,1574,Correct
2,new_learn,74,744,A,73.15587288676974,46.877372260111194,3.6577936443384873,0.7363480415597964,A,2899,Correct
2,new_learn,74,745,B,45.763463136490714,46.16400861854408,2.2881731568245356,0.72514255168137,B,4500,Correct
2,new_learn,74,746,B,37.22436111685524,42.973597073456986,1.8612180558427622,0.6750276843215015,A,2695,Incorrect
2,new_learn,74,747,B,36.72931925093705,36.98772654105132,1.8364659625468527,0.5810018498717752,B,963,Correct
2,new_learn,74,748,A,50.299988895025116,58.583684706056296,2.514999444751256,0.9202303674638358,A,2494,Correct
2,new_learn,74,749,A,58.981204059687784,70.93256640226687,2.9490602029843895,1.1142061475481588,A,1425,Correct
2,new_learn,74,750,B,50.4715616337182,35.128420440859756,2.52357808168591,0.5517959379460927,A,2737,Incorrect
2,new_learn,74,751,A,69.59676771062355,49.23303885501228,3.4798383855311776,0.7733507659040372,A,2456,Correct
2,new_learn,74,752,B,44.78956005078181,22.795686885804884,2.2394780025390904,0.3580738122698891,A,1531,Incorrect
2,new_learn,74,753,B,57.08061110773302,26.755649295887565,2.854030555386651,0.4202767563499264,A,1549,Incorrect
2,new_learn,74,754,A,68.05964800550127,51.317800929478366,3.402982400275064,0.8060981319921634,A,1621,Correct
2,new_learn,74,755,A,41.34401466142096,80.05680174212772,2.0672007330710476,1.257529301114815,B,1291,Incorrect
2,new_learn,74,756,A,63.23598566160706,49.893404043224784,3.161799283080353,0.7837237580239115,A,1718,Correct
2,new_learn,74,757,A,60.66130923934676,52.2154581956527,3.033065461967338,0.8201984993564374,A,1514,Correct
2,new_learn,74,758,A,61.49030796152887,57.97889642954381,3.0745153980764433,0.9107303754314917,A,845,Correct
2,new_learn,74,759,B,44.34751005928498,44.682606881983894,2.217375502964249,0.7018727476184066,A,1811,Incorrect
2,new_learn,74,760,A,84.23800863641988,35.76617046150125,4.211900431820994,0.5618136918444628,A,967,Correct
2,new_learn,74,761,A,83.01635726693736,41.10021137636025,4.150817863346868,0.645600610604805,A,532,Correct
2,new_learn,74,762,B,46.667741591739436,30.468713201187725,2.333387079586972,0.47860142778592857,A,768,Incorrect
2,new_learn,74,763,B,28.992697711823574,61.397404136095865,1.4496348855911787,0.9644281689172118,B,912,Correct
2,new_learn,74,764,B,39.254470555650386,50.379173578860716,1.9627235277825192,0.7913542080463694,B,776,Correct
2,new_learn,74,765,A,71.72975437215094,48.93620094669778,3.586487718607547,0.7686880469436981,B,1149,Incorrect
2,new_learn,74,766,B,48.27064571118652,32.410748308139034,2.413532285559326,0.509106843910987,A,559,Incorrect
2,new_learn,74,767,A,66.56912762411662,64.89588713236846,3.328456381205831,1.0193822113162057,B,612,Incorrect
2,new_learn,74,768,A,75.90086398261725,42.64478285265017,3.7950431991308626,0.6698626826190888,A,301,Correct
2,new_learn,74,769,B,48.23577407241618,33.5287483144549,2.4117887036208088,0.5266683469437633,A,401,Incorrect
2,new_learn,74,770,B,50.98583524219964,26.922769964660006,2.549291762109982,0.422901881676319,B,414,Correct
2,new_learn,74,771,B,54.30156304737679,37.55639143834037,2.71507815236884,0.5899344171901635,A,1531,Incorrect
2,new_learn,74,772,A,58.47533910715886,67.98275732928583,2.9237669553579426,1.06787065498231,B,439,Incorrect
2,new_learn,74,773,A,54.75825948181124,71.41878146340997,2.737912974090562,1.1218435958689184,A,971,Correct
2,new_learn,74,774,B,33.54185612424455,34.53239964451994,1.6770928062122277,0.5424336651702532,A,1327,Incorrect
2,new_learn,74,775,A,56.811876112887234,58.047857950215,2.840593805644362,0.9118136204650965,A,812,Correct
2,new_learn,74,776,B,45.34229600987685,29.244321243019684,2.2671148004938426,0.4593687238814528,A,1264,Incorrect
2,new_learn,74,777,A,38.09931894762279,75.30989205411734,1.9049659473811398,1.182965018099277,B,885,Incorrect
2,new_learn,74,778,A,52.8424597406744,72.09081838893866,2.6421229870337197,1.1323999272098284,A,1106,Correct
2,new_learn,74,779,B,40.19517888900449,48.80898489741439,2.0097589444502244,0.7666897419144612,B,1357,Correct
2,new_learn,74,780,B,60.15554492355091,13.903646745568267,3.007777246177546,0.21839797236992453,A,773,Incorrect
2,new_learn,74,781,A,85.58735357065132,38.09869157232617,4.279367678532566,0.5984528477750162,B,478,Incorrect
2,new_learn,74,782,B,36.76666846621394,39.313104680511834,1.8383334233106974,0.6175288042705124,A,686,Incorrect
2,new_learn,74,783,B,29.93251593514355,40.54946295947349,1.4966257967571774,0.6369494747024665,A,1233,Incorrect
2,new_learn,74,784,A,61.64133633859404,60.112791325308706,3.082066816929702,0.9442495180718304,B,614,Incorrect
2,new_learn,74,785,B,46.31689526428073,26.449096038428394,2.3158447632140367,0.41546142904208766,A,384,Incorrect
2,new_learn,74,786,A,62.80260694945071,61.74273958165437,3.1401303474725357,0.9698526854111654,B,321,Incorrect
2,new_learn,74,787,B,18.625782357653208,53.31226002185435,0.9312891178826603,0.8374270221546323,A,1040,Incorrect
2,new_learn,74,788,B,18.842198903583704,56.52435237506188,0.9421099451791852,0.8878824508520758,B,882,Correct
2,new_learn,74,789,A,69.46456157364807,57.16477346625989,3.473228078682404,0.897942161828634,A,3430,Correct
2,new_learn,74,790,A,64.679388422106,58.514899321192,3.2339694211053,0.9191498891650157,A,1669,Correct
2,new_learn,74,791,A,67.80277054567044,45.33133657632321,3.390138527283522,0.7120629698279165,A,707,Correct
2,new_learn,74,792,A,71.51214993057631,46.173434278184274,3.5756074965288156,0.7252906095967742,A,2598,Correct
2,new_learn,74,793,B,26.298863257854396,44.0058029267116,1.3149431628927197,0.691241535949387,A,826,Incorrect
2,new_learn,74,794,A,39.62909188474728,84.10695337823124,1.981454594237364,1.3211489342443523,B,1045,Incorrect
2,new_learn,74,795,A,84.96676784880702,34.608125457772985,4.248338392440351,0.5436231634632676,A,743,Correct
2,new_learn,74,796,B,52.78807108118907,32.99785600403064,2.6394035540594536,0.5183291100323825,A,652,Incorrect
2,new_learn,74,797,B,30.7436824825649,44.98139853880441,1.5371841241282451,0.706566155988513,B,1282,Correct
2,new_learn,74,798,B,21.699562706411573,47.00920532791421,1.0849781353205785,0.7384188705463473,B,679,Correct
2,new_learn,74,799,A,58.85234641597184,71.63645169447754,2.942617320798592,1.1252627518630538,A,976,Correct
2,new_learn,74,800,B,39.62454131129383,50.04055770151589,1.9812270655646915,0.7860352422830924,A,1243,Incorrect
2,new_learn,74,801,A,79.17677630299761,34.88675976529012,3.9588388151498806,0.5479999409309371,A,791,Correct
2,new_learn,74,802,A,74.26782448297575,50.22355748889099,3.7133912241487876,0.7889097962212228,A,543,Correct
2,new_learn,74,803,A,39.95391782445766,80.9537921699534,1.9976958912228833,1.2716191938068027,A,1831,Correct
2,new_learn,74,804,B,53.19305986485851,34.79141833148202,2.6596529932429256,0.5465023211907658,B,1523,Correct
2,new_learn,74,805,A,86.41000612392507,30.50105010599364,4.320500306196254,0.47910937469881903,B,669,Incorrect
2,new_learn,74,806,A,45.14779658064401,83.52554931421045,2.2573898290322005,1.3120162605628776,A,581,Correct
2,new_learn,74,807,B,64.63610880190183,22.807378023690177,3.2318054400950915,0.35825745623435173,A,436,Incorrect
2,new_learn,74,808,A,41.03381982165506,70.35003394286099,2.051690991082753,1.1050557490734234,B,351,Incorrect
2,new_learn,74,809,A,64.28336494323715,56.39066468634944,3.214168247161857,0.8857824895484037,A,553,Correct
2,new_learn,74,810,A,62.68516519955177,44.86646127479618,3.134258259977589,0.7047607256673531,A,734,Correct
2,new_learn,74,811,A,34.779900991539904,86.16495382096278,1.7389950495769952,1.3534759296042023,A,1032,Correct
2,new_learn,74,812,A,80.33660331363747,32.301992031062554,4.016830165681873,0.5073985043055108,A,674,Correct
2,new_learn,74,813,B,22.552694058169894,47.93256996728014,1.1276347029084948,0.7529230483844301,A,871,Incorrect
2,new_learn,74,814,A,74.50100180398478,42.01852444477274,3.7250500901992387,0.6600254385519058,B,576,Incorrect
2,new_learn,74,815,A,59.12908387958033,63.689965198110585,2.9564541939790168,1.000439633868869,A,486,Correct
2,new_learn,74,816,B,55.23855432362548,34.41941663563148,2.761927716181274,0.5406589322167308,B,1391,Correct
2,new_learn,74,817,B,22.795969378852114,47.313758110347884,1.1397984689426055,0.7432027744659669,B,684,Correct
2,new_learn,74,818,B,17.790688255001996,62.90487507131688,0.8895344127500998,0.9881074669951642,A,2710,Incorrect
2,new_learn,74,819,B,31.016255390506924,43.42382876552439,1.5508127695253462,0.6820999072025629,B,375,Correct
2,new_learn,74,820,B,24.391970984756604,64.83451095095398,1.21959854923783,1.0184181165130202,A,701,Incorrect
2,new_learn,74,821,B,46.42698138332928,31.528977309170727,2.321349069166464,0.49525601744845016,B,557,Correct
2,new_learn,74,822,B,12.022366377209394,64.10267741615772,0.6011183188604697,1.0069225022301873,A,811,Incorrect
2,new_learn,74,823,B,49.264983141234964,34.45683066414263,2.463249157061748,0.54124663040229,B,396,Correct
2,new_learn,74,824,A,52.11016630153185,64.51187190755539,2.6055083150765928,1.0133501142705088,B,532,Incorrect
2,new_learn,74,825,A,45.99892255012455,68.16090550279844,2.299946127506227,1.0706689999480985,B,895,Incorrect
2,new_learn,74,826,B,34.94823084351613,46.072553145281205,1.7474115421758063,0.7237059724667038,A,256,Incorrect
2,new_learn,74,827,A,41.91698994299342,82.34152725433161,2.0958494971496706,1.2934176855378596,B,499,Incorrect
2,new_learn,74,828,A,75.24163574144737,43.06381780819892,3.762081787072368,0.6764448683088352,A,343,Correct
2,new_learn,74,829,A,53.621065618959506,75.067533899846,2.6810532809479755,1.1791580651142948,A,635,Correct
2,new_learn,74,830,B,35.574947809719596,51.74365753963203,1.7787473904859796,0.8127874719818706,A,576,Incorrect
2,new_learn,74,831,A,40.543630610948696,80.71534572682593,2.027181530547435,1.2678736858367832,B,390,Incorrect
2,new_learn,74,832,B,54.84253477665757,34.32172453583094,2.7421267388328783,0.5391243883014952,B,341,Correct
2,new_learn,74,833,B,20.176709140041723,60.83583184571789,1.008835457002086,0.9556070120076566,B,999,Correct
2,new_learn,74,834,B,30.934418391359095,49.55361713914537,1.5467209195679548,0.7783863978157018,B,644,Correct
2,new_learn,74,835,B,41.47013467040114,45.77149337058054,2.0735067335200568,0.7189769365842487,B,919,Correct
2,new_learn,74,836,B,20.081818143834585,56.70388678687668,1.0040909071917292,0.8907025707981957,A,2120,Incorrect
2,new_learn,74,837,B,60.91822169012839,13.0965614048514,3.04591108450642,0.2057203054838439,B,724,Correct
2,new_learn,74,838,A,67.65053322954323,57.006359049693316,3.3825266614771614,0.8954537939920928,B,549,Incorrect
2,new_learn,74,839,A,82.95549150422903,40.917010275259514,4.147774575211452,0.6427228944380668,B,712,Incorrect
2,new_learn,74,840,B,20.633631970584542,60.78323924739621,1.0316815985292271,0.9547808894050536,A,1698,Incorrect
2,new_learn,74,841,A,58.681920635371654,61.46877916286533,2.9340960317685822,0.9655493252159554,B,2528,Incorrect
2,new_learn,74,842,B,41.87728945243584,36.22287839813854,2.093864472621792,0.5689876433373423,A,1028,Incorrect
2,new_learn,74,843,B,39.840559139957655,45.37729943386627,1.992027956997883,0.7127849527058929,B,619,Correct
2,new_learn,74,844,A,62.54557257525176,51.73358220571661,3.127278628762588,0.8126292090068148,B,1434,Incorrect
2,new_learn,74,845,B,41.21420779180398,40.63873998318188,2.060710389590199,0.6383518349115499,B,3685,Correct
2,new_learn,74,846,B,55.89891753832997,28.869548279798778,2.7949458769164983,0.4534818039413585,B,765,Correct
2,new_learn,74,847,A,70.40474516533253,46.22785154353269,3.5202372582666266,0.7261453940020094,B,568,Incorrect
2,new_learn,74,848,A,45.01111147560799,83.49923582295693,2.2505555737803995,1.3116029292088158,B,1684,Incorrect
2,new_learn,74,849,B,61.983984190598974,15.67709666406489,3.0991992095299485,0.24625525854721658,B,777,Correct
2,new_learn,74,850,A,50.04999179971408,74.24449084906172,2.5024995899857037,1.1662297351046347,B,807,Incorrect
2,new_learn,74,851,A,64.91108818846303,50.8494433780506,3.2455544094231517,0.7987411887780695,A,2756,Correct
2,new_learn,74,852,A,31.53536768339168,87.05625397913437,1.5767683841695839,1.3674764397494787,A,1134,Correct
2,new_learn,74,853,A,64.8702105400998,60.16673614683767,3.2435105270049904,0.9450968813469034,B,819,Incorrect
2,new_learn,74,854,B,28.64783406246228,58.799239668539045,1.432391703123114,0.9236162968967389,A,1259,Incorrect
2,new_learn,74,855,B,62.7015693452489,27.713622311037753,3.135078467262445,0.4353245612835919,B,393,Correct
2,new_learn,74,856,A,62.73493080282361,50.22059277763814,3.1367465401411807,0.7888632266457631,A,796,Correct
2,new_learn,74,857,B,21.449639097051065,48.130548590058865,1.0724819548525533,0.7560328893188777,A,976,Incorrect
2,new_learn,74,858,B,29.676236987697536,37.89312176122989,1.4838118493848769,0.5952237647333167,B,354,Correct
2,new_learn,74,859,B,27.706009780189184,47.42948616079943,1.3853004890094593,0.7450206264315312,B,344,Correct
2,new_learn,74,860,B,57.44166274459829,27.500064846097345,2.872083137229914,0.43197000846871164,B,429,Correct
2,new_learn,74,861,A,75.3680499739666,56.561184940069175,3.76840249869833,0.8884610154302749,B,849,Incorrect
2,new_learn,74,862,A,64.74297532755823,48.37723319912338,3.2371487663779113,0.7599078020968313,A,440,Correct
2,new_learn,74,863,A,49.58527571365514,74.81720263504988,2.479263785682757,1.1752258708020582,A,302,Correct
2,new_learn,74,864,B,48.23108151861032,42.54808575669817,2.411554075930516,0.6683437681877574,A,781,Incorrect
2,new_learn,74,865,A,77.47207026709161,35.86081721876336,3.8736035133545808,0.5633003996309667,B,640,Incorrect
2,new_learn,74,866,A,47.71384329634782,61.59302249439765,2.385692164817391,0.9675009349039526,A,884,Correct
2,new_learn,74,867,A,71.63904541141615,51.424987431369715,3.5819522705708073,0.8077818136266928,A,820,Correct
2,new_learn,74,868,B,12.838326505532407,65.91403237033721,0.6419163252766203,1.035375199315656,A,1270,Incorrect
2,new_learn,74,869,A,66.85248222251707,59.96744667412989,3.3426241111258537,0.9419664496299207,A,763,Correct
2,new_learn,74,870,B,21.919663675395125,52.28145186531197,1.0959831837697562,0.8212351254953624,A,591,Incorrect
2,new_learn,74,871,B,18.365156434390126,54.95177826659899,0.9182578217195063,0.8631805145202134,A,1668,Incorrect
2,new_learn,74,872,B,31.687164268901377,43.6445837680991,1.5843582134450687,0.6855675186742224,A,1312,Incorrect
2,new_learn,74,873,A,81.76008880239833,39.98347217743829,4.088004440119916,0.6280589122882602,B,400,Incorrect
2,new_learn,74,874,B,19.014090490995816,54.77959581878306,0.9507045245497907,0.8604758789545349,B,1164,Correct
2,new_learn,74,875,A,84.0491355025581,44.29388750792292,4.202456775127905,0.6957667579691167,B,663,Incorrect
2,new_learn,74,876,A,47.88098966900716,79.60884670049613,2.394049483450358,1.2504928397751733,B,1523,Incorrect
2,new_learn,74,877,B,47.500806112646735,28.157515026405562,2.3750403056323366,0.4422972117514996,B,957,Correct
2,new_learn,74,878,A,50.3550951997524,63.63781518546753,2.5177547599876196,0.9996204633858489,A,812,Correct
2,new_learn,74,879,B,34.24780639539479,44.16978439879646,1.7123903197697394,0.6938173508895201,B,495,Correct
2,new_learn,74,880,A,67.54991344621892,54.47035922945591,3.377495672310946,0.8556184019682784,B,865,Incorrect
2,new_learn,74,881,B,48.68342611703573,22.463866537865613,2.4341713058517866,0.352861590432901,A,574,Incorrect
2,new_learn,74,882,A,65.83323554785899,47.407380676261674,3.2916617773929495,0.7446733942923918,B,292,Incorrect
2,new_learn,74,883,B,33.175195605589195,39.57972857941765,1.6587597802794596,0.6217169226808823,A,543,Incorrect
2,new_learn,74,884,B,39.92326568853105,44.000420426894244,1.9961632844265527,0.691156987839966,B,310,Correct
2,new_learn,74,885,B,33.04241935653209,33.852810738027955,1.6521209678266047,0.5317587075897714,B,678,Correct
2,new_learn,74,886,A,66.50732287260405,53.64009634379393,3.3253661436302027,0.8425766630575586,B,651,Incorrect
2,new_learn,74,887,A,44.68277016770092,80.06880829140324,2.2341385083850462,1.2577178995498097,B,1176,Incorrect
2,new_learn,74,888,B,48.65744505178414,28.30967548964209,2.4328722525892066,0.44468734271885313,B,1508,Correct
2,new_learn,74,889,A,63.97069730712027,44.5093288975691,3.1985348653560135,0.6991509034040749,B,597,Incorrect
2,new_learn,74,890,A,35.889453877448034,87.37302235148894,1.7944726938724016,1.372452225706872,B,1704,Incorrect
2,new_learn,74,891,A,74.73825094076122,53.489690062895036,3.736912547038061,0.84021408672193,B,1001,Incorrect
2,new_learn,74,892,B,35.41409435896418,35.8839412476154,1.770704717948209,0.5636636310267815,B,7012,Correct
2,new_learn,74,893,B,32.39859815827413,36.08920334315372,1.6199299079137066,0.5668878804837997,B,567,Correct
2,new_learn,74,894,A,37.00307518936221,75.39707084704531,1.8501537594681106,1.1843344193763334,A,814,Correct
2,new_learn,74,895,B,49.41757400924197,33.011017069030586,2.4708787004620985,0.5185358435579687,B,810,Correct
2,new_learn,74,896,A,39.384229858463364,86.75992795248516,1.969211492923168,1.3628217614075355,A,1028,Correct
2,new_learn,74,897,B,66.68036859508467,18.12634942073072,3.334018429754234,0.28472803088284615,B,825,Correct
2,new_learn,74,898,A,79.5069875696781,34.56629243624306,3.9753493784839056,0.5429660518976881,A,1617,Correct
