experiment,condition,subject,trial,cat,x,y,xt,yt,resp,rt,fb
2,relearn,79,0,B,49.37220964122548,24.31244816648413,2.468610482061274,0.3818990427530459,A,715,Incorrect
2,relearn,79,1,A,56.10836040743656,84.47836818312115,2.8054180203718277,1.3269831043567357,B,1539,Incorrect
2,relearn,79,2,B,75.27004794182726,61.67235903191644,3.7635023970913632,0.9687471503211041,A,1350,Incorrect
2,relearn,79,3,B,70.23374270493814,59.45948598551092,3.5116871352469072,0.9339874217915318,A,1878,Incorrect
2,relearn,79,4,B,50.840349816152326,26.205093830396706,2.5420174908076163,0.4116286513210275,B,1189,Correct
2,relearn,79,5,A,58.54683682082029,84.36304432889406,2.927341841041015,1.3251716014906183,A,1231,Correct
2,relearn,79,6,B,43.682375626243896,35.428588293603944,2.1841187813121947,0.5565109635512174,B,750,Correct
2,relearn,79,7,B,32.66066675660542,20.304920346139433,1.633033337830271,0.3189489429557878,B,678,Correct
2,relearn,79,8,A,41.43233339840135,70.45521250998169,2.071616669920067,1.1067078901423308,A,1342,Correct
2,relearn,79,9,A,34.164851211958556,47.876157750997976,1.708242560597928,0.7520369273632064,107,1189,Incorrect
2,relearn,79,10,A,28.771458555030726,41.535190971121025,1.4385729277515364,0.6524332541016146,A,2172,Correct
2,relearn,79,11,A,64.6892963901615,79.23503267432582,3.234464819508075,1.2446209827830461,B,1687,Incorrect
2,relearn,79,12,B,61.7241901752284,49.04504142628499,3.08620950876142,0.7703977091991198,A,6483,Incorrect
2,relearn,79,13,B,70.01196652832084,38.9344063270928,3.500598326416042,0.6115802244453735,B,889,Correct
2,relearn,79,14,A,64.83791385595826,79.90432139120004,3.2418956927979132,1.255134145363359,A,858,Correct
2,relearn,79,15,B,52.48684814573949,41.31487692915414,2.6243424072869748,0.6489725692229854,B,588,Correct
2,relearn,79,16,B,70.76283721469812,60.53695672561,3.5381418607349064,0.950912292599298,A,427,Incorrect
2,relearn,79,17,B,72.6410982030026,60.768741132710375,3.6320549101501296,0.954553153552114,A,735,Incorrect
2,relearn,79,18,A,30.534871322651032,47.62817471386881,1.5267435661325515,0.7481416189249072,B,659,Incorrect
2,relearn,79,19,B,59.745919058435696,43.84069149623077,2.987295952921785,0.6886479716642755,B,1070,Correct
2,relearn,79,20,A,64.28583721853278,78.1190293066726,3.2142918609266387,1.227090842877042,B,791,Incorrect
2,relearn,79,21,B,85.79544119662728,62.17329368255679,4.289772059831364,0.9766158134130055,A,1253,Incorrect
2,relearn,79,22,A,30.23337332051978,45.54763741569302,1.511668666025989,0.7154606154675638,B,606,Incorrect
2,relearn,79,23,B,62.225968366282416,41.12580357237643,3.111298418314121,0.6460026118797733,A,447,Incorrect
2,relearn,79,24,B,71.66450431307662,39.96219803756672,3.5832252156538313,0.6277247388806002,B,749,Correct
2,relearn,79,25,B,49.87477555680968,27.726841710815364,2.493738777840484,0.43553221112972296,B,1266,Correct
2,relearn,79,26,A,34.40182652217659,54.2812006501585,1.7200913261088295,0.8526471059528572,A,732,Correct
2,relearn,79,27,B,46.65682066515053,16.517337835331144,2.3328410332575267,0.2594537360016853,B,664,Correct
2,relearn,79,28,A,43.45769195403374,62.416456471634056,2.172884597701687,0.9804354055719633,A,568,Correct
2,relearn,79,29,A,21.172588314765868,38.258101241002734,1.0586294157382934,0.6009568489951437,A,744,Correct
2,relearn,79,30,A,15.02822449163249,40.78777284979536,0.7514112245816245,0.6406928377060316,A,611,Correct
2,relearn,79,31,B,39.091046063905765,12.73845355681194,1.9545523031952883,0.2000951605608758,B,540,Correct
2,relearn,79,32,A,56.284542232926,76.25962386809799,2.8142271116463,1.1978833705476872,B,635,Incorrect
2,relearn,79,33,A,12.156665570713702,35.80716551632433,0.607833278535685,0.5624576406597914,100,915,Correct
2,relearn,79,34,A,42.21132299517211,57.97522692980735,2.1105661497586055,0.9106727350644195,B,836,Incorrect
2,relearn,79,35,A,40.81718434583626,49.53594556093506,2.040859217291813,0.7781088133142876,A,729,Correct
2,relearn,79,36,B,80.29117309451922,49.38548452858288,4.014558654725961,0.7757453769448418,B,1769,Correct
2,relearn,79,37,A,47.1266049361483,66.30929501538436,2.3563302468074148,1.0415839704252492,A,603,Correct
2,relearn,79,38,B,50.156839119786554,22.588504508040625,2.5078419559893277,0.35481939909020177,B,556,Correct
2,relearn,79,39,B,32.73932660424315,13.926838180900347,1.6369663302121578,0.21876226258425188,A,523,Incorrect
2,relearn,79,40,B,76.90730988087222,61.42726746106264,3.845365494043611,0.9648972609288486,B,520,Correct
2,relearn,79,41,B,79.28872234264603,59.78546042453027,3.964436117132301,0.9391078163059381,B,611,Correct
2,relearn,79,42,B,52.813225586641536,21.769130098154825,2.6406612793320767,0.34194869595701827,B,1198,Correct
2,relearn,79,43,A,63.21468010977824,74.72885556286806,3.1607340054889117,1.1738381182373951,B,670,Incorrect
2,relearn,79,44,A,10.170197732405416,33.636992459609885,0.5085098866202707,0.5283686419998285,A,1683,Correct
2,relearn,79,45,B,48.95049319319121,17.97408156645591,2.4475246596595603,0.2823362130210081,A,934,Incorrect
2,relearn,79,46,A,23.517854274420642,50.4125514721788,1.1758927137210322,0.7918785067685712,A,596,Correct
2,relearn,79,47,A,39.90604913694854,48.52793705126468,1.995302456847427,0.7622750526706054,B,493,Incorrect
2,relearn,79,48,A,42.305650039548524,50.11384075425956,2.1152825019774264,0.787186369783753,B,1081,Incorrect
2,relearn,79,49,A,38.96408283346896,48.423904476942106,1.9482041416734477,0.760640912814476,A,942,Correct
2,relearn,79,50,A,31.483870219626,40.53295835953601,1.5741935109813,0.6366902210528966,A,600,Correct
2,relearn,79,51,B,55.76853149649237,30.31500591335052,2.7884265748246184,0.47618699935456577,A,932,Incorrect
2,relearn,79,52,B,58.966703448005866,33.013849589400124,2.9483351724002933,0.5185803366838891,B,535,Correct
2,relearn,79,53,B,74.28646142177293,47.1655763580341,3.7143230710886463,0.7408751409436419,B,893,Correct
2,relearn,79,54,A,46.34416187422854,55.11385923198403,2.317208093711427,0.865726476370915,B,945,Incorrect
2,relearn,79,55,A,50.419206538777416,58.01486932854361,2.5209603269388707,0.9112954364076221,B,633,Incorrect
2,relearn,79,56,A,32.441753517795554,44.021043724288965,1.6220876758897775,0.6914809378379063,A,869,Correct
2,relearn,79,57,B,82.86289562855308,59.468125920662416,4.143144781427654,0.934123137575529,B,1796,Correct
2,relearn,79,58,B,52.86672156702029,44.18905261800144,2.6433360783510147,0.6941200153690308,A,1618,Incorrect
2,relearn,79,59,B,60.72556263987778,28.28800819335695,3.0362781319938894,0.4443469936246904,B,623,Correct
2,relearn,79,60,B,82.82099895832671,52.98938663671688,4.141049947916335,0.8323553388806946,B,566,Correct
2,relearn,79,61,A,22.474633700155593,48.96355479895629,1.1237316850077796,0.7691177202502116,A,642,Correct
2,relearn,79,62,A,35.86035622790727,51.16138885327775,1.7930178113953632,0.8036412168445406,A,561,Correct
2,relearn,79,63,A,20.396185496108988,42.044152571823105,1.0198092748054493,0.6604280042302394,A,534,Correct
2,relearn,79,64,A,21.4556249337998,41.40625574079044,1.07278124668999,0.6504079442396372,A,598,Correct
2,relearn,79,65,B,47.94394322757278,21.652969858056537,2.397197161378639,0.3401240551723582,B,716,Correct
2,relearn,79,66,B,70.97970856249405,46.453705952332086,3.548985428124703,0.7296931067593345,B,647,Correct
2,relearn,79,67,B,76.09231389567762,63.105213808219965,3.804615694783881,0.991254380515585,B,561,Correct
2,relearn,79,68,A,21.773934396673575,40.58301941488517,1.0886967198336788,0.6374765782714761,A,397,Correct
2,relearn,79,69,A,38.3223592651508,59.672387839880344,1.91611796325754,0.937331676299645,A,669,Correct
2,relearn,79,70,A,44.59417608427461,76.75245860448678,2.2297088042137303,1.2056248004840517,B,652,Incorrect
2,relearn,79,71,A,65.52790801145792,76.10621838780095,3.2763954005728966,1.1954736828980796,B,655,Incorrect
2,relearn,79,72,B,76.88818402116584,52.28401421959988,3.844409201058292,0.8212753748623964,B,862,Correct
2,relearn,79,73,B,70.0448697362666,51.10862146878945,3.50224348681333,0.8028123487072526,B,546,Correct
2,relearn,79,74,A,44.457589779682124,72.51538593266281,2.222879488984106,1.1390690185914103,A,696,Correct
2,relearn,79,75,A,21.03412616594278,47.15239799694263,1.051706308297139,0.7406681357316853,A,453,Correct
2,relearn,79,76,B,79.96278021710194,49.12004351114101,3.9981390108550965,0.7715758391930579,B,462,Correct
2,relearn,79,77,B,64.9523727283051,46.906867930586714,3.2476186364152544,0.7368113584681893,B,620,Correct
2,relearn,79,78,A,30.718692373099387,57.44215705362612,1.5359346186549692,0.9022992930301146,A,527,Correct
2,relearn,79,79,A,43.913761207583256,62.91445605371366,2.195688060379163,0.9882579647147236,A,918,Correct
2,relearn,79,80,B,64.89679444420146,48.13502518593628,3.2448397222100733,0.7561032075224854,A,734,Incorrect
2,relearn,79,81,A,32.131842225414,61.5730080468136,1.6065921112707,0.9671865486964741,A,568,Correct
2,relearn,79,82,B,76.88455963150156,58.370939456915096,3.844227981575078,0.9168885729048953,B,546,Correct
2,relearn,79,83,A,40.34669083755085,56.09628798007482,2.017334541877543,0.8811584310593025,A,1004,Correct
2,relearn,79,84,A,63.380184857067114,82.04218800417149,3.1690092428533556,1.288715675591689,B,588,Incorrect
2,relearn,79,85,B,83.93633446713116,58.99427917465832,4.196816723356558,0.9266799702946594,B,1153,Correct
2,relearn,79,86,A,48.53406293541083,79.70965019818074,2.4267031467705413,1.2520762574140842,A,733,Correct
2,relearn,79,87,B,55.20117052068782,37.01130134249508,2.760058526034391,0.5813721619869031,B,1448,Correct
2,relearn,79,88,B,71.25099201978267,55.55242881922251,3.5625496009891333,0.8726155113376968,B,564,Correct
2,relearn,79,89,A,67.53155304183862,88.34155587085915,3.376577652091931,1.3876659146529169,B,856,Incorrect
2,relearn,79,90,B,33.42499242247466,12.063223382434412,1.6712496211237329,0.1894886697843428,A,847,Incorrect
2,relearn,79,91,A,38.47152606342757,57.146507275855285,1.9235763031713784,0.897655237180713,A,2039,Correct
2,relearn,79,92,B,64.23462406975824,33.54087905922138,3.211731203487912,0.5268588962369681,B,714,Correct
2,relearn,79,93,B,51.36314176136769,23.96659916209385,2.568157088068385,0.37646645929582667,107,571,Correct
2,relearn,79,94,B,47.52079451616834,23.98221464620647,2.376039725808417,0.3767117467466789,B,512,Correct
2,relearn,79,95,B,69.41646475184953,48.34560155677862,3.470823237592476,0.7594109334207748,A,658,Incorrect
2,relearn,79,96,A,40.778860816248105,49.299360407602435,2.038943040812405,0.7743925424159966,B,603,Incorrect
2,relearn,79,97,A,60.741984749029555,87.56248909073693,3.0370992374514776,1.375428362287478,B,887,Incorrect
2,relearn,79,98,B,85.46014816342057,68.91783041201671,4.273007408171028,1.0825587486186947,A,1061,Incorrect
2,relearn,79,99,B,31.965837891834934,19.01497323715591,1.5982918945917468,0.29868650115027773,A,635,Incorrect
2,relearn,79,100,A,47.64659693388839,71.160860977153,2.3823298466944194,1.1177921903447425,A,1162,Correct
2,relearn,79,101,B,31.292738887058945,16.188777109942976,1.564636944352947,0.25429271619599725,B,618,Correct
2,relearn,79,102,A,40.731311446448345,58.11750595131975,2.036565572322417,0.912907648708136,A,584,Correct
2,relearn,79,103,B,69.05698270789665,38.06482633950011,3.4528491353948323,0.597920893941724,A,608,Incorrect
2,relearn,79,104,A,48.20681051819962,64.66912783221625,2.410340525909981,1.015820284558749,B,845,Incorrect
2,relearn,79,105,A,32.3443569330391,64.07661899147509,1.6172178466519551,1.0065131774524518,A,701,Correct
2,relearn,79,106,A,68.06955934786333,87.87445391017945,3.4034779673931665,1.3803286942121733,B,1041,Incorrect
2,relearn,79,107,A,43.383590820104274,52.74418489015273,2.1691795410052137,0.8285037188524279,A,588,Correct
2,relearn,79,108,B,48.89750298477946,28.90886848734524,2.444875149238973,0.45409944431718646,A,548,Incorrect
2,relearn,79,109,B,71.97970625321986,53.01175051623548,3.5989853126609934,0.8327066298787015,B,1139,Correct
2,relearn,79,110,A,62.760486914453836,86.65573297706655,3.138024345722692,1.3611850705609552,B,1202,Incorrect
2,relearn,79,111,A,28.52369259442107,46.079475595163366,1.4261846297210536,0.723814710055177,A,637,Correct
2,relearn,79,112,A,40.31710476498168,68.67170338641216,2.0158552382490837,1.0786925943412489,A,689,Correct
2,relearn,79,113,A,29.78726264018747,45.81130181634246,1.4893631320093734,0.719602246188031,A,564,Correct
2,relearn,79,114,A,31.10618162117907,57.717938456087005,1.5553090810589536,0.9066312571699537,A,775,Correct
2,relearn,79,115,B,57.467480583426514,40.940582958838,2.873374029171326,0.6430931732858446,B,706,Correct
2,relearn,79,116,B,68.47730804130045,58.11785630047166,3.4238654020650223,0.9129131519797451,A,890,Incorrect
2,relearn,79,117,B,42.79803552938769,19.482776414878078,2.1399017764693844,0.30603473628256733,A,816,Incorrect
2,relearn,79,118,A,58.8533051701765,84.8812933862449,2.942665258508825,1.3333122386471346,B,1389,Incorrect
2,relearn,79,119,A,45.151809444810596,69.42397026208796,2.2575904722405298,1.090509174792059,B,1349,Incorrect
2,relearn,79,120,A,26.484336497554146,42.96476914177776,1.3242168248777073,0.6748890154949523,A,906,Correct
2,relearn,79,121,A,41.480981690624155,69.70893620326609,2.074049084531208,1.0949854093287015,A,586,Correct
2,relearn,79,122,A,31.511746684743613,46.8850996405165,1.575587334237181,0.7364694229673604,A,754,Correct
2,relearn,79,123,B,85.57742422139947,62.283032570295944,4.278871211069974,0.9783395878306778,B,2282,Correct
2,relearn,79,124,B,75.65480139498933,55.2009047024973,3.782740069749467,0.8670937834243789,B,783,Correct
2,relearn,79,125,A,26.200691303768334,40.831084049245334,1.3100345651884167,0.6413731684360827,A,698,Correct
2,relearn,79,126,B,71.8826593474396,40.29846579496164,3.59413296737198,0.6330068204619553,A,1421,Incorrect
2,relearn,79,127,B,75.78124729872684,46.65523424628063,3.789062364936342,0.7328587057981306,B,541,Correct
2,relearn,79,128,B,35.625534699268115,19.71428324401318,1.7812767349634058,0.3096712370509009,A,609,Incorrect
2,relearn,79,129,B,48.81639090085818,26.008094225365998,2.440819545042909,0.40853418876140474,B,577,Correct
2,relearn,79,130,A,37.36065049214838,54.920976687217546,1.868032524607419,0.8626966844426948,A,608,Correct
2,relearn,79,131,B,44.72712514313205,20.50036691548559,2.2363562571566025,0.32201901048792386,A,713,Incorrect
2,relearn,79,132,A,59.85369551864237,69.04633129802902,2.9926847759321187,1.0845772358160748,B,538,Incorrect
2,relearn,79,133,A,51.18989614161357,73.08978093103394,2.5594948070806787,1.148091594127118,B,1276,Incorrect
2,relearn,79,134,A,45.411515478743226,58.265645542422014,2.2705757739371615,0.9152346199636993,A,739,Correct
2,relearn,79,135,A,64.09604702279249,77.81055532507591,3.204802351139625,1.222245344905003,A,835,Correct
2,relearn,79,136,A,30.78074216282816,58.254338309560154,1.5390371081414083,0.9150570063652432,A,722,Correct
2,relearn,79,137,A,33.945761226740956,48.42655548213865,1.6972880613370478,0.7606825547067264,A,1195,Correct
2,relearn,79,138,B,67.9757827991429,51.535310006786204,3.3987891399571453,0.8095147565889603,A,859,Incorrect
2,relearn,79,139,A,60.76789465668851,82.75247770874009,3.0383947328344254,1.2998728801806547,B,738,Incorrect
2,relearn,79,140,A,19.04866030554946,49.60234335433042,0.952433015277473,0.7791517874140147,A,660,Correct
2,relearn,79,141,A,39.554583987991364,50.81752837524645,1.977729199399568,0.7982398690863254,A,895,Correct
2,relearn,79,142,A,27.97583660944038,51.02535568986591,1.3987918304720188,0.8015044129104445,A,625,Correct
2,relearn,79,143,B,50.907155018752704,36.213555553149746,2.545357750937635,0.5688412004307055,B,544,Correct
2,relearn,79,144,A,35.36715859291519,47.89715072153892,1.7683579296457594,0.7523666841733485,A,597,Correct
2,relearn,79,145,A,32.35703263943807,46.95183162794488,1.6178516319719034,0.7375176465746827,A,1376,Correct
2,relearn,79,146,B,82.43714714700337,65.19796597212658,4.1218573573501684,1.0241272546351508,B,411,Correct
2,relearn,79,147,B,73.89579671845881,60.92212288587561,3.6947898359229407,0.956962468496807,B,575,Correct
2,relearn,79,148,A,36.06893026289029,45.35348481339987,1.8034465131445145,0.7124108735223664,A,620,Correct
2,relearn,79,149,A,38.552410919275516,45.71585526848269,1.9276205459637759,0.7181029753201974,B,1383,Incorrect
2,relearn,79,150,B,40.37504770238726,28.095794409184982,2.018752385119363,0.4413277065633236,A,777,Incorrect
2,relearn,79,151,B,85.43910552082227,61.84690427953625,4.271955276041114,0.9714889006593109,B,737,Correct
2,relearn,79,152,B,86.76868214983205,67.52986472508275,4.338434107491603,1.0607566345911623,B,477,Correct
2,relearn,79,153,A,42.637133906217414,67.90475587498702,2.1318566953108706,1.0666454110033379,A,556,Correct
2,relearn,79,154,A,31.295418215156552,58.64671687207137,1.5647709107578276,0.9212204744122999,A,517,Correct
2,relearn,79,155,B,75.18590312421043,54.65789306329296,3.7592951562105212,0.8585641765416884,B,412,Correct
2,relearn,79,156,B,75.31630494418786,63.385922942117176,3.7658152472093933,0.9956637492798202,B,494,Correct
2,relearn,79,157,B,87.90283711903528,68.20542342315599,4.395141855951764,1.0713682858058404,B,458,Correct
2,relearn,79,158,A,29.775265136389045,60.02620599463189,1.4887632568194522,0.9428894388780157,A,394,Correct
2,relearn,79,159,B,75.92449243810343,45.74862830766737,3.7962246219051714,0.7186177730158894,B,303,Correct
2,relearn,79,160,B,37.046398662561664,12.910997433060864,1.8523199331280833,0.20280547343110342,A,440,Incorrect
2,relearn,79,161,A,55.80156306034003,79.58077520400946,2.790078153017001,1.2500518937394844,A,103,Correct
2,relearn,79,162,A,42.96345617811073,67.40903431545043,2.1481728089055365,1.0588586349550067,A,831,Correct
2,relearn,79,163,A,22.652528655790377,40.95763234571038,1.1326264327895188,0.643360984428577,A,539,Correct
2,relearn,79,164,B,44.60136535524437,26.330933910103482,2.2300682677622183,0.4136053426706973,B,1191,Correct
2,relearn,79,165,B,67.23574226199327,42.23752401631827,3.3617871130996635,0.6634654757774396,B,1066,Correct
2,relearn,79,166,A,28.180666606783056,49.70819010023482,1.409033330339153,0.7808144242107131,A,518,Correct
2,relearn,79,167,A,35.943148207838625,56.531586514648254,1.7971574103919312,0.8879960844509738,A,774,Correct
2,relearn,79,168,A,18.15556953973709,44.789509014583516,0.9077784769868544,0.7035519623905468,A,517,Correct
2,relearn,79,169,A,37.88905755012828,68.66340097307375,1.894452877506414,1.0785621803374936,B,689,Incorrect
2,relearn,79,170,A,31.867158562458375,55.674646390362796,1.5933579281229189,0.8745353004558662,B,763,Incorrect
2,relearn,79,171,B,64.46531422828266,53.53275240365768,3.223265711414133,0.8408905083888616,B,489,Correct
2,relearn,79,172,B,65.40281130300859,44.48195297524543,3.2701405651504296,0.6987208834217884,B,510,Correct
2,relearn,79,173,B,47.15397912715459,17.78476460491067,2.3576989563577295,0.2793624291430557,B,1065,Correct
2,relearn,79,174,A,64.21064181201442,80.17440876756143,3.2105320906007204,1.2593766679503804,B,611,Incorrect
2,relearn,79,175,B,76.34628169443256,57.247930660824565,3.817314084721628,0.8992483919863217,B,551,Correct
2,relearn,79,176,B,73.9166578788333,52.69350317796456,3.695832893941665,0.8277076123790195,B,502,Correct
2,relearn,79,177,A,29.368400570076354,56.10186497710104,1.4684200285038176,0.8812460343237356,A,450,Correct
2,relearn,79,178,A,52.33338706894562,60.15297942865742,2.6166693534472807,0.9448807913230405,B,557,Incorrect
2,relearn,79,179,B,55.88392104405273,43.27115641956925,2.7941960522026363,0.6797017356002679,B,1208,Correct
2,relearn,79,180,A,38.592786745349635,50.75984330879598,1.9296393372674816,0.7973337541814123,A,630,Correct
2,relearn,79,181,B,51.482600203048165,23.500400754748238,2.574130010152408,0.36914343183766546,B,643,Correct
2,relearn,79,182,A,65.15058500094418,80.1214704182637,3.2575292500472086,1.2585451143041457,B,570,Incorrect
2,relearn,79,183,B,34.20701314359461,18.002950756906568,1.7103506571797304,0.2827896892041824,B,305,Correct
2,relearn,79,184,B,79.2450439378758,52.68885646721468,3.9622521968937905,0.8276346220172435,B,612,Correct
2,relearn,79,185,B,61.398789106084266,38.50021704744601,3.0699394553042136,0.6047599951893445,B,552,Correct
2,relearn,79,186,A,56.30446422539491,77.64334096851891,2.8152232112697453,1.2196187479343323,B,484,Incorrect
2,relearn,79,187,B,65.22144949893233,32.20793883317142,3.2610724749466162,0.5059211201278038,107,325,Correct
2,relearn,79,188,B,58.43951524323257,36.32391214183241,2.9219757621616287,0.5705746776721088,B,558,Correct
2,relearn,79,189,A,32.20901910952688,42.207731037041704,1.610450955476344,0.6629974887533207,A,616,Correct
2,relearn,79,190,B,83.97417520222302,55.630701711811085,4.198708760111151,0.8738450190593541,B,506,Correct
2,relearn,79,191,A,36.11148057892546,58.236614981704356,1.805574028946273,0.9147786089822985,A,471,Correct
2,relearn,79,192,A,56.47769267268504,72.817856170872,2.8238846336342522,1.1438202099828483,B,459,Incorrect
2,relearn,79,193,B,78.41678011549486,63.90938467312013,3.9208390057747433,1.0038862669225914,B,270,Correct
2,relearn,79,194,A,39.646397204584595,58.579098892302106,1.9823198602292296,0.9201583336698314,A,629,Correct
2,relearn,79,195,B,58.3718208419661,46.52485560901566,2.918591042098305,0.7308107229530473,B,501,Correct
2,relearn,79,196,A,11.398390237435816,35.52773642534484,0.5699195118717908,0.5580683787626892,A,544,Correct
2,relearn,79,197,B,60.76026694092612,47.24319270005827,3.038013347046306,0.7420943355931501,B,688,Correct
2,relearn,79,198,A,54.501760609166524,81.97206557704642,2.725088030458326,1.2876141950821491,B,533,Incorrect
2,relearn,79,199,A,37.349930577809594,55.208993486856194,1.86749652889048,0.8672208417519707,B,280,Incorrect
2,relearn,79,200,B,51.48839914677662,21.4893648521784,2.574419957338831,0.3375541537495719,A,342,Incorrect
2,relearn,79,201,B,73.84490205236507,46.16826071741384,3.6922451026182532,0.7252093434942277,B,1748,Correct
2,relearn,79,202,B,64.25994664171382,36.19532601978263,3.2129973320856915,0.5685548515901829,B,556,Correct
2,relearn,79,203,B,75.54948376037697,50.98756461546654,3.7774741880188487,0.8009107921019228,B,1181,Correct
2,relearn,79,204,B,46.1376120825863,16.03791265691449,2.306880604129315,0.2519229429093866,A,765,Incorrect
2,relearn,79,205,A,58.85303110416365,78.29613458447638,2.9426515552081822,1.2298728060753437,B,597,Incorrect
2,relearn,79,206,B,64.68663859093165,50.69680410150626,3.2343319295465824,0.7963435366288648,B,555,Correct
2,relearn,79,207,A,21.85151882920667,44.141912855333274,1.0925759414603335,0.6933795457085793,A,641,Correct
2,relearn,79,208,A,51.27249115821229,71.07773839285443,2.5636245579106145,1.1164865038438434,B,1300,Incorrect
2,relearn,79,209,A,24.8353772859274,45.15688861494935,1.24176886429637,0.7093227476584872,A,757,Correct
2,relearn,79,210,A,62.640791829664195,82.9031195278126,3.1320395914832098,1.3022391563412632,B,625,Incorrect
2,relearn,79,211,A,25.115551575533075,55.175206200076474,1.2557775787766539,0.8666901122923114,A,629,Correct
2,relearn,79,212,B,80.80347605030758,53.59783784039479,4.04017380251538,0.8419128680384064,B,820,Correct
2,relearn,79,213,A,45.221395824949745,76.70605332191171,2.2610697912474875,1.204895868009924,A,934,Correct
2,relearn,79,214,A,62.614542255191864,72.44907257423269,3.130727112759593,1.138027370793016,B,602,Incorrect
2,relearn,79,215,B,42.97092462877298,22.728634421846653,2.148546231438649,0.35702055462900767,A,810,Incorrect
2,relearn,79,216,A,49.58550994608682,75.548936347463,2.479275497304341,1.1867199170785634,A,719,Correct
2,relearn,79,217,B,66.61018373535482,58.40412755795396,3.3305091867677414,0.9174098903769468,A,694,Incorrect
2,relearn,79,218,A,40.446299710976774,55.14618484909208,2.0223149855488387,0.8662342459770621,A,719,Correct
2,relearn,79,219,A,48.78861538154094,63.70792237410422,2.439430769077047,1.0007217045297732,B,542,Incorrect
2,relearn,79,220,A,43.1429842646197,63.17507053730346,2.1571492132309853,0.9923516874500475,A,689,Correct
2,relearn,79,221,A,67.4061924329631,82.76152005785549,3.370309621648155,1.3000149170684157,B,533,Incorrect
2,relearn,79,222,A,44.87714732337474,70.91567861363252,2.2438573661687373,1.1139408747846136,A,558,Correct
2,relearn,79,223,A,47.318430609752255,76.60089488204677,2.3659215304876127,1.2032440430992106,A,513,Correct
2,relearn,79,224,B,42.329610018488694,28.971657111521935,2.1164805009244345,0.45508572571939904,A,708,Incorrect
2,relearn,79,225,A,65.55093562936702,88.15184110994582,3.277546781468351,1.3846858821571026,B,841,Incorrect
2,relearn,79,226,B,59.87836515172509,44.344285772119676,2.993918257586255,0.6965584120518878,B,474,Correct
2,relearn,79,227,B,66.54513833635316,47.69818898938317,3.327256916817658,0.7492414005929185,B,334,Correct
2,relearn,79,228,A,15.070032102422662,36.78704723793423,0.7535016051211331,0.5778495867497744,A,583,Correct
2,relearn,79,229,B,48.259746570833386,36.05236117398036,2.412987328541669,0.5663091650437129,A,1087,Incorrect
2,relearn,79,230,A,27.126149592103687,59.14428089551083,1.3563074796051842,0.9290361918159399,A,658,Correct
2,relearn,79,231,A,17.733208345765046,36.600861872588666,0.8866604172882524,0.5749249938698965,B,334,Incorrect
2,relearn,79,232,B,46.784506461792944,27.719141158021543,2.3392253230896474,0.43541125112929474,A,715,Incorrect
2,relearn,79,233,A,37.7187909262245,59.98569255534519,1.885939546311225,0.9422530552618421,B,1426,Incorrect
2,relearn,79,234,B,31.35303722732112,17.47053121943291,1.567651861366056,0.2744264626664078,A,360,Incorrect
2,relearn,79,235,B,55.64325207120337,29.867051270249142,2.7821626035601685,0.46915054427502206,107,473,Correct
2,relearn,79,236,B,52.18495235173431,30.15679873091156,2.6092476175867154,0.4737018867440888,B,605,Correct
2,relearn,79,237,B,64.47176472700122,56.730914979030175,3.2235882363500603,0.8911271286477418,A,1191,Incorrect
2,relearn,79,238,B,69.38434084932432,59.501626913368995,3.469217042466216,0.9346493699384036,B,590,Correct
2,relearn,79,239,A,29.45757597451267,38.808689131578866,1.4728787987256338,0.609605463356091,A,485,Correct
2,relearn,79,240,A,29.144358155185373,50.263754930876495,1.4572179077592688,0.7895412161633966,A,636,Correct
2,relearn,79,241,B,34.62307482642994,10.257563986962275,1.7311537413214972,0.16112543832583956,B,893,Correct
2,relearn,79,242,A,59.73916779708627,69.21982159060245,2.9869583898543137,1.0873024149591641,B,916,Incorrect
2,relearn,79,243,B,77.07736384614208,52.58052732835627,3.853868192307104,0.825932991883207,B,876,Correct
2,relearn,79,244,A,54.08859751646852,70.06752764748818,2.704429875823426,1.1006181505627428,A,281,Correct
2,relearn,79,245,B,49.90081439988424,27.473856635378226,2.495040719994212,0.4315583308574171,B,1039,Correct
2,relearn,79,246,B,38.10493221419847,22.417843176022895,1.9052466107099235,0.352138657155608,A,983,Incorrect
2,relearn,79,247,A,54.497665533314134,77.2740388771258,2.724883276665707,1.2138177642479524,B,595,Incorrect
2,relearn,79,248,A,53.70556609731773,71.10883826490135,2.6852783048658866,1.1169750194915942,B,372,Incorrect
2,relearn,79,249,A,67.4006464721014,82.86796849121242,3.37003232360507,1.3016870051495169,A,546,Correct
2,relearn,79,250,B,56.01290291389245,25.261026887810104,2.8006451456946224,0.3967992824643923,A,674,Incorrect
2,relearn,79,251,A,33.401957132802536,50.52789562260725,1.6700978566401268,0.7936903284466741,B,1126,Incorrect
2,relearn,79,252,B,47.47476487976372,25.79151402558905,2.373738243988186,0.4051321549387434,B,920,Correct
2,relearn,79,253,B,53.37531007616784,22.031281453762706,2.668765503808392,0.3460665598215499,B,647,Correct
2,relearn,79,254,B,77.22402504114552,46.22662869746136,3.8612012520572763,0.7261261855808385,A,782,Incorrect
2,relearn,79,255,B,47.02486513693969,31.471836485623076,2.3512432568469843,0.49435845149106333,107,905,Correct
2,relearn,79,256,A,33.12413811008586,61.68310997378384,1.656206905504293,0.968916025721053,A,667,Correct
2,relearn,79,257,B,73.89608978223116,55.988540083848555,3.694804489111558,0.8794659310631813,B,540,Correct
2,relearn,79,258,A,53.98796928105897,83.49647051850563,2.699398464052949,1.3115594919080702,B,729,Incorrect
2,relearn,79,259,A,39.44303777698918,53.757882211577076,1.972151888849459,0.84442683914218,A,971,Correct
2,relearn,79,260,B,47.686477031097866,32.96995704979111,2.3843238515548935,0.5178908742839738,B,444,Correct
2,relearn,79,261,B,31.155566787113585,12.8180449909133,1.5577783393556792,0.20134537988418338,A,898,Incorrect
2,relearn,79,262,B,36.1665322866544,14.396355151656199,1.80832661433272,0.22613741791456343,B,877,Correct
2,relearn,79,263,A,60.72443067469382,74.42917025594487,3.0362215337346914,1.1691306724443018,B,632,Incorrect
2,relearn,79,264,B,48.04085754215802,28.33281181254113,2.402042877107901,0.4450507672291066,B,570,Correct
2,relearn,79,265,B,69.57037514376384,39.53458549341487,3.478518757188192,0.6210078167441488,B,492,Correct
2,relearn,79,266,B,57.60643863812646,33.85105595697674,2.880321931906323,0.5317311435534756,107,536,Correct
2,relearn,79,267,B,39.11636377751326,15.348164081917194,1.9558181888756627,0.24108839762920897,B,988,Correct
2,relearn,79,268,A,50.907230849697015,78.99138431819647,2.5453615424848506,1.24079376335467,A,864,Correct
2,relearn,79,269,A,20.7604492275968,46.86694720645992,1.0380224613798401,0.7361842851999757,A,1591,Correct
2,relearn,79,270,B,77.51156918234751,57.704162140364865,3.8755784591173756,0.9064148593086228,B,607,Correct
2,relearn,79,271,B,71.58459703305506,51.68785148889594,3.579229851652753,0.8119108725867786,B,528,Correct
2,relearn,79,272,B,61.10496936831815,48.85349272568453,3.0552484684159076,0.7673888692460648,B,604,Correct
2,relearn,79,273,A,52.87179735399781,73.60021600984868,2.643589867699891,1.1561094895958126,B,1031,Incorrect
2,relearn,79,274,B,68.5593812705035,44.928721355353986,3.4279690635251745,0.7057387047258146,B,847,Correct
2,relearn,79,275,B,51.919345554161374,38.46603932056503,2.5959672777080685,0.6042231327109161,A,523,Incorrect
2,relearn,79,276,B,55.85331695453027,24.059598322663742,2.7926658477265134,0.37792728669400855,B,431,Correct
2,relearn,79,277,B,31.018368664788234,16.512840898411753,1.5509184332394117,0.25938309828173717,B,372,Correct
2,relearn,79,278,B,31.837295687290666,17.313413789822196,1.5918647843645335,0.2719584678533281,B,599,Correct
2,relearn,79,279,A,58.658387068046274,72.87866560621418,2.9329193534023137,1.144775402359548,B,831,Incorrect
2,relearn,79,280,B,69.76583190925581,43.5264132326508,3.48829159546279,0.6837113002440466,B,767,Correct
2,relearn,79,281,A,44.24676704053478,76.55174776434026,2.2123383520267392,1.2024720419795512,A,904,Correct
2,relearn,79,282,A,42.95225786678067,58.10534731088081,2.1476128933390335,0.912716661230733,A,683,Correct
2,relearn,79,283,B,47.80716552663344,37.9557458080237,2.390358276331672,0.5962074609600443,B,1334,Correct
2,relearn,79,284,A,22.62085056737495,51.189625094435115,1.1310425283687477,0.8040847506834653,A,607,Correct
2,relearn,79,285,A,40.000683155739125,65.51800446714829,2.0000341577869563,1.0291544075592816,A,768,Correct
2,relearn,79,286,A,35.77420683646909,53.33512711907169,1.7887103418234545,0.8377862176777668,A,641,Correct
2,relearn,79,287,A,45.88331719775179,66.1826420850405,2.29416585988759,1.0395945108476294,B,1348,Incorrect
2,relearn,79,288,B,53.171052685342616,21.15156552670429,2.6585526342671306,0.33224801435308654,B,774,Correct
2,relearn,79,289,B,87.56833152899532,59.89528325732385,4.378416576449766,0.9408329093294417,B,621,Correct
2,relearn,79,290,B,62.58464892977428,37.91796216496936,3.129232446488714,0.5956139568828174,B,844,Correct
2,relearn,79,291,A,26.358869741856083,43.236107206829615,1.3179434870928042,0.6791511838539832,A,488,Correct
2,relearn,79,292,A,42.68360731053177,73.21907401892939,2.1341803655265887,1.1501225252025795,A,542,Correct
2,relearn,79,293,A,49.30105247608308,59.36557146535773,2.4650526238041537,0.9325122159586384,B,790,Incorrect
2,relearn,79,294,A,14.127122047147772,42.12844926824968,0.7063561023573885,0.6617521336413174,A,750,Correct
2,relearn,79,295,B,42.69312302014258,31.307844317990874,2.134656151007129,0.49178246854566543,A,599,Incorrect
2,relearn,79,296,B,73.87760377960551,57.803785514997216,3.6938801889802755,0.9079797396179767,B,605,Correct
2,relearn,79,297,B,42.51687290287829,24.85687076602184,2.1258436451439144,0.3904508129488255,A,670,Incorrect
2,relearn,79,298,B,65.72662123568975,42.4511974301882,3.286331061784488,0.6668218499138459,B,1006,Correct
2,relearn,79,299,B,81.86085689588595,51.33750370104596,4.093042844794297,0.8064076224042239,B,941,Correct
2,relearn,79,300,B,88.65981403240848,69.14182380554203,4.432990701620423,1.0860772286164535,B,634,Correct
2,relearn,79,301,B,46.08894910424914,38.9370306746519,2.3044474552124568,0.6116214476004342,B,988,Correct
2,relearn,79,302,A,65.204796894327,84.65850346756311,3.26023984471635,1.3298126627880114,B,664,Incorrect
2,relearn,79,303,A,27.13415167885959,59.95369204456271,1.3567075839429794,0.9417503924139151,A,1146,Correct
2,relearn,79,304,A,46.155357602147525,54.31288839384563,2.307767880107376,0.8531448558667389,A,694,Incorrect
2,relearn,79,305,A,34.171553710762,62.38740875722644,1.7085776855380999,0.9799791251410306,B,993,Incorrect
2,relearn,79,306,A,47.6226067196455,63.01033177779192,2.381130335982275,0.9897639770668328,B,718,Incorrect
2,relearn,79,307,B,81.97752761603942,60.173577165098195,4.098876380801971,0.945204339810455,107,455,Incorrect
2,relearn,79,308,A,62.96891843760966,77.48779995026217,3.148445921880483,1.217175515332896,A,548,Correct
2,relearn,79,309,B,40.88421955701661,13.638730728909252,2.04421097785083,0.2142366813111533,A,817,Incorrect
2,relearn,79,310,B,34.00770949741336,12.059991038958845,1.7003854748706682,0.18943789625175925,A,696,Correct
2,relearn,79,311,B,58.504894832003565,46.1033327987935,2.925244741600178,0.7241894581334751,A,710,Correct
2,relearn,79,312,B,46.52858841155246,25.099119609494434,2.326429420577623,0.39425604888379606,A,827,Correct
2,relearn,79,313,A,18.242371965799396,37.346326357484585,0.9121185982899698,0.5866347226162022,A,553,Incorrect
2,relearn,79,314,B,71.60712591549498,57.00968500918787,3.580356295774749,0.8955060380416638,B,608,Incorrect
2,relearn,79,315,B,85.38287055016002,67.8530420053621,4.269143527508001,1.065833091438826,A,883,Incorrect
2,relearn,79,316,A,54.16277196472419,70.57032223514352,2.70813859823621,1.1085160294769565,B,1915,Incorrect
2,relearn,79,317,B,80.75851349786484,52.3685338384725,4.037925674893242,0.8226030059310685,B,429,Incorrect
2,relearn,79,318,B,82.11146697748069,54.50108584900062,4.105573348874034,0.856101054579435,B,493,Incorrect
2,relearn,79,319,B,40.94615486246336,30.32091825208832,2.047307743123168,0.47627987015428663,A,659,Incorrect
2,relearn,79,320,A,50.84040881999472,76.32168412201837,2.542020440999736,1.1988582107366683,A,384,Incorrect
2,relearn,79,321,B,46.04002420258055,22.130589031697557,2.3020012101290273,0.3476264796079795,A,789,Incorrect
2,relearn,79,322,A,37.30460454731831,64.02912056147369,1.8652302273659158,1.0057670738587046,A,1601,Correct
2,relearn,79,323,A,21.548967745136952,36.390051844136636,1.0774483872568477,0.5716135976864568,B,942,Correct
2,relearn,79,324,A,12.786381602793064,32.284731432796974,0.6393190801396532,0.5071273754619722,B,863,Incorrect
2,relearn,79,325,B,85.3205341444492,69.71086436001825,4.26602670722246,1.0950156967441393,A,516,Incorrect
2,relearn,79,326,A,15.002423947478576,37.204745421816405,0.7501211973739288,0.5844107744792845,A,1079,Correct
2,relearn,79,327,B,52.1679715298426,33.54572888458164,2.60839857649213,0.5269350771155832,B,297,Correct
2,relearn,79,328,B,87.78868598395107,65.13410982576876,4.3894342991975535,1.0231242046337294,B,454,Correct
2,relearn,79,329,B,55.4032789662307,45.72235713558159,2.770163948311535,0.7182051064097599,B,560,Correct
2,relearn,79,330,A,55.443183531969254,73.99465513395691,2.7721591765984623,1.1623053248687467,B,618,Incorrect
2,relearn,79,331,B,65.3080068418562,56.998508815164776,3.2654003420928097,0.8953304827964736,B,904,Incorrect
2,relearn,79,332,A,38.440624401905175,52.24629199008129,1.922031220095259,0.8206828354667333,A,636,Correct
2,relearn,79,333,A,40.724064800737175,49.86173321647942,2.036203240036859,0.7832262738407294,B,562,Correct
2,relearn,79,334,B,57.70562325759385,47.050166935568,2.8852811628796924,0.7390622939747693,B,734,Correct
2,relearn,79,335,A,38.86338136670967,46.68642019948729,1.9431690683354832,0.7333485736055768,A,818,Correct
2,relearn,79,336,A,57.645545986190584,65.60796711071897,2.8822772993095294,1.0305675374599774,B,563,Incorrect
2,relearn,79,337,B,67.19914778306209,33.895726841869624,3.359957389153104,0.5324328321725199,A,845,Correct
2,relearn,79,338,A,21.42896795949975,35.14120356345983,1.0714483979749874,0.5519967347663445,A,743,Correct
2,relearn,79,339,A,36.44291419327737,59.35870215441877,1.8221457096638685,0.9324043130747331,A,754,Incorrect
2,relearn,79,340,A,27.235175332017477,38.193872585537875,1.361758766600874,0.5999479476343519,B,359,Correct
2,relearn,79,341,A,37.88943241058724,66.12607559178375,1.894471620529362,1.0387059664493556,B,452,Incorrect
2,relearn,79,342,A,28.039690983758465,48.71764989856563,1.4019845491879233,0.7652550551074665,A,573,Correct
2,relearn,79,343,B,63.603093370875264,44.940886798336436,3.180154668543763,0.7059297990573212,B,655,Correct
2,relearn,79,344,A,33.277901695266266,51.189400957484736,1.6638950847633134,0.8040812299484819,A,850,Correct
2,relearn,79,345,B,54.06982008492837,27.145268158742585,2.7034910042464184,0.4263968751361532,B,545,Correct
2,relearn,79,346,A,50.60613835300949,76.46963875048908,2.5303069176504747,1.2011822766060092,B,502,Incorrect
2,relearn,79,347,A,38.50361966494895,48.716598219472814,1.9251809832474476,0.7652385353709069,A,664,Correct
2,relearn,79,348,A,32.666053478246084,51.548689897857145,1.6333026739123042,0.809724927426432,107,1153,Correct
2,relearn,79,349,B,71.66332170880295,55.10045381952042,3.583166085440148,0.865515904644345,107,613,Incorrect
2,relearn,79,350,B,52.145153182178795,41.93702758517539,2.60725765910894,0.6587452888748976,B,559,Correct
2,relearn,79,351,A,47.25056832107052,76.93144970488343,2.362528416053526,1.2084363861143723,B,459,Incorrect
2,relearn,79,352,A,33.82305934868248,58.31705931803087,1.691152967434124,0.9160422256624298,A,653,Incorrect
2,relearn,79,353,B,49.95069644157975,28.657217894289587,2.4975348220789875,0.45014652604511063,B,382,Correct
2,relearn,79,354,B,57.59166582280426,43.67569314493935,2.879583291140213,0.6860561836229178,B,494,Incorrect
2,relearn,79,355,B,68.5765123497148,40.79344433064819,3.42882561748574,0.6407819251189427,B,460,Incorrect
2,relearn,79,356,B,43.46392918792826,30.944416894904727,2.1731964593964133,0.4860737639332628,A,675,Incorrect
2,relearn,79,357,A,33.65684380766184,56.87867657478779,1.6828421903830924,0.8934481623663159,A,933,Incorrect
2,relearn,79,358,A,62.80067939908213,75.54264621115125,3.140033969954106,1.186621111848428,B,398,Correct
2,relearn,79,359,B,74.6323132455683,49.84226561446583,3.731615662278415,0.7829204774633851,B,468,Correct
2,relearn,79,360,A,15.586964091966152,38.96086350758403,0.7793482045983076,0.6119958128647033,A,621,Correct
2,relearn,79,361,A,34.42713070013465,59.46050357421999,1.7213565350067324,0.9340034060375958,A,539,Correct
2,relearn,79,362,A,57.23236427775943,83.52673268469127,2.8616182138879713,1.312034848902923,B,552,Incorrect
2,relearn,79,363,A,69.57045366190005,86.24961820943201,3.4785226830950022,1.3548058347083805,B,560,Correct
2,relearn,79,364,A,35.4797091085555,57.32790851268332,1.7739854554277747,0.9005046811455684,A,751,Correct
2,relearn,79,365,B,46.40726364050068,28.402843943134897,2.320363182025034,0.4461508293640497,100,542,Incorrect
2,relearn,79,366,A,24.521693544841348,40.1958675323904,1.2260846772420675,0.6313952107221309,A,746,Correct
2,relearn,79,367,B,49.593789613727644,28.48025731611653,2.4796894806863823,0.4473668357832932,A,666,Correct
2,relearn,79,368,B,59.103262259071606,38.765440588697835,2.9551631129535805,0.6089261168331236,A,498,Incorrect
2,relearn,79,369,A,25.78308829717991,56.0778874113223,1.2891544148589955,0.8808693956012286,A,618,Incorrect
2,relearn,79,370,B,51.05176973188438,21.262775871629636,2.5525884865942188,0.3339949023661899,B,455,Incorrect
2,relearn,79,371,A,44.15556045667887,70.84915216707452,2.2077780228339434,1.1128958798057333,B,752,Correct
2,relearn,79,372,B,43.18857341802888,34.03560683741695,2.159428670901444,0.534630062004498,B,538,Correct
2,relearn,79,373,B,81.3214067195015,67.68074551619296,4.066070335975075,1.0631266645157607,B,528,Correct
2,relearn,79,374,A,18.007539151051382,42.90548125171193,0.9003769575525692,0.6739577234955642,A,453,Incorrect
2,relearn,79,375,B,36.554957994495396,21.509419221515554,1.8277478997247698,0.33786916704648173,A,897,Correct
2,relearn,79,376,A,37.09467478183238,47.780087633455295,1.8547337390916192,0.7505278614856983,A,744,Incorrect
2,relearn,79,377,A,44.82343707526963,52.9388332286665,2.2411718537634813,0.8315612478039694,B,456,Correct
2,relearn,79,378,A,60.9738429299485,84.11915853224322,3.048692146497425,1.3213406523552524,B,518,Incorrect
2,relearn,79,379,B,69.33613517234068,43.4181845661185,3.4668067586170337,0.6820112483256181,B,502,Correct
2,relearn,79,380,B,49.28229428861299,23.335248664305063,2.4641147144306497,0.36654922886735913,B,528,Correct
2,relearn,79,381,B,77.07907052824322,57.82634402163444,3.853953526412161,0.9083340878116141,B,450,Incorrect
2,relearn,79,382,B,75.44594696804475,43.21573862196956,3.7722973484022373,0.6788312348711812,B,537,Correct
2,relearn,79,383,A,19.63335784211643,42.34622075792659,0.9816678921058214,0.6651728802019689,A,480,Correct
2,relearn,79,384,A,37.487194544177356,57.690374596019,1.874359727208868,0.9061982850684824,A,1050,Incorrect
2,relearn,79,385,A,25.59866193507702,52.87693520181912,1.279933096753851,0.8305889558718925,B,518,Correct
2,relearn,79,386,A,36.00760039825797,67.88160523575323,1.8003800199128985,1.066281761612624,B,513,Correct
2,relearn,79,387,B,40.37990501390943,23.01236908269118,2.0189952506954714,0.36147744825939754,B,484,Correct
2,relearn,79,388,B,37.7535453241596,19.830455023499656,1.8876772662079802,0.31149605909584666,A,826,Incorrect
2,relearn,79,389,B,83.71963267217642,58.26961783364602,4.185981633608821,0.9152970165683356,B,473,Correct
2,relearn,79,390,A,27.63828784866444,59.50859886665336,1.381914392433222,0.9347588851245003,A,538,Correct
2,relearn,79,391,B,37.98472719980382,24.06818812664001,1.899236359990191,0.3780622150193467,A,1027,Incorrect
2,relearn,79,392,B,75.35628396326238,43.903015799014405,3.7678141981631192,0.6896269595231014,107,435,Correct
2,relearn,79,393,B,77.43002090020349,56.416608761650025,3.8715010450101746,0.8861900181302464,B,410,Correct
2,relearn,79,394,A,51.01075488378055,65.06924095001966,2.5505377441890276,1.0221052467162295,B,529,Incorrect
2,relearn,79,395,B,65.92760723775207,48.92273468936935,3.2963803618876035,0.7684765194682265,B,711,Incorrect
2,relearn,79,396,A,33.46624300888319,53.57929334427786,1.6733121504441595,0.8416215717745792,A,608,Correct
2,relearn,79,397,B,83.74706268920721,55.05672816072177,4.187353134460361,0.8648290636020691,A,486,Incorrect
2,relearn,79,398,A,54.532277388322015,62.685129016167444,2.726613869416101,0.9846557040326002,B,734,Correct
2,relearn,79,399,A,34.449235400768885,63.50351114691029,1.7224617700384441,0.9975108204814547,A,511,Correct
2,relearn,79,400,B,56.2651620427063,39.73757593416907,2.813258102135315,0.6241963831312606,A,570,Correct
2,relearn,79,401,A,29.07579822945796,41.03064595929692,1.453789911472898,0.6445078795888546,B,341,Incorrect
2,relearn,79,402,B,79.0287897073378,59.14743201558473,3.95143948536689,0.9290856894943136,B,617,Correct
2,relearn,79,403,B,51.35143073302447,35.782998258236425,2.5675715366512235,0.5620780222574596,A,639,Correct
2,relearn,79,404,A,34.21170978153031,62.19566817842143,1.7105854890765155,0.9769672711721861,A,721,Incorrect
2,relearn,79,405,A,22.06446606817296,43.84555576050222,1.103223303408648,0.6887243793487771,100,683,Correct
2,relearn,79,406,B,51.27545430095267,39.52805381728655,2.5637727150476333,0.6209052174154469,A,575,Incorrect
2,relearn,79,407,B,45.91648379481049,19.709782620413623,2.2958241897405243,0.3096005414207161,B,295,Correct
2,relearn,79,408,B,35.61580958453404,24.176009366896096,1.7807904792267022,0.37975586710079406,B,646,Correct
2,relearn,79,409,B,60.7999608486837,52.1783202680941,3.0399980424341853,0.819615138154499,B,591,Correct
2,relearn,79,410,B,54.54386062901483,32.25921516853031,2.7271930314507413,0.5067265669201363,B,637,Incorrect
2,relearn,79,411,A,21.336107281279887,33.127479313206734,1.0668053640639943,0.5203652282115906,A,332,Correct
2,relearn,79,412,B,67.77798541249929,49.083853504367866,3.3888992706249645,0.7710073678959984,B,462,Incorrect
2,relearn,79,413,A,24.553220789437567,39.52690034331356,1.2276610394718785,0.6208870986886488,B,578,Incorrect
2,relearn,79,414,A,44.40338620332222,53.10584865965077,2.220169310166111,0.8341847200590511,B,484,Correct
2,relearn,79,415,B,65.99186803739192,40.0055891744465,3.299593401869596,0.6284063252648624,B,499,Correct
2,relearn,79,416,B,57.73047735577889,36.293545733141585,2.886523867788944,0.5700976832398139,B,445,Incorrect
2,relearn,79,417,A,23.184669354146894,40.36643528695345,1.1592334677073446,0.6340744827455037,A,765,Incorrect
2,relearn,79,418,A,52.31398490718297,70.87889034848698,2.6156992453591488,1.113363006067016,B,438,Incorrect
2,relearn,79,419,A,24.486133125756837,39.859435119060755,1.2243066562878417,0.6261105427314012,A,548,Incorrect
2,relearn,79,420,A,40.93341954933694,59.39788677195645,2.0466709774668472,0.9330198236076838,A,955,Correct
2,relearn,79,421,A,36.278390511853495,67.19362084180379,1.8139195255926748,1.055474928023544,A,430,Correct
2,relearn,79,422,B,58.21386116426591,40.62956086262637,2.9106930582132953,0.6382076496230319,B,669,Correct
2,relearn,79,423,B,53.870039869843275,35.88028906408701,2.693501993492164,0.5636062626620697,B,584,Correct
2,relearn,79,424,B,68.06429594877191,59.071505891144504,3.403214797438596,0.9278930447205288,107,1042,Correct
2,relearn,79,425,A,64.37933084455034,82.3036860999226,3.218966542227517,1.292823278074386,A,780,Correct
2,relearn,79,426,A,34.78446786687366,64.54286314096399,1.739223393343683,1.0138369234265197,A,656,Incorrect
2,relearn,79,427,B,43.09429232112802,33.86304274166243,2.1547146160564012,0.5319194315270194,100,787,Correct
2,relearn,79,428,B,61.802176569403606,28.62173862648574,3.0901088284701803,0.449589219009674,B,429,Correct
2,relearn,79,429,B,51.93266625114322,23.9145834582843,2.5966333125571612,0.37564939853102974,B,440,Correct
2,relearn,79,430,A,28.492179277231354,54.3743904707693,1.4246089638615678,0.8541109282319584,A,523,Correct
2,relearn,79,431,B,43.18149057228718,17.312628045052442,2.159074528614359,0.2719461254033469,A,881,Correct
2,relearn,79,432,B,50.6764707948699,41.52966753943924,2.5338235397434947,0.6523464922396441,107,450,Correct
2,relearn,79,433,A,25.08125977294976,50.276930094622955,1.254062988647488,0.7897481711515753,A,737,Incorrect
2,relearn,79,434,A,54.33661167319969,74.16853906931237,2.7168305836599846,1.1650366873381965,B,452,Incorrect
2,relearn,79,435,B,39.84107568167691,25.189400526090203,1.9920537840838455,0.39567417820547934,B,637,Incorrect
2,relearn,79,436,B,40.27439711613199,12.727315163880501,2.0137198558065994,0.19992019909384476,107,1274,Incorrect
2,relearn,79,437,B,63.60588505736745,40.53162718072306,3.1802942528683724,0.6366693109449997,B,964,Correct
2,relearn,79,438,B,70.3676788062195,57.04619910775154,3.518383940310975,0.8960796001606643,B,701,Incorrect
2,relearn,79,439,A,46.262795202108826,67.49015255269893,2.3131397601054413,1.060132837246067,A,768,Incorrect
2,relearn,79,440,A,48.41573228128234,75.34713597077469,2.420786614064117,1.183550044174085,B,533,Correct
2,relearn,79,441,B,42.02521676856809,28.67121247556577,2.101260838428405,0.45036635241374723,B,665,Incorrect
2,relearn,79,442,B,57.93725697011193,49.7505732214007,2.896862848505597,0.7814801767211675,A,625,Incorrect
2,relearn,79,443,B,43.04300789925942,16.34752810626083,2.152150394962971,0.2567863710149085,B,557,Correct
2,relearn,79,444,A,45.3591810519284,52.125780922445195,2.26795905259642,0.818789852042924,B,533,Incorrect
2,relearn,79,445,A,23.80201754890092,38.82307177692927,1.1901008774450461,0.609831385420951,A,596,Incorrect
2,relearn,79,446,A,44.82878253060279,61.028959581616455,2.2414391265301394,0.9586406553891733,B,389,Correct
2,relearn,79,447,A,43.738262081448426,63.03998275539425,2.1869131040724215,0.990229733533869,B,436,Incorrect
2,relearn,79,448,B,64.14214016461139,34.8886593653791,3.2071070082305697,0.5480297797793585,B,847,Correct
2,relearn,79,449,B,64.30933345876727,49.544071740554195,3.2154666729383634,0.7782364590452537,B,479,Incorrect
2,relearn,79,450,A,52.03305280492199,66.09272039994084,2.6016526402460993,1.0381820243210922,B,789,Incorrect
2,relearn,79,451,A,19.990650180667206,50.996991741768014,0.9995325090333602,0.8010588730555888,A,742,Correct
2,relearn,79,452,B,45.37398689555392,24.41680562566946,2.268699344777696,0.3835382858886655,B,700,Correct
2,relearn,79,453,B,68.06160296267427,51.23791649793251,3.4030801481337134,0.8048433102757602,B,504,Correct
2,relearn,79,454,B,42.92981507781619,31.294999275780583,2.1464907538908093,0.4915806990944509,B,500,Incorrect
2,relearn,79,455,B,75.75428241968957,61.58663781621049,3.7877141209844787,0.9674006446135112,B,602,Correct
2,relearn,79,456,B,38.200616009113546,17.464720840530955,1.9100308004556774,0.274335193448043,A,502,Incorrect
2,relearn,79,457,A,43.70328700716257,65.72610524769902,2.1851643503581286,1.032423246976204,B,530,Incorrect
2,relearn,79,458,B,71.64172117573234,58.76195468223112,3.5820860587866172,0.9230306257013682,B,643,Correct
2,relearn,79,459,A,15.923197246601369,36.51513541451092,0.7961598623300685,0.5735784058153199,A,434,Correct
2,relearn,79,460,A,45.312369071271945,66.18522679470195,2.2656184535635973,1.0396351113720497,B,626,Incorrect
2,relearn,79,461,B,63.337728563089236,45.873875619960046,3.166886428154462,0.720585153196792,B,1003,Correct
2,relearn,79,462,B,61.02352016065083,32.57506435655662,3.0511760080325416,0.511687914363865,B,564,Incorrect
2,relearn,79,463,B,65.54597002732751,34.544280068780445,3.2772985013663756,0.5426202824381449,B,477,Incorrect
2,relearn,79,464,A,48.746906002196226,59.963836861424674,2.4373453001098113,0.941909746824543,B,519,Correct
2,relearn,79,465,B,51.06319469904959,20.407357752764423,2.5531597349524793,0.3205580259763171,A,1141,Incorrect
2,relearn,79,466,B,84.85666207703207,67.68609921620056,4.242833103851604,1.0632107602388277,B,409,Correct
2,relearn,79,467,B,77.47090852728492,58.88285781620693,3.8735454263642457,0.92492976768884,B,508,Correct
2,relearn,79,468,B,79.44520461529359,59.41996528765736,3.9722602307646797,0.9333666321213245,B,640,Incorrect
2,relearn,79,469,A,21.242090254028874,43.085650732488,1.0621045127014437,0.6767878190815999,A,397,Incorrect
2,relearn,79,470,B,55.199678765885245,46.90291079551198,2.7599839382942624,0.7367491999357892,B,670,Incorrect
2,relearn,79,471,A,31.21535778995294,44.391607722512795,1.560767889497647,0.6973017435104306,A,639,Incorrect
2,relearn,79,472,B,44.09311681769432,24.82011962273986,2.2046558408847163,0.3898735273400971,B,239,Incorrect
2,relearn,79,473,A,22.51777532295039,40.73693816500017,1.1258887661475194,0.639894328344531,B,461,Incorrect
2,relearn,79,474,B,62.851534619016626,51.719548579286936,3.1425767309508315,0.8124087693183414,B,436,Correct
2,relearn,79,475,A,18.55224127381813,37.80834021420746,0.9276120636909064,0.5938920193068885,A,444,Incorrect
2,relearn,79,476,B,50.31895379406708,26.33355931473057,2.515947689703354,0.41364658243014313,B,404,Correct
2,relearn,79,477,A,31.233752568216385,58.233761027756884,1.5616876284108192,0.9147337791785232,A,561,Incorrect
2,relearn,79,478,B,47.67269364768211,39.1235907954868,2.3836346823841055,0.6145519271257729,B,411,Incorrect
2,relearn,79,479,B,47.333033692505815,39.674110094483154,2.3666516846252907,0.6231994640527047,B,523,Incorrect
2,relearn,79,480,B,58.17665432926457,30.966795819612106,2.9088327164632286,0.4864252912605425,A,342,Correct
2,relearn,79,481,A,60.13616405603559,69.13364312029901,3.0068082028017797,1.0859487267131498,A,695,Correct
2,relearn,79,482,B,67.26096842032128,39.11742812587273,3.363048421016064,0.6144551241378424,A,697,Incorrect
2,relearn,79,483,A,39.538527161695384,59.66705377332932,1.9769263580847691,0.9372478889781927,B,403,Incorrect
2,relearn,79,484,B,47.55771880867929,22.01177135614474,2.3778859404339645,0.34576009592481277,A,715,Incorrect
2,relearn,79,485,B,85.6872591311115,67.59970595230459,4.284362956555575,1.0618536980229516,B,711,Incorrect
2,relearn,79,486,B,36.8753316159636,25.991996537747294,1.8437665807981802,0.40828132687559116,A,958,Incorrect
2,relearn,79,487,B,84.90109248223251,56.39420613557867,4.245054624111626,0.8858381185028119,A,941,Incorrect
2,relearn,79,488,B,61.70198652453167,38.32710802345288,3.0850993262265836,0.6020408049991098,A,1099,Incorrect
2,relearn,79,489,B,62.63625298372696,43.96077772464892,3.1318126491863483,0.6905342817292544,B,490,Incorrect
2,relearn,79,490,A,20.921688148596417,51.48820610014186,1.0460844074298208,0.8087748501536142,B,316,Incorrect
2,relearn,79,491,B,61.49668780429682,36.50726561921591,3.074834390214841,0.5734547873598997,B,550,Correct
2,relearn,79,492,A,40.8949401982762,62.45502895918974,2.0447470099138103,0.9810413007896415,B,692,Correct
2,relearn,79,493,A,27.561250961926444,60.00463838962977,1.378062548096322,0.9425506557308648,A,690,Correct
2,relearn,79,494,A,16.261470512780967,32.49270329923873,0.8130735256390483,0.510394189900806,A,802,Correct
2,relearn,79,495,A,18.71956591409261,37.49798717707577,0.9359782957046305,0.5890170051995275,A,534,Correct
2,relearn,79,496,B,45.39108426753014,17.446974775486666,2.269554213376507,0.27405643891017667,B,462,Correct
2,relearn,79,497,B,75.18080973290536,52.95536804760622,3.759040486645268,0.8318209761325169,A,470,Incorrect
2,relearn,79,498,B,83.57466936372568,63.30060077897416,4.178733468186284,0.9943235118752278,B,244,Correct
2,relearn,79,499,B,78.32165568864576,56.50337142137025,3.9160827844322883,0.8875528828021614,100,331,Correct
2,relearn,79,500,A,24.16783356596663,55.600095342789515,1.2083916782983315,0.8733642553389981,A,234,Correct
2,relearn,79,501,A,25.303563968420626,47.74743798931081,1.2651781984210313,0.7500150020747652,B,213,Incorrect
2,relearn,79,502,A,46.599502845213806,77.7392526077475,2.3299751422606905,1.2211253244403035,A,236,Correct
2,relearn,79,503,A,37.50477960656107,55.935705598327644,1.8752389803280536,0.8786360089053379,B,219,Incorrect
2,relearn,79,504,B,41.224420839242896,25.211840366881017,2.0612210419621446,0.39602666240036,B,484,Correct
2,relearn,79,505,A,55.12670415726464,67.44401470918876,2.756335207863232,1.0594081056949467,B,577,Incorrect
2,relearn,79,506,B,80.31586300175233,59.98802750036525,4.0157931500876165,0.9422897324924497,A,246,Incorrect
2,relearn,79,507,B,65.94840364080626,40.56529032485018,3.297420182040313,0.6371980903764322,B,166,Correct
2,relearn,79,508,A,23.6582567764178,53.056664244939434,1.18291283882089,0.8334121330794099,A,440,Correct
2,relearn,79,509,B,52.6728103555669,39.27184643626865,2.633640517778345,0.6168807212854405,100,235,Incorrect
2,relearn,79,510,A,26.07689684061399,46.95596248796092,1.3038448420306994,0.7375825339720795,A,568,Incorrect
2,relearn,79,511,A,36.064452244528674,58.517364152628474,1.8032226122264337,0.9191886066466817,A,492,Correct
2,relearn,79,512,B,82.70220054610361,66.3517501159184,4.13511002730518,1.0422508535849748,B,331,Correct
2,relearn,79,513,B,88.00116826284196,63.73265417465757,4.400058413142098,1.0011101907444153,B,364,Incorrect
2,relearn,79,514,B,39.58606544836749,13.47115497022013,1.9793032724183746,0.21160440744906595,B,381,Incorrect
2,relearn,79,515,B,62.477560588880586,39.292216710163714,3.1238780294440294,0.6172006967995421,A,357,Incorrect
2,relearn,79,516,B,74.80964385493252,44.876225324245176,3.740482192746626,0.7049140989974444,107,295,Correct
2,relearn,79,517,A,36.52518426487497,47.158019380820015,1.8262592132437487,0.7407564362231462,107,402,Correct
2,relearn,79,518,B,47.0471624277531,24.767111868215245,2.352358121387655,0.3890408834791079,A,770,Incorrect
2,relearn,79,519,A,44.323670634713736,64.8605115682273,2.2161835317356866,1.0188265332540933,B,428,Correct
2,relearn,79,520,B,50.08783813939419,22.404750404611967,2.5043919069697096,0.35193299638320946,B,383,Incorrect
2,relearn,79,521,B,83.86778599338894,64.63229426653048,4.193389299669446,1.0152417042619293,B,511,Incorrect
2,relearn,79,522,B,36.165663984773644,13.54009580909138,1.808283199238682,0.21268732761371711,A,591,Incorrect
2,relearn,79,523,B,59.26081215025294,33.81753910265025,2.9630406075126468,0.531204662036858,B,1298,Correct
2,relearn,79,524,A,30.907417415410748,49.59378432700146,1.5453708707705374,0.7790173425271221,A,917,Correct
2,relearn,79,525,A,16.343587770665533,36.28121691114316,0.8171793885332767,0.5699040225567256,100,547,Correct
2,relearn,79,526,A,60.49542979631096,85.34199207565139,3.024771489815548,1.3405488767379237,B,587,Incorrect
2,relearn,79,527,A,31.7466397766881,48.094065211091866,1.5873319888344049,0.7554598097421732,A,501,Incorrect
2,relearn,79,528,A,61.236743319596755,86.0720274662823,3.061837165979838,1.3520162458382567,B,372,Correct
2,relearn,79,529,A,42.13712051091693,57.0350332940193,2.1068560255458464,0.8959042079687014,B,600,Incorrect
2,relearn,79,530,B,51.074534354328065,21.40794466629077,2.5537267177164034,0.3362752084603794,A,844,Correct
2,relearn,79,531,A,15.298206455458047,35.502275800915314,0.7649103227729023,0.5576684442093711,A,598,Correct
2,relearn,79,532,A,37.636068583897035,46.36348710426289,1.8818034291948518,0.728275952407787,A,697,Correct
2,relearn,79,533,A,25.463245971959573,51.82789773189194,1.2731622985979785,0.8141107138275742,A,512,Incorrect
2,relearn,79,534,B,58.385760394656636,30.421655159363205,2.9192880197328317,0.47786224179348735,B,552,Correct
2,relearn,79,535,A,24.51726608963202,52.47785959075769,1.225863304481601,0.824320290832205,B,1177,Correct
2,relearn,79,536,A,57.52010004704647,67.25213919532003,2.8760050023523234,1.056394132171078,B,514,Incorrect
2,relearn,79,537,B,57.65913454222891,38.77157861988333,2.882956727111446,0.6090225328015227,107,236,Correct
2,relearn,79,538,B,52.65676038123592,29.148186132288565,2.6328380190617957,0.4578586370933282,107,539,Incorrect
2,relearn,79,539,A,52.011083656346244,78.73228456533047,2.6005541828173127,1.2367238339539164,B,469,Incorrect
2,relearn,79,540,B,65.88893006194648,49.02266001190876,3.2944465030973245,0.7700461427642133,A,654,Incorrect
2,relearn,79,541,B,37.524898041274255,25.455331734982646,1.8762449020637126,0.399851415866563,B,582,Incorrect
2,relearn,79,542,A,19.76576987879476,32.3368161449542,0.9882884939397379,0.5079455202073596,A,458,Incorrect
2,relearn,79,543,B,62.07224655922124,47.29536219427153,3.103612327961062,0.7429138120919595,B,584,Incorrect
2,relearn,79,544,B,80.97872767733537,49.783807194741854,4.048936383866769,0.7820022147536585,B,478,Correct
2,relearn,79,545,B,81.90835107709817,56.63524713843006,4.095417553854909,0.8896243817216711,B,1243,Incorrect
2,relearn,79,546,A,29.501806366940446,55.669348303064346,1.4750903183470223,0.8744520782951919,A,692,Incorrect
2,relearn,79,547,B,53.27108639292169,41.73630932391229,2.6635543196460842,0.6555924137997702,B,464,Correct
2,relearn,79,548,A,35.31237372677677,63.37029018241093,1.7656186863388386,0.9954181904645779,A,531,Correct
2,relearn,79,549,B,79.05363255323968,62.88226635818938,3.9526816276619843,0.9877523301598218,B,625,Incorrect
2,relearn,79,550,A,29.12855763766929,52.77604487056927,1.4564278818834646,0.8290041742545285,100,497,Incorrect
2,relearn,79,551,B,45.65807052177864,21.34837657251705,2.282903526088932,0.3353395150314401,107,915,Correct
2,relearn,79,552,A,33.19450001341738,42.98963212468813,1.659725000670869,0.67527956231724,B,451,Incorrect
2,relearn,79,553,A,51.565997662903804,64.62393740316456,2.57829988314519,1.0151104349591422,A,420,Correct
2,relearn,79,554,A,58.55033075809915,79.24959060806896,2.9275165379049577,1.2448496582715405,B,481,Correct
2,relearn,79,555,A,39.946693283676346,50.33586800421978,1.9973346641838174,0.7906739656706119,A,691,Correct
2,relearn,79,556,B,71.51063165875263,40.51277058333937,3.5755315829376313,0.6363731122059382,B,541,Correct
2,relearn,79,557,B,34.35056870376839,18.184747927726292,1.7175284351884192,0.28564535248563566,A,444,Incorrect
2,relearn,79,558,A,32.26861064750178,43.091888707159,1.613430532375089,0.6768858049585984,107,334,Incorrect
2,relearn,79,559,B,65.19506484030725,56.612736530609354,3.2597532420153628,0.8892707859208844,B,466,Correct
2,relearn,79,560,B,76.70254166325755,57.08790294987065,3.8351270831628774,0.8967346825808036,107,471,Incorrect
2,relearn,79,561,A,44.16454292241621,63.275570361559616,2.2082271461208105,0.9939303349978986,B,369,Incorrect
2,relearn,79,562,A,44.61587341557768,55.905956787157194,2.2307936707788842,0.8781687156722073,A,313,Correct
2,relearn,79,563,B,33.598658510138435,14.999299362625784,1.6799329255069215,0.23560844343309617,A,628,Correct
2,relearn,79,564,A,45.117097295114085,64.5920699212283,2.255854864755704,1.0146098617234454,A,554,Correct
2,relearn,79,565,B,62.68644846322007,36.82676035472131,3.134322423161003,0.5784733989295214,B,458,Incorrect
2,relearn,79,566,B,33.99493375966033,18.11320982515198,1.6997466879830165,0.2845216345981396,A,573,Incorrect
2,relearn,79,567,A,57.7999376583576,70.64745371511512,2.88999688291788,1.109727607931153,B,643,Incorrect
2,relearn,79,568,B,64.29310936682708,33.31746887598113,3.214655468341354,0.5233495772849446,100,790,Correct
2,relearn,79,569,A,14.23127646162023,36.48114813433216,0.7115638230810114,0.5730445348666945,A,488,Correct
2,relearn,79,570,B,47.76580731390279,24.883136796043907,2.3882903656951395,0.390863398783607,B,610,Incorrect
2,relearn,79,571,A,52.31167686484757,67.65311096229112,2.6155838432423786,1.0626925819581445,A,242,Incorrect
2,relearn,79,572,A,26.394207972408513,58.01440298731784,1.3197103986204257,0.9112881111367771,B,225,Incorrect
2,relearn,79,573,B,41.3620428200243,21.95401496966643,2.068102141001215,0.344852860727522,A,245,Incorrect
2,relearn,79,574,B,76.2835249091383,45.128273302313644,3.8141762454569146,0.7088732593787046,107,309,Correct
2,relearn,79,575,A,65.55072576513825,87.53249827711554,3.277536288256913,1.374957267688737,B,255,Incorrect
2,relearn,79,576,A,22.403240170859185,35.87666017978434,1.1201620085429593,0.5635492602807397,100,229,Incorrect
2,relearn,79,577,B,67.29153481548504,34.57270330149473,3.3645767407742517,0.5430667535335771,B,312,Correct
2,relearn,79,578,A,35.9115910295009,64.25301904926079,1.7955795514750448,1.0092840630806137,A,479,Correct
2,relearn,79,579,A,46.772525868414064,62.76417728634557,2.338626293420703,0.985897391356953,B,407,Incorrect
2,relearn,79,580,B,44.20608565522322,26.005392328679758,2.210304282761161,0.4084917474675034,A,292,Incorrect
2,relearn,79,581,B,62.72792057040172,51.685817138320935,3.136396028520086,0.8118789170826723,B,285,Incorrect
2,relearn,79,582,B,72.80728707452198,60.54348598524253,3.640364353726099,0.9510148539697727,A,564,Incorrect
2,relearn,79,583,B,53.04267407379869,23.719302666885902,2.652133703689935,0.3725819350328076,A,2411,Correct
2,relearn,79,584,A,64.8464175395227,83.84958508398094,3.242320876976135,1.317106202531934,A,938,Correct
2,relearn,79,585,B,60.636965872175445,39.91460019160364,3.0318482936087725,0.6269770736645788,A,534,Incorrect
2,relearn,79,586,B,57.745467709072095,49.67827449199606,2.8872733854536046,0.7803445109353604,B,406,Incorrect
2,relearn,79,587,A,57.23039415057134,82.19285468889954,2.8615197075285668,1.2910823423411009,100,774,Correct
2,relearn,79,588,B,72.58472331755395,56.60983314963252,3.6292361658776975,0.8892251797191474,B,456,Correct
2,relearn,79,589,A,19.20531689114588,40.697852879212576,0.960265844557294,0.6392803781110622,100,862,Incorrect
2,relearn,79,590,B,54.711223675461426,36.975382370044954,2.7355611837730716,0.580807948087034,B,749,Incorrect
2,relearn,79,591,B,84.00469554265445,58.44933222914856,4.200234777132722,0.9181199636916113,A,636,Incorrect
2,relearn,79,592,B,64.12311224502068,35.92910390124111,3.206155612251034,0.5643730443310173,B,466,Correct
2,relearn,79,593,A,45.55208310376777,64.29686597433437,2.2776041551883885,1.0099728089690818,B,476,Incorrect
2,relearn,79,594,A,34.75999902833144,53.969483994629336,1.737999951416572,0.8477506721777972,B,358,Incorrect
2,relearn,79,595,A,50.00272061703297,69.92683918624675,2.5001360308516483,1.0984082213813384,A,284,Incorrect
2,relearn,79,596,B,41.58856086511698,31.161270516591287,2.079428043255849,0.48948009265723696,B,489,Incorrect
2,relearn,79,597,B,46.96965771830091,20.848334119111517,2.3484828859150455,0.32748486654093084,A,612,Correct
2,relearn,79,598,A,47.40337781096776,63.47291797784601,2.370168890548388,0.9970302641055427,A,693,Correct
2,relearn,79,599,A,58.877427358969385,68.00904861877561,2.943871367948469,1.0682836375918825,A,901,Incorrect
2,relearn,79,600,A,56.73705092749101,80.46655473845675,2.8368525463745504,1.2639656861300834,B,899,Incorrect
2,relearn,79,601,A,43.55318557530938,57.32293860980749,2.177659278765469,0.9004266140937495,B,837,Incorrect
2,relearn,79,602,B,50.48390326312955,23.59597260652034,2.5241951631564774,0.3706446709747515,B,619,Correct
2,relearn,79,603,A,25.061434355577735,44.9698825547379,1.2530717177788866,0.7063852633338019,A,486,Correct
2,relearn,79,604,A,11.05042398111065,36.16850359104187,0.5525211990555325,0.5681335258647658,A,432,Correct
2,relearn,79,605,B,37.57039434931872,23.45437840979621,1.8785197174659358,0.36842051453365415,B,1083,Correct
2,relearn,79,606,B,61.33556439815929,41.67942661634773,3.066778219907965,0.6546989023187646,B,505,Correct
2,relearn,79,607,B,41.42095278916053,16.1348131234623,2.0710476394580266,0.25344505187856675,A,813,Incorrect
2,relearn,79,608,A,54.389846865898825,84.25657012705821,2.719492343294941,1.3234991086391963,B,566,Incorrect
2,relearn,79,609,A,47.156688147475954,63.28924267364113,2.357834407373798,0.994145099173863,A,917,Correct
2,relearn,79,610,B,54.5445363334152,31.90888244874772,2.7272268166707603,0.5012235534262306,B,1724,Correct
2,relearn,79,611,A,45.76370279872507,54.56357362343153,2.2881851399362536,0.8570826102448916,A,1208,Correct
2,relearn,79,612,A,59.390153838812,80.18980021226223,2.9695076919406,1.259618436198381,B,953,Incorrect
2,relearn,79,613,B,74.39594314409734,53.02872928831482,3.7197971572048676,0.8329733318068588,B,462,Correct
2,relearn,79,614,B,48.74401211552793,25.32385466369331,2.4372006057763964,0.39778617886017265,A,526,Incorrect
2,relearn,79,615,A,28.03775706342799,54.47773628327849,1.4018878531713994,0.8557342804587492,A,609,Correct
2,relearn,79,616,A,43.14647560559748,56.00829001157058,2.157323780279874,0.8797761622023835,B,1462,Incorrect
2,relearn,79,617,A,34.18990318646269,58.83252251950537,1.7094951593231347,0.9241391026971706,A,655,Correct
2,relearn,79,618,A,35.40076114289121,58.99480313928791,1.7700380571445606,0.9266882007118148,A,644,Correct
2,relearn,79,619,A,49.64351035766963,76.25070900732717,2.4821755178834817,1.1977433362421608,B,825,Incorrect
2,relearn,79,620,B,49.58909138766187,19.969887338478834,2.4794545693830936,0.3136862567779046,B,834,Correct
2,relearn,79,621,A,26.585870984431622,52.51024911947426,1.329293549221581,0.8248290643595512,A,576,Correct
2,relearn,79,622,A,69.01404229347821,88.04570976518366,3.4507021146739105,1.3830187748920004,B,609,Incorrect
2,relearn,79,623,A,55.11560185597443,70.63666641235459,2.7557800927987217,1.1095581613756302,B,826,Incorrect
2,relearn,79,624,A,19.567839024222142,38.605111757243336,0.978391951211107,0.6064076774378431,A,577,Correct
2,relearn,79,625,B,38.12831251565591,14.78815657965379,1.9064156257827956,0.23229182035387952,A,813,Incorrect
2,relearn,79,626,B,82.2993892769748,59.377625153105484,4.11496946384874,0.9327015548430234,B,485,Correct
2,relearn,79,627,A,56.22303507158273,77.41102299948862,2.8111517535791366,1.2159695058103197,A,914,Correct
2,relearn,79,628,A,62.845195623453435,83.33471176115488,3.1422597811726716,1.3090185912893353,B,620,Incorrect
2,relearn,79,629,B,37.70624956189,12.754614907063768,1.8853124780944999,0.20034902245699196,A,598,Incorrect
2,relearn,79,630,B,89.84532256502388,67.31100986315668,4.4922661282511935,1.0573188704590157,B,528,Correct
2,relearn,79,631,A,51.22743963859364,61.00631511463411,2.561371981929682,0.9582849569335925,B,909,Incorrect
2,relearn,79,632,B,83.34295798723613,56.20420584900526,4.167147899361806,0.882853600980417,B,614,Correct
2,relearn,79,633,A,60.512154834345,80.00177990203835,3.0256077417172498,1.2566650200717562,A,687,Correct
2,relearn,79,634,A,60.87910132501641,82.80565811135745,3.0439550662508204,1.3007082359915432,B,890,Incorrect
2,relearn,79,635,A,21.388641435921812,35.891521528709546,1.0694320717960906,0.5637827018037691,B,521,Incorrect
2,relearn,79,636,A,68.88190915321474,83.73647149256104,3.4440954576607368,1.3153294183928044,B,668,Incorrect
2,relearn,79,637,B,34.89680715239289,20.8860773592002,1.7448403576196443,0.3280777359698573,A,535,Incorrect
2,relearn,79,638,A,41.36609010643342,54.58150262378767,2.068304505321671,0.8573642383239168,B,920,Incorrect
2,relearn,79,639,A,63.415854893852696,83.59998895337486,3.170792744692635,1.3131855556805516,A,1512,Correct
2,relearn,79,640,A,35.882424273986324,62.416295060757065,1.794121213699316,0.9804328701358365,A,680,Correct
2,relearn,79,641,A,63.5435716763287,83.48218327211401,3.1771785838164353,1.3113350683665506,A,2191,Correct
2,relearn,79,642,A,38.26652319684393,45.825144786772235,1.9133261598421965,0.7198196910590613,A,1997,Correct
2,relearn,79,643,A,23.53571053847359,53.15912179600438,1.1767855269236795,0.835021532528062,A,1028,Correct
2,relearn,79,644,B,81.64876435297128,64.39079367244611,4.082438217648564,1.011448221800864,B,592,Correct
2,relearn,79,645,A,37.03702250711723,46.14831575492817,1.8518511253558614,0.7248960487561223,A,887,Correct
2,relearn,79,646,B,52.39305138550311,43.31001624402263,2.6196525692751553,0.6803121442953804,B,4412,Correct
2,relearn,79,647,B,74.99130195920198,51.1184400252978,3.7495650979600987,0.8029665782322298,B,745,Correct
2,relearn,79,648,B,55.13876394698639,33.86525374338966,2.7569381973493194,0.531954161860936,B,1091,Correct
2,relearn,79,649,A,48.14927617388334,56.9428154302357,2.4074638086941667,0.8944556531517398,A,656,Correct
2,relearn,79,650,A,51.209843913398174,74.02792559125959,2.5604921956699087,1.162827935989965,A,1016,Correct
2,relearn,79,651,A,28.359045150406658,57.29384276330457,1.4179522575203327,0.8999695776056318,B,769,Incorrect
2,relearn,79,652,B,37.07076495025383,11.647835383693959,1.8535382475126914,0.18296377035818093,A,696,Incorrect
2,relearn,79,653,B,79.20809095289381,61.51452917806421,3.960404547644691,0.9662679647742075,B,1068,Correct
2,relearn,79,654,B,41.01041227411707,14.022864391543283,2.050520613705854,0.22027063877379144,A,1429,Incorrect
2,relearn,79,655,B,46.94652012880282,24.38983963073199,2.347326006440141,0.3831147050307041,B,621,Correct
2,relearn,79,656,B,46.1732801952375,21.395844072534537,2.308664009761875,0.3360851327781361,B,484,Correct
2,relearn,79,657,A,49.02989229545706,58.354432600197626,2.451494614772853,0.9166292838059078,B,724,Incorrect
2,relearn,79,658,A,35.41874444696924,52.13339435243324,1.770937222348462,0.8189094435215193,A,853,Correct
2,relearn,79,659,A,62.514022665157285,78.50044167224937,3.1257011332578646,1.2330820543054632,B,848,Incorrect
2,relearn,79,660,A,33.83994767725147,60.451870280428366,1.6919973838625737,0.9495757578437845,B,506,Incorrect
2,relearn,79,661,B,58.276305133036544,51.369713206873094,2.9138152566518274,0.8069135681386355,B,625,Correct
2,relearn,79,662,A,33.31896014358289,41.7413637080742,1.6659480071791446,0.6556718078805275,A,508,Correct
2,relearn,79,663,A,24.197748208069438,41.13156947837149,1.209887410403472,0.6460931825193502,A,554,Correct
2,relearn,79,664,B,81.69727146966318,53.16684579108082,4.084863573483159,0.8351428607590046,B,764,Correct
2,relearn,79,665,A,15.208261028157068,39.67688402259365,0.7604130514078534,0.6232430368135721,A,577,Correct
2,relearn,79,666,B,78.11347814368773,55.717603045089,3.905673907184387,0.8752100620104195,B,512,Correct
2,relearn,79,667,A,53.35449679944026,73.31790111228058,2.6677248399720135,1.151674897554818,B,1131,Incorrect
2,relearn,79,668,B,39.56903280732247,18.145891348113622,1.9784516403661234,0.28503499476036176,A,833,Incorrect
2,relearn,79,669,A,38.872758858962754,61.51385761157456,1.9436379429481376,0.9662574158324562,B,893,Incorrect
2,relearn,79,670,B,48.55663881904926,26.563401715436434,2.427831940952463,0.41725693841784806,B,502,Correct
2,relearn,79,671,A,66.31729076911353,88.60601400436853,3.3158645384556764,1.3918200132999927,B,779,Incorrect
2,relearn,79,672,A,52.94777097529082,76.27582033080587,2.647388548764541,1.1981377839889735,A,1566,Correct
2,relearn,79,673,B,33.50541210973785,17.09557561855883,1.6752706054868924,0.268536673860766,A,2319,Incorrect
2,relearn,79,674,B,80.49124725505027,54.85037065280301,4.024562362752514,0.8615876074476158,100,727,Correct
2,relearn,79,675,A,11.211782564109711,30.613754740858667,0.5605891282054856,0.4808797349634064,A,668,Correct
2,relearn,79,676,A,27.551004965253238,52.932903831384046,1.3775502482626618,0.8314681090492557,A,642,Correct
2,relearn,79,677,B,74.4677440094353,55.18802775527472,3.7233872004717647,0.8668915128104032,B,564,Correct
2,relearn,79,678,A,52.70938560621727,69.21919464603134,2.6354692803108635,1.08729256693687,B,664,Incorrect
2,relearn,79,679,B,45.23958939536899,29.718770297281136,2.2619794697684497,0.46682135219830484,A,764,Incorrect
2,relearn,79,680,A,39.36329800712898,52.77009023613855,1.968164900356449,0.8289106390756167,A,827,Correct
2,relearn,79,681,B,60.36772204589388,32.601507932640494,3.018386102294694,0.5121032890856637,B,533,Correct
2,relearn,79,682,B,42.30919058545652,20.576317640203325,2.115459529272826,0.32321204168196416,B,717,Correct
2,relearn,79,683,A,53.020698969271685,78.05648404110924,2.6510349484635842,1.2261083841429885,B,1691,Incorrect
2,relearn,79,684,A,53.47678971775852,67.82730248555279,2.673839485887926,1.0654287760071268,B,606,Incorrect
2,relearn,79,685,A,23.19708560710985,43.07888737105445,1.1598542803554925,0.6766815804486339,A,684,Correct
2,relearn,79,686,A,36.75155358327431,45.93401109777075,1.8375776791637153,0.7215297590733432,A,460,Correct
2,relearn,79,687,B,62.534824542401175,51.9689840705803,3.1267412271200588,0.8163268928533002,B,893,Correct
2,relearn,79,688,A,62.56714415726037,83.60811988488621,3.1283572078630186,1.313313276054066,B,581,Incorrect
2,relearn,79,689,B,65.02473804025435,46.19516782943068,3.2512369020127174,0.7256319994214349,A,641,Incorrect
2,relearn,79,690,B,39.01301423715239,18.505941985632486,1.9506507118576195,0.29069065694910967,100,689,Incorrect
2,relearn,79,691,A,28.32875169964958,57.9636122369239,1.416437584982479,0.9104902918952378,B,481,Incorrect
2,relearn,79,692,A,46.173482864399034,70.61963390055271,2.308674143219952,1.1092906153058857,A,1030,Correct
2,relearn,79,693,B,66.18086365974712,52.16131141463573,3.309043182987356,0.8193479637091452,B,673,Correct
2,relearn,79,694,B,60.923858997365585,33.68762504602869,3.046192949868279,0.5291639768074563,B,575,Correct
2,relearn,79,695,B,81.56858416685162,65.9050272489816,4.078429208342581,1.0352337472001787,B,547,Correct
2,relearn,79,696,B,41.13873865013787,32.82812782607373,2.0569369325068934,0.5156630260474995,A,655,Incorrect
2,relearn,79,697,B,48.72090779760899,37.048911440337406,2.4360453898804493,0.5819629400223143,B,458,Correct
2,relearn,79,698,A,33.7474164829638,55.41318957959355,1.68737082414819,0.870428346476148,A,749,Correct
2,relearn,79,699,B,43.001714001421234,24.029251066905985,2.150085700071062,0.3774505931152827,100,1755,Incorrect
2,relearn,79,700,A,50.55884356276724,74.30033061191496,2.5279421781383618,1.1671068640484243,B,370,Incorrect
2,relearn,79,701,B,48.217805199796324,24.508159965040623,2.410890259989816,0.3849732764958755,B,506,Correct
2,relearn,79,702,A,43.70438207450014,57.584151583876796,2.185219103725007,0.9045297378955419,A,590,Correct
2,relearn,79,703,A,46.36226034119831,56.30056610645027,2.318113017059915,0.8843672243648535,A,542,Correct
2,relearn,79,704,A,57.32772565356595,74.85204103984199,2.8663862826782975,1.1757731111848466,B,549,Incorrect
2,relearn,79,705,B,51.547338592689755,41.18861080447497,2.5773669296344877,0.6469891855745387,B,490,Correct
2,relearn,79,706,B,75.36556064950695,45.69956746403754,3.7682780324753473,0.7178471270862573,B,482,Correct
2,relearn,79,707,A,30.007117179376273,51.2109832071793,1.5003558589688137,0.8044202431339238,A,451,Correct
2,relearn,79,708,A,26.458683465111665,47.01013564928317,1.3229341732555833,0.7384334840002383,A,444,Correct
2,relearn,79,709,A,39.948749288196254,71.30622486791343,1.9974374644098127,1.1200755610012934,B,357,Incorrect
2,relearn,79,710,A,45.46314543654104,58.65606273484097,2.273157271827052,0.921367278881392,A,605,Correct
2,relearn,79,711,A,43.889729004511004,50.96572106401049,2.19448645022555,0.8005676743980096,A,505,Correct
2,relearn,79,712,B,37.56388616656149,14.945090813878803,1.8781943083280743,0.23475693754056975,B,771,Correct
2,relearn,79,713,B,56.15299080103046,38.555863226440046,2.807649540051523,0.6056340833249846,B,646,Correct
2,relearn,79,714,B,51.59381667281426,40.38005903988722,2.579690833640713,0.6342884841561591,B,437,Correct
2,relearn,79,715,B,52.1879974152245,43.973411674862646,2.609399870761225,0.6907327353551406,B,440,Correct
2,relearn,79,716,B,74.00621028215073,43.955469916940196,3.7003105141075365,0.6904509068807324,B,384,Correct
2,relearn,79,717,B,56.84856290187363,49.27888609993431,2.8424281450936815,0.774070932743209,B,502,Correct
2,relearn,79,718,A,44.880614889222535,52.47512475965841,2.2440307444611265,0.8242773322057537,A,584,Correct
2,relearn,79,719,A,41.807837399761645,49.733817210327835,2.0903918699880824,0.7812169739147177,A,416,Correct
2,relearn,79,720,B,43.710790439103384,18.16749880585739,2.185539521955169,0.28537440391291463,A,465,Incorrect
2,relearn,79,721,A,41.49476550146692,70.60851777580788,2.0747382750733463,1.1091160036267118,B,395,Incorrect
2,relearn,79,722,A,64.07133254655076,74.4753845142805,3.2035666273275383,1.1698566043166934,B,685,Incorrect
2,relearn,79,723,A,49.581009034411096,73.67605837679245,2.4790504517205547,1.1573008187099194,A,774,Correct
2,relearn,79,724,B,62.36051346716431,30.533951260023116,3.1180256733582157,0.4796261848177871,B,796,Correct
2,relearn,79,725,B,69.20534081648573,52.39437727810742,3.460267040824286,0.8230089537315712,B,459,Correct
2,relearn,79,726,A,30.026047363620386,61.44334966788583,1.5013023681810194,0.965149879642895,A,548,Correct
2,relearn,79,727,A,57.73228089894488,70.6832674008585,2.8866140449472435,1.1102901679912998,A,757,Correct
2,relearn,79,728,A,39.541408701008635,64.5694814731235,1.9770704350504318,1.0142550432103354,A,554,Correct
2,relearn,79,729,A,42.040811867847864,70.74374925930088,2.1020405933923936,1.1112402148020901,A,603,Correct
2,relearn,79,730,B,55.02447361737377,31.532924539811898,2.7512236808686885,0.49531802040237183,B,472,Correct
2,relearn,79,731,A,31.469554780539116,42.896995203511274,1.5734777390269559,0.673824424962138,A,672,Correct
2,relearn,79,732,A,20.4465449652509,32.920000144587696,1.022327248262545,0.5171061530520581,A,562,Correct
2,relearn,79,733,A,23.30470370053608,49.458328707304354,1.1652351850268041,0.7768896106284826,A,612,Correct
2,relearn,79,734,B,62.63681727056248,40.111018527502544,3.131840863528124,0.6300624056700302,B,708,Correct
2,relearn,79,735,B,41.95581905768276,30.91135716975002,2.097790952884138,0.4855544629848842,A,813,Incorrect
2,relearn,79,736,A,39.09483805322705,71.07715270663671,1.9547419026613526,1.116477303906249,A,959,Correct
2,relearn,79,737,A,28.92511664908279,46.70856289240775,1.4462558324541392,0.7336963902126251,A,607,Correct
2,relearn,79,738,A,31.254913470044055,62.68072723293903,1.5627456735022027,0.9845865609833347,A,780,Correct
2,relearn,79,739,A,42.373559003032284,70.09219607685633,2.118677950151614,1.1010056413451357,A,778,Correct
2,relearn,79,740,A,53.181341823583274,65.86499926146811,2.6590670911791636,1.034604989042627,B,558,Incorrect
2,relearn,79,741,B,68.82402816827395,49.699744259463266,3.441201408413698,0.7806817572541064,B,680,Correct
2,relearn,79,742,A,22.24970243419954,33.552341281021185,1.1124851217099772,0.5270389443959685,A,597,Correct
2,relearn,79,743,A,26.060910635243832,42.48232841125777,1.3030455317621916,0.6673108542209818,A,639,Correct
2,relearn,79,744,B,47.15666124836377,23.528897721847603,2.3578330624181887,0.3695910611501102,B,581,Correct
2,relearn,79,745,B,55.254209501421165,32.855843453009044,2.7627104750710583,0.5160983820973476,B,625,Correct
2,relearn,79,746,A,29.649133403827772,54.855848349712076,1.4824566701913886,0.8616736509094562,A,642,Correct
2,relearn,79,747,B,36.85310271387789,22.744236478014347,1.8426551356938945,0.35726563115419435,A,652,Incorrect
2,relearn,79,748,A,38.04101159894108,46.12954950925362,1.9020505799470542,0.7246012692583891,B,1485,Incorrect
2,relearn,79,749,A,19.876272628274318,35.16808138188881,0.9938136314137159,0.5524189305509494,119,696,Correct
2,relearn,79,750,A,41.46113880508253,56.096884575797795,2.0730569402541263,0.8811678023630046,A,780,Correct
2,relearn,79,751,A,50.457339261792086,75.38549429264114,2.522866963089604,1.1841525752849835,100,656,Correct
2,relearn,79,752,B,49.71885752549638,19.229489150300683,2.485942876274819,0.30205610923434634,B,716,Correct
2,relearn,79,753,A,55.89436739292988,64.12555623460085,2.7947183696464943,1.007281881869906,B,613,Incorrect
2,relearn,79,754,B,57.29764483780197,49.20949253404841,2.8648822418900983,0.7729809011592413,A,646,Incorrect
2,relearn,79,755,B,50.60046594193136,23.548391966265697,2.530023297096568,0.36989727602536604,B,669,Correct
2,relearn,79,756,A,26.284526759595195,58.456542900759175,1.3142263379797599,0.9182332286564081,A,725,Correct
2,relearn,79,757,B,67.72999757658798,56.2690956476144,3.3864998788293987,0.8838728875534341,B,687,Correct
2,relearn,79,758,A,16.384794658354142,39.747587211282365,0.819239732917707,0.6243536399044214,A,525,Correct
2,relearn,79,759,B,73.05335962529198,49.91205581906123,3.652667981264599,0.7840167394336323,B,439,Correct
2,relearn,79,760,A,19.970964238674572,45.284866536105824,0.9985482119337286,0.7113330201431215,A,641,Correct
2,relearn,79,761,A,33.6992111017393,54.33262543281534,1.684960555086965,0.853454884549893,A,626,Correct
2,relearn,79,762,B,72.02821980975443,60.479470736420815,3.6014109904877216,0.9500093047926926,107,753,Correct
2,relearn,79,763,B,81.74762909273731,60.31644059326314,4.087381454636866,0.9474484332924034,B,610,Correct
2,relearn,79,764,A,32.294044883074015,56.33165612595794,1.6147022441537007,0.8848555852492797,100,495,Correct
2,relearn,79,765,B,62.98907241792793,52.33111988256345,3.1494536208963964,0.8220153088859403,A,892,Incorrect
2,relearn,79,766,B,37.92692583726435,26.64846599712422,1.8963462918632175,0.4185931250300143,A,652,Incorrect
2,relearn,79,767,B,65.35733101752126,46.80809669079152,3.2678665508760627,0.7352598634615567,B,504,Correct
2,relearn,79,768,B,34.960162570121284,16.76757431765135,1.748008128506064,0.2633844414742718,B,1120,Correct
2,relearn,79,769,B,39.088910419523,17.33962960775511,1.9544455209761502,0.2723702649584576,B,648,Correct
2,relearn,79,770,A,64.06358591502209,78.84313921070544,3.2031792957511045,1.238465134651548,A,1287,Correct
2,relearn,79,771,A,35.24189482022094,59.589742204024006,1.7620947410110472,0.9360334816873573,B,686,Incorrect
2,relearn,79,772,B,36.08094379899937,24.47293224168358,1.8040471899499686,0.3844199207113696,A,558,Incorrect
2,relearn,79,773,B,42.51922185688547,26.18868880563025,2.125961092844274,0.4113709617945862,B,431,Correct
2,relearn,79,774,B,75.66890746674534,60.010808359738164,3.783445373337267,0.9426475733946917,B,549,Correct
2,relearn,79,775,B,60.94918097928902,45.994764975449975,3.047459048964451,0.7224840787523138,B,635,Correct
2,relearn,79,776,A,51.31557614571405,75.02364325743336,2.565778807285702,1.1784686325154705,A,422,Correct
2,relearn,79,777,B,48.328241660070006,20.560424133298987,2.4164120830035003,0.32296238705931196,B,538,Correct
2,relearn,79,778,A,42.516358284060054,65.03656299528829,2.1258179142030027,1.0215919426036375,A,421,Correct
2,relearn,79,779,A,30.58274589471818,62.27098657735725,1.529137294735909,0.9781503698160706,A,505,Correct
2,relearn,79,780,B,70.74757369819999,40.106368195960314,3.5373786849099993,0.6299893584329812,B,402,Correct
2,relearn,79,781,A,32.613703160907825,54.51539811485191,1.6306851580453912,0.856325871125708,A,345,Correct
2,relearn,79,782,B,82.58054892369208,54.38789719519638,4.129027446184604,0.8543230913631294,B,559,Correct
2,relearn,79,783,B,62.65669544090658,39.05899303417342,3.1328347720453293,0.6135372278638707,A,574,Incorrect
2,relearn,79,784,B,87.9682653176541,66.81810448551425,4.398413265882705,1.049576330892434,A,539,Incorrect
2,relearn,79,785,B,68.95483437837777,39.72492871976098,3.4477417189188886,0.6239977211518963,B,403,Correct
2,relearn,79,786,B,55.34458484523554,29.83046120672563,2.767229242261777,0.46857578890122276,A,1325,Incorrect
2,relearn,79,787,B,77.82408586098826,53.32761755151568,3.891204293049413,0.8376682576664387,B,461,Correct
2,relearn,79,788,B,81.2774748095153,54.552727104102814,4.063873740475765,0.856912233517691,B,425,Correct
2,relearn,79,789,A,43.92425738245597,59.28374475203115,2.1962128691227987,0.9312268849513674,A,608,Correct
2,relearn,79,790,B,56.21384819097903,23.853642178953578,2.810692409548951,0.37469213515380095,B,392,Correct
2,relearn,79,791,B,37.85488418875812,15.06013592975782,1.8927442094379061,0.2365640619949543,A,580,Incorrect
2,relearn,79,792,A,22.71907910237319,50.197362781675224,1.1359539551186595,0.7884983307224628,B,388,Incorrect
2,relearn,79,793,B,61.45465146258932,50.5570700110946,3.072732573129466,0.7941485986693982,B,509,Correct
2,relearn,79,794,A,66.35496120907554,83.7389220209974,3.317748060453777,1.3153679112034702,B,497,Incorrect
2,relearn,79,795,A,32.562113480844545,53.4228968751802,1.6281056740422273,0.8391649017827563,A,466,Correct
2,relearn,79,796,A,28.807436360531987,61.49053367826603,1.4403718180265994,0.9658910443447817,A,313,Correct
2,relearn,79,797,B,80.2752160480616,64.29172401535605,4.0137608024030795,1.0098920392663253,B,477,Correct
2,relearn,79,798,A,25.34612365063798,39.64282765202765,1.267306182531899,0.6227080805956817,A,444,Correct
2,relearn,79,799,A,35.01358036919242,52.71366290178226,1.750679018459621,0.8280242805802399,A,558,Correct
2,relearn,79,800,A,36.04404951260651,49.795257419368426,1.8022024756303257,0.7821820744615025,A,495,Correct
2,relearn,79,801,B,72.25807577990578,59.108306530987704,3.612903788995289,0.9284711078194229,B,494,Correct
2,relearn,79,802,B,56.826923403672424,37.43502267092957,2.841346170183621,0.5880279610497985,B,460,Correct
2,relearn,79,803,B,62.21176917945798,52.57049266336308,3.110588458972899,0.8257753677340879,B,544,Correct
2,relearn,79,804,A,17.3433812580639,36.4860156927368,0.867169062903195,0.5731209942953192,A,954,Correct
2,relearn,79,805,A,43.40752500921766,65.23255575720273,2.170376250460883,1.0246705897085735,A,1273,Correct
2,relearn,79,806,A,28.301732324090985,51.59959470178346,1.4150866162045492,0.8105245382166687,A,572,Correct
2,relearn,79,807,B,80.11501258392371,61.01485790420729,4.005750629196186,0.9584191467584139,B,480,Correct
2,relearn,79,808,B,60.67273359061711,41.30885334631038,3.0336366795308556,0.6488779510049342,B,621,Correct
2,relearn,79,809,B,80.69385205509423,57.17003219869322,4.034692602754712,0.8980247658045327,B,563,Correct
2,relearn,79,810,B,52.20425601803277,33.18628661356501,2.610212800901639,0.5212889711255057,107,892,Correct
2,relearn,79,811,A,47.77135311845284,56.73887767788759,2.388567655922642,0.8912522064289078,B,554,Incorrect
2,relearn,79,812,B,59.1253020614588,29.043015350078473,2.9562651030729397,0.45620661830951065,B,561,Correct
2,relearn,79,813,B,75.67295425477089,47.67840949896769,3.7836477127385444,0.7489307050840136,B,496,Correct
2,relearn,79,814,A,66.67789595405861,82.36546908791972,3.3338947977029307,1.293793762980429,B,528,Incorrect
2,relearn,79,815,B,49.74437999998221,41.67125864998454,2.4872189999991106,0.6545706002031577,107,723,Correct
2,relearn,79,816,A,18.94905491758555,35.3554503531516,0.9474527458792775,0.5553621154690986,100,434,Correct
2,relearn,79,817,A,25.46978068365305,37.47255701711863,1.2734890341826526,0.5886175491810227,A,538,Correct
2,relearn,79,818,A,51.255687878495515,69.41909367991221,2.562784393924776,1.090432573618369,B,638,Incorrect
2,relearn,79,819,A,24.930784382115917,39.86483090372666,1.2465392191057958,0.6261952995187352,A,545,Correct
2,relearn,79,820,B,60.756717440981205,42.26631540696492,3.0378358720490604,0.6639177298841503,B,603,Correct
2,relearn,79,821,A,32.75843136521685,51.477450087276026,1.6379215682608423,0.8086058950986081,A,400,Correct
2,relearn,79,822,A,41.0448276701444,64.42438485364272,2.05224138350722,1.0119758708412276,A,590,Correct
2,relearn,79,823,A,62.04647185382896,74.43943806184943,3.102323592691448,1.169291958762293,B,374,Incorrect
2,relearn,79,824,A,48.48149119605212,70.20369984943314,2.4240745598026057,1.10275713850901,B,337,Incorrect
2,relearn,79,825,A,44.02007402755192,65.16873526980773,2.201003701377596,1.02366809983683,A,798,Correct
2,relearn,79,826,B,86.35423979955394,60.10788063033834,4.317711989977697,0.9441723810556159,B,586,Correct
2,relearn,79,827,B,44.30117897261769,21.376212047606092,2.2150589486308845,0.33577675365168463,A,676,Incorrect
2,relearn,79,828,A,16.9318284792458,45.262058703991144,0.8465914239622901,0.7109747555540427,A,683,Correct
2,relearn,79,829,B,39.411362642374606,17.11928662963566,1.9705681321187303,0.26890912555180674,B,269,Correct
2,relearn,79,830,A,14.049426919485146,33.44764497336108,0.7024713459742573,0.5253943786409537,A,605,Correct
2,relearn,79,831,B,55.965513077760804,36.87180352107166,2.7982756538880404,0.579180935332025,B,539,Correct
2,relearn,79,832,A,17.209686487210273,43.97449047354773,0.8604843243605137,0.6907496810852595,A,475,Correct
2,relearn,79,833,B,83.93913757496475,62.72378081963017,4.196956878748238,0.9852628451416326,107,575,Correct
2,relearn,79,834,A,35.958575943068396,63.195128270462774,1.79792879715342,0.9926667535857525,A,572,Correct
2,relearn,79,835,B,42.359408293580024,19.410676411133238,2.1179704146790015,0.3049021920721244,A,640,Incorrect
2,relearn,79,836,A,35.97196059377462,59.20553813278506,1.7985980296887307,0.9299984182489395,A,908,Correct
2,relearn,79,837,A,57.98780038374534,82.61217594566881,2.8993900191872672,1.2976690252399028,B,321,Incorrect
2,relearn,79,838,A,17.985604855878616,46.05061160389111,0.8992802427939308,0.7233613155405061,A,662,Correct
2,relearn,79,839,B,43.55394032489059,17.655066999825696,2.1776970162445295,0.27732514392644,B,566,Correct
2,relearn,79,840,A,14.487046052789506,40.97599205951384,0.7243523026394754,0.643649378138612,A,452,Correct
2,relearn,79,841,B,66.2738219205205,45.53835867387344,3.3136910960260253,0.715314865331889,B,508,Correct
2,relearn,79,842,B,66.2006607103355,53.43850867991032,3.310033035516775,0.8394101314380032,B,442,Correct
2,relearn,79,843,A,10.735981224737756,34.477375471241785,0.5367990612368878,0.5415693474775506,A,366,Correct
2,relearn,79,844,A,17.521824254904185,32.32590659243503,0.8760912127452093,0.5077741533571188,A,415,Correct
2,relearn,79,845,A,27.786431627364934,54.86363384811864,1.389321581368247,0.8617959452324493,A,693,Correct
2,relearn,79,846,A,61.45917686770745,71.25042000895274,3.0729588433853725,1.1191989803265656,B,354,Incorrect
2,relearn,79,847,A,12.351722714377509,35.32171934173384,0.6175861357188754,0.5548322699807576,A,490,Correct
2,relearn,79,848,A,40.90748641793134,72.86383711778477,2.045374320896567,1.1445424770079795,A,929,Correct
2,relearn,79,849,B,58.577284201899694,30.678992730771533,2.9288642100949844,0.48190449091263254,107,928,Correct
2,relearn,79,850,A,49.7343001925093,68.67965096124927,2.486715009625465,1.0788174345548593,B,539,Incorrect
2,relearn,79,851,B,60.719661895254525,36.93896629744559,3.035983094762726,0.5802359257562801,B,605,Correct
2,relearn,79,852,A,21.69051986187208,45.430782268629784,1.084525993093604,0.7136250591098239,A,438,Correct
2,relearn,79,853,A,48.88745464010699,72.06145357549562,2.4443727320053497,1.131938665798895,B,590,Incorrect
2,relearn,79,854,B,60.26169476875106,33.028141536337195,3.0130847384375534,0.5188048340614042,100,195,Correct
2,relearn,79,855,B,87.24071077476866,67.61735732395871,4.362035538738433,1.0621309651205235,107,420,Correct
2,relearn,79,856,B,43.827220436395386,15.259105511690251,2.191361021819769,0.23968946887938805,B,509,Correct
2,relearn,79,857,B,54.251386958849814,26.83810921711053,2.7125693479424906,0.4215720337635748,B,551,Correct
2,relearn,79,858,B,57.538300962822746,40.2155915067309,2.876915048141137,0.6317050341865695,B,482,Correct
2,relearn,79,859,B,56.730338264453344,28.107521724995166,2.8365169132226673,0.4415119188093016,B,516,Correct
2,relearn,79,860,B,80.00429146389872,50.283544580855036,4.000214573194936,0.7898520712583452,B,432,Correct
2,relearn,79,861,A,46.959392959201665,66.3759115367187,2.3479696479600833,1.0426303802954073,B,438,Incorrect
2,relearn,79,862,A,18.153514939502287,42.05450089470898,0.9076757469751143,0.6605905553060155,A,461,Correct
2,relearn,79,863,B,65.9685246267418,55.18127292529328,3.2984262313370896,0.8667854081891737,B,516,Correct
2,relearn,79,864,A,21.100852728278458,40.0193440919829,1.055042636413923,0.6286223870042779,A,616,Correct
2,relearn,79,865,B,57.72503197375254,50.127227418181285,2.886251598687627,0.787396647008916,100,644,Correct
2,relearn,79,866,A,31.49279744456328,58.047506478760624,1.574639872228164,0.9118080995644016,100,239,Incorrect
2,relearn,79,867,B,55.68439323890965,23.25979138695499,2.7842196619454826,0.3653639487264448,B,441,Correct
2,relearn,79,868,B,76.37395583034338,48.996705819235444,3.818697791517169,0.7696384552590517,B,484,Correct
2,relearn,79,869,A,17.904481829685842,45.3184749756155,0.895224091484292,0.7118609402764327,A,485,Correct
2,relearn,79,870,B,66.18229095361819,45.06178344950046,3.3091145476809096,0.7078288392130239,B,450,Correct
2,relearn,79,871,A,51.36931955140744,61.306173452266265,2.568465977570372,0.9629951206867066,B,534,Incorrect
2,relearn,79,872,A,44.13181309909511,72.02476076196804,2.2065906549547556,1.131362296431806,100,549,Incorrect
2,relearn,79,873,A,35.18386188442024,58.0076143958933,1.759193094221012,0.9111814761920395,A,672,Correct
2,relearn,79,874,A,62.55655489222633,78.97259819039301,3.127827744611317,1.2404986715491864,B,512,Incorrect
2,relearn,79,875,B,64.3243202373106,43.209327918843144,3.21621601186553,0.67873053578195,B,413,Correct
2,relearn,79,876,A,26.967688465625542,46.782848228383656,1.3483844232812772,0.7348632615414817,A,845,Correct
2,relearn,79,877,A,35.220218729619916,46.73198584587738,1.7610109364809958,0.7340643171053529,A,430,Correct
2,relearn,79,878,A,45.51482895199145,73.81730236783984,2.275741447599572,1.1595194741331105,B,716,Incorrect
2,relearn,79,879,B,69.44864770273092,52.923522769827436,3.472432385136546,0.8313207516789102,A,557,Incorrect
2,relearn,79,880,B,67.63408030940452,55.27553697984001,3.381704015470226,0.8682661044954817,B,393,Correct
2,relearn,79,881,B,70.70821866710476,60.39594119524065,3.5354109333552377,0.9486972258280458,107,848,Correct
2,relearn,79,882,A,61.64419108221726,72.89918035608984,3.082209554110863,1.145097647297046,B,456,Incorrect
2,relearn,79,883,B,86.6889401876081,59.59177515796563,4.334447009380405,0.9360654152531979,107,467,Incorrect
2,relearn,79,884,B,55.02550318406408,46.34513431303699,2.7512751592032036,0.7279876674373462,B,767,Correct
2,relearn,79,885,B,79.5018985408181,52.1160476748252,3.9750949270409053,0.8186369625468312,B,463,Correct
2,relearn,79,886,B,61.98705626452085,54.37591041202292,3.0993528132260426,0.8541348034133397,B,379,Correct
2,relearn,79,887,B,48.69385866710395,22.31198872665918,2.4346929333551977,0.3504758993532538,B,522,Correct
2,relearn,79,888,B,77.41790067433806,45.06933818705855,3.870895033716903,0.7079475087530853,B,467,Correct
2,relearn,79,889,A,41.707545998660436,52.55045629281699,2.085377299933022,0.8254606371615268,A,536,Correct
2,relearn,79,890,B,40.05208461683008,12.452150226021722,2.002604230841504,0.19559791835733165,A,629,Incorrect
2,relearn,79,891,B,60.94455134128561,42.162867613286764,3.0472275670642808,0.6622927757409036,B,466,Correct
2,relearn,79,892,A,58.55944435723913,72.32892268256953,2.927972217861957,1.1361400607081227,B,415,Incorrect
2,relearn,79,893,B,47.73786388816284,17.383231880355147,2.386893194408142,0.27305516785485806,B,36,Correct
2,relearn,79,894,B,52.27667398311659,33.92681926262409,2.6138336991558293,0.5329212307756426,A,244,Incorrect
2,relearn,79,895,B,47.4326231212985,19.992067816398887,2.371631156064925,0.31403466691033843,A,166,Incorrect
2,relearn,79,896,B,69.98007148614155,50.090562046180246,3.499003574307078,0.7868207086923178,B,225,Correct
2,relearn,79,897,A,63.834830083686164,80.84961244909374,3.1917415041843085,1.269982742578274,B,250,Incorrect
2,relearn,79,898,B,37.263713494817694,19.411959419151355,1.8631856747408846,0.3049223455149454,A,232,Incorrect
