experiment,condition,subject,trial,cat,x,y,xt,yt,resp,rt,fb
2,new_learn,58,0,B,78.92606293926963,51.30992773442918,3.9463031469634813,0.8059744601335295,A,2264,Incorrect
2,new_learn,58,1,B,70.76191944789498,54.46866070223067,3.538095972394749,0.8555917215650146,B,970,Correct
2,new_learn,58,2,A,11.360051312561133,37.87683431600322,0.5680025656280566,0.5949679221419675,A,365,Correct
2,new_learn,58,3,A,68.99501941270016,86.97834639006197,3.4497509706350082,1.3662526702020348,A,417,Correct
2,new_learn,58,4,A,36.40621107578473,58.26294561351139,1.8203105537892368,0.9151922095795453,B,318,Incorrect
2,new_learn,58,5,B,49.97883322419064,42.32682164979365,2.498941661209532,0.6648681597239856,A,1258,Incorrect
2,new_learn,58,6,B,63.2558188456275,34.04537622405379,3.1627909422813754,0.53478351917094,B,779,Correct
2,new_learn,58,7,A,42.110510368604785,74.35772872854369,2.1055255184302393,1.168008471556078,A,1007,Correct
2,new_learn,58,8,A,30.995758003958368,53.17408119177567,1.5497879001979182,0.8352565141673481,B,1635,Incorrect
2,new_learn,58,9,B,60.42463450258938,39.670201820133855,3.021231725129469,0.6231380730227848,A,802,Incorrect
2,new_learn,58,10,A,34.572759487214924,67.6287770896572,1.728637974360746,1.0623103463806438,A,2629,Correct
2,new_learn,58,11,A,31.66791894072034,51.29346988287182,1.583395947036017,0.805715940805797,B,1040,Incorrect
2,new_learn,58,12,A,28.877980518774365,61.49874108506515,1.4438990259387183,0.9660199659893073,A,1056,Correct
2,new_learn,58,13,B,62.93749586740998,46.577748150488596,3.146874793370499,0.7316415570516527,B,1075,Correct
2,new_learn,58,14,B,46.35049828421486,17.146777068525722,2.317524914210743,0.26934094435611167,A,838,Incorrect
2,new_learn,58,15,A,57.74272491823852,71.68247172982494,2.8871362459119263,1.1259856328878803,B,792,Incorrect
2,new_learn,58,16,B,72.65839519373621,45.48139602772857,3.6329197596868106,0.7144200981786004,A,1242,Incorrect
2,new_learn,58,17,B,50.251669457631785,27.52409228271923,2.5125834728815892,0.43234743056059133,B,834,Correct
2,new_learn,58,18,B,46.2457842237792,33.76005589548587,2.31228921118896,0.5303017179301961,A,1904,Incorrect
2,new_learn,58,19,B,65.417250692289,40.75029192291245,3.27086253461445,0.6401040886833061,B,825,Correct
2,new_learn,58,20,B,45.67541544973505,16.723381200844795,2.2837707724867524,0.2626902576187783,B,1719,Correct
2,new_learn,58,21,A,65.73318530635086,81.79858865452786,3.286659265317543,1.2848892259553906,A,2174,Correct
2,new_learn,58,22,B,36.53769329544142,15.767371197033476,1.826884664772071,0.24767328759511836,B,1331,Correct
2,new_learn,58,23,B,80.50300923317758,64.71375686431973,4.025150461658879,1.0165213157557147,B,1102,Correct
2,new_learn,58,24,B,51.56825482817037,42.174498561700744,2.5784127414085187,0.6624754742513617,A,851,Incorrect
2,new_learn,58,25,B,79.3521165562584,58.17998335548739,3.96760582781292,0.9138890414778781,B,987,Correct
2,new_learn,58,26,A,54.223018332895975,73.06992830074424,2.711150916644799,1.147779749739755,B,653,Incorrect
2,new_learn,58,27,A,65.5653040547001,83.2755915934566,3.2782652027350054,1.308089933866736,B,842,Incorrect
2,new_learn,58,28,A,56.47468570090418,73.54053064373015,2.823734285045209,1.1551719540571883,A,3738,Correct
2,new_learn,58,29,A,60.15672746365063,84.72551453668352,3.0078363731825317,1.3308652702003008,B,1887,Incorrect
2,new_learn,58,30,A,59.81961283735086,81.68793364321044,2.990980641867543,1.2831510611022021,A,952,Correct
2,new_learn,58,31,A,59.54414746355424,84.8187058855482,2.977207373177712,1.3323291164851578,B,1768,Incorrect
2,new_learn,58,32,B,78.81781271136492,55.08299114510546,3.940890635568246,0.8652416015960747,A,1547,Incorrect
2,new_learn,58,33,B,75.14877124596899,42.889878722199796,3.757438562298449,0.6737126395351002,B,572,Correct
2,new_learn,58,34,A,15.957345356822305,31.47721631521436,0.7978672678411152,0.49444295765667107,B,2610,Incorrect
2,new_learn,58,35,B,73.84775409031282,41.8243166411127,3.692387704515641,0.656974829505665,B,1148,Correct
2,new_learn,58,36,A,17.523426835338622,37.8005333322907,0.8761713417669311,0.5937693890925028,A,649,Correct
2,new_learn,58,37,B,76.94021456987603,61.209249272763586,3.8470107284938018,0.9614726392353022,B,1840,Correct
2,new_learn,58,38,B,69.92693915910044,41.83558382993303,3.4963469579550224,0.6571518140937876,B,1156,Correct
2,new_learn,58,39,A,38.28061647574117,62.52561458858864,1.9140308237870585,0.9821500572634845,A,523,Correct
2,new_learn,58,40,A,19.52742922009741,33.732589259394466,0.9763714610048706,0.5298702730193781,A,830,Correct
2,new_learn,58,41,A,23.982235841092628,41.57120271395655,1.1991117920546315,0.6529989252352899,A,1072,Correct
2,new_learn,58,42,A,51.83483745988054,77.19367365262971,2.591741872994027,1.2125553902535473,B,794,Incorrect
2,new_learn,58,43,A,34.9634982083618,64.69072395621522,1.7481749104180897,1.0161595156812548,B,1232,Incorrect
2,new_learn,58,44,A,32.01421522691706,47.50238686609271,1.6007107613458529,0.7461657480324857,B,1056,Incorrect
2,new_learn,58,45,B,32.5271059914401,15.612076399342165,1.626355299572005,0.24523392261727966,A,553,Incorrect
2,new_learn,58,46,B,60.67267647755399,47.371032004253344,3.0336338238776994,0.7441024306876465,B,741,Correct
2,new_learn,58,47,A,66.79545810874527,83.06684020168626,3.3397729054372634,1.304810874672674,A,1500,Correct
2,new_learn,58,48,B,83.2487077538054,67.50503412681897,4.16243538769027,1.0603665964657139,B,611,Correct
2,new_learn,58,49,A,33.89262113583423,66.79524246735762,1.6946310567917118,1.0492172151509984,A,707,Correct
2,new_learn,58,50,A,44.809035184602585,68.52939633068311,2.240451759230129,1.076457240337087,B,1576,Incorrect
2,new_learn,58,51,A,41.878941516907176,61.14712392521263,2.0939470758453584,0.9604967765579635,A,434,Correct
2,new_learn,58,52,A,52.096077622527496,82.13750687055472,2.6048038811263745,1.2902129408435794,A,1196,Correct
2,new_learn,58,53,B,51.76554430260543,23.446065820232132,2.5882772151302715,0.36828994068212006,A,1037,Incorrect
2,new_learn,58,54,A,52.176242900521984,75.21540485031556,2.608812145026099,1.1814808165726673,B,595,Incorrect
2,new_learn,58,55,A,44.55278741438896,74.88694766692434,2.227639370719448,1.176321423200864,A,748,Correct
2,new_learn,58,56,B,72.92283313200215,47.55457235230539,3.6461416566001077,0.7469854757330345,B,473,Correct
2,new_learn,58,57,B,61.55339775818189,45.491479743616594,3.077669887909094,0.714578492817374,A,963,Incorrect
2,new_learn,58,58,A,22.777094472859837,55.056599646612796,1.1388547236429918,0.8648270449071657,B,288,Incorrect
2,new_learn,58,59,B,53.19769481020992,29.84475752515393,2.659884740510496,0.4688003549459614,B,810,Correct
2,new_learn,58,60,B,66.37596167825576,53.53356710940795,3.318798083912788,0.840903305756861,A,1026,Incorrect
2,new_learn,58,61,B,62.380923492561955,37.56215660595275,3.1190461746280977,0.5900249762312524,B,960,Correct
2,new_learn,58,62,B,35.8316275271647,10.78057308994417,1.791581376358235,0.1693408461042821,A,737,Incorrect
2,new_learn,58,63,A,45.922858864035916,70.19347393705982,2.2961429432017955,1.1025965102530688,B,718,Incorrect
2,new_learn,58,64,B,54.35719483035136,29.25618192170562,2.717859741517568,0.4595550309865845,A,557,Incorrect
2,new_learn,58,65,B,78.67224586470827,56.308080483039944,3.9336122932354134,0.8844852599163056,B,339,Correct
2,new_learn,58,66,A,54.05660606084789,84.1016194361251,2.7028303030423944,1.321065148877676,A,589,Correct
2,new_learn,58,67,B,70.64121461267351,57.887134016691284,3.5320607306336753,0.9092889748210258,B,961,Correct
2,new_learn,58,68,B,41.412305850461934,18.77076126775767,2.0706152925230965,0.2948504285053767,A,536,Incorrect
2,new_learn,58,69,A,28.861477129874753,45.92963282822103,1.4430738564937378,0.721460985376079,B,282,Incorrect
2,new_learn,58,70,A,57.74354264563355,78.8141089604064,2.887177132281678,1.2380091285461912,B,854,Incorrect
2,new_learn,58,71,B,80.56542308399113,63.808256227511436,4.028271154199557,1.0022977450136257,A,412,Incorrect
2,new_learn,58,72,A,41.85864386028009,73.39351251919163,2.0929321930140046,1.1528625987572145,A,747,Correct
2,new_learn,58,73,A,34.361653593602135,56.8086909537272,1.7180826796801068,0.8923488308014116,B,1399,Incorrect
2,new_learn,58,74,A,19.22959969941946,39.82711139638749,0.9614799849709729,0.6256028028829662,A,1428,Correct
2,new_learn,58,75,B,63.0700458773881,44.484002708807964,3.153502293869405,0.6987530805612978,B,565,Correct
2,new_learn,58,76,A,45.347194891005415,55.37955852111259,2.2673597445502707,0.8699000710448668,B,845,Incorrect
2,new_learn,58,77,A,59.75885003328864,68.56621231029106,2.987942501664432,1.0770355443924422,B,657,Incorrect
2,new_learn,58,78,A,53.32262857376581,81.11753353730006,2.6661314286882907,1.2741912371905277,A,925,Correct
2,new_learn,58,79,B,42.7218496196937,17.574278235814578,2.136092480984685,0.2760561169888904,B,667,Correct
2,new_learn,58,80,B,61.386591611766484,38.81535919144188,3.0693295805883243,0.6097102364114144,B,543,Correct
2,new_learn,58,81,A,44.85119079574926,55.508537266813704,2.242559539787463,0.8719260644446859,B,1094,Incorrect
2,new_learn,58,82,B,38.84668123999016,23.032818017657046,1.9423340619995082,0.36179865937871,A,553,Incorrect
2,new_learn,58,83,A,20.64620937991237,49.85061131330195,1.0323104689956184,0.783051571394148,A,1151,Correct
2,new_learn,58,84,A,21.166530821572024,47.60175147529216,1.0583265410786011,0.7477265636639246,A,705,Correct
2,new_learn,58,85,B,51.42191234658573,40.75512097760828,2.571095617329286,0.6401799432970872,B,1150,Correct
2,new_learn,58,86,A,21.966339755345757,42.73749555996874,1.0983169877672878,0.671319010420121,A,769,Correct
2,new_learn,58,87,B,37.85623334588308,27.836928663687836,1.8928116672941542,0.43726145294172425,B,1066,Correct
2,new_learn,58,88,B,56.22531784288137,43.43444190752357,2.8112658921440685,0.6822666180472434,B,827,Correct
2,new_learn,58,89,B,71.99826334296061,51.76641691409873,3.599913167148031,0.8131449753999949,B,821,Correct
2,new_learn,58,90,A,45.99858177970232,59.79027788989766,2.299929088985116,0.9391834888749735,A,910,Correct
2,new_learn,58,91,B,65.63863538315346,33.916571955545955,3.2819317691576724,0.5327602664524639,B,685,Correct
2,new_learn,58,92,A,29.874877342615186,62.982368204610005,1.4937438671307592,0.9893247262864507,A,1110,Correct
2,new_learn,58,93,B,61.6917011226183,40.587359286306985,3.0845850561309147,0.6375447488123575,B,465,Correct
2,new_learn,58,94,B,48.22566024326708,34.765550296304994,2.411283012163354,0.5460959870443912,A,2225,Incorrect
2,new_learn,58,95,B,68.14167969263929,43.07265296430704,3.4070839846319645,0.6765836506164481,B,815,Correct
2,new_learn,58,96,B,54.11683775571541,39.10266861018451,2.7058418877857706,0.6142232822075593,A,760,Incorrect
2,new_learn,58,97,B,73.76654086228986,63.21435154344813,3.6883270431144926,0.9929687120516962,B,607,Correct
2,new_learn,58,98,A,37.39360313631278,48.937100309565,1.869680156815639,0.7687021741025808,A,857,Correct
2,new_learn,58,99,B,60.35103028974473,31.120507818969536,3.017551514487236,0.488839793700292,B,698,Correct
2,new_learn,58,100,B,51.847421167804214,29.018044195611733,2.592371058390211,0.4558143723323888,A,918,Incorrect
2,new_learn,58,101,B,60.07809971896328,36.38335530599996,3.003904985948164,0.5715084087113835,B,602,Correct
2,new_learn,58,102,A,50.45826099672521,81.13733126651755,2.5229130498362604,1.2745022191938644,B,1837,Incorrect
2,new_learn,58,103,B,51.21233671707853,24.921699969900835,2.5606168358539265,0.3914691477020471,B,1939,Correct
2,new_learn,58,104,B,74.45271332876868,56.72513040792225,3.722635666438434,0.8910362648172576,B,691,Correct
2,new_learn,58,105,A,12.517881607187206,36.21590583332473,0.6258940803593603,0.5688781185453636,A,765,Correct
2,new_learn,58,106,A,29.044516015907533,51.63208653576663,1.4522258007953766,0.8110349187513848,B,2459,Incorrect
2,new_learn,58,107,A,39.09369493568944,70.5969113378454,1.954684746784472,1.1089336901255253,A,2653,Correct
2,new_learn,58,108,B,69.3200935284888,45.095348013243814,3.4660046764244394,0.7083560701474092,B,676,Correct
2,new_learn,58,109,A,55.99170656419265,77.9157291041968,2.7995853282096324,1.2238974107641853,B,2044,Incorrect
2,new_learn,58,110,B,71.73065213244317,52.204658192828035,3.586532606622159,0.8200288533087737,B,1002,Correct
2,new_learn,58,111,B,54.512441049148244,23.381119052768106,2.725622052457412,0.36726975924442307,B,1042,Correct
2,new_learn,58,112,B,67.60982956864868,55.342216667473565,3.3804914784324342,0.8693135065795476,B,741,Correct
2,new_learn,58,113,B,81.354407240487,50.55620760731722,4.0677203620243505,0.7941350520625409,B,635,Correct
2,new_learn,58,114,A,27.308863911588915,53.94254380808478,1.3654431955794457,0.8473274967171237,A,677,Correct
2,new_learn,58,115,A,34.88250515281046,52.63403762986548,1.744125257640523,0.8267735297337707,B,1612,Incorrect
2,new_learn,58,116,B,51.7895022683944,33.91812472761282,2.58947511341972,0.5327846573390537,B,745,Correct
2,new_learn,58,117,A,54.25351396692791,75.70452097180451,2.7126756983463958,1.1891638346427775,B,639,Incorrect
2,new_learn,58,118,B,74.13877470723054,58.03531151954157,3.706938735361527,0.9116165415929345,B,766,Correct
2,new_learn,58,119,A,43.28730467540772,59.96084569917509,2.164365233770386,0.9418627617577979,A,938,Correct
2,new_learn,58,120,A,27.67699146175842,55.49683120659673,1.3838495730879208,0.8717421860807855,A,2172,Correct
2,new_learn,58,121,A,50.8859685224719,64.44470879408125,2.544298426123595,1.012295118551096,B,1805,Incorrect
2,new_learn,58,122,B,59.342972659072835,43.74471964157983,2.967148632953642,0.6871404492966615,B,569,Correct
2,new_learn,58,123,B,62.73495377672554,53.53961230940198,3.1367476888362766,0.8409982635363147,B,469,Correct
2,new_learn,58,124,A,54.17078856324516,71.37455723545547,2.708539428162258,1.1211489233206557,B,1153,Incorrect
2,new_learn,58,125,A,10.1416206049737,33.440152642059104,0.5070810302486849,0.5252766893760709,A,1056,Correct
2,new_learn,58,126,A,29.984150299248434,50.25687867567467,1.4992075149624216,0.7894332041992653,A,1957,Correct
2,new_learn,58,127,A,40.60593398974488,59.94756014129042,2.0302966994872436,0.9416540727025514,B,950,Incorrect
2,new_learn,58,128,A,21.12702862315924,33.05181034251725,1.056351431157962,0.5191766227994766,A,631,Correct
2,new_learn,58,129,A,25.50096964350655,54.38725648776796,1.2750484821753276,0.8543130271543782,A,648,Correct
2,new_learn,58,130,A,49.45228299720065,71.73238530853668,2.4726141498600325,1.1267696735488562,B,695,Incorrect
2,new_learn,58,131,A,34.57669542653603,62.173242186117584,1.7288347713268013,0.97661500450883,A,521,Correct
2,new_learn,58,132,A,54.11635945145068,81.92656172707869,2.7058179725725338,1.2868994222783057,A,671,Correct
2,new_learn,58,133,B,48.65359092012362,39.91873289161287,2.432679546006181,0.6270419899645211,A,739,Incorrect
2,new_learn,58,134,B,39.84440846523995,16.769067152284766,1.9922204232619976,0.26340789086585864,B,796,Correct
2,new_learn,58,135,B,73.36709147053942,59.37524015791209,3.668354573526971,0.9326640914261314,B,1035,Correct
2,new_learn,58,136,B,80.293774071764,53.966047403554214,4.014688703588201,0.847696690331422,B,640,Correct
2,new_learn,58,137,A,40.00048671896977,56.23799166358754,2.0000243359484884,0.8833843073148532,B,644,Incorrect
2,new_learn,58,138,B,70.18063327337663,44.53814415812859,3.5090316636688317,0.6996035324584997,B,602,Correct
2,new_learn,58,139,A,50.36129350641711,58.74026718638686,2.5180646753208555,0.9226899593132728,A,953,Correct
2,new_learn,58,140,A,46.233840070912116,54.03679979047399,2.311692003545606,0.8488080662262779,B,542,Incorrect
2,new_learn,58,141,B,54.90049752239533,37.89240628211884,2.745024876119766,0.5952125260137214,B,545,Correct
2,new_learn,58,142,B,54.75110121906413,22.98461569282281,2.7375550609532064,0.36104149903078403,B,641,Correct
2,new_learn,58,143,A,20.84953599364902,36.09204086337561,1.042476799682451,0.5669324521472171,A,797,Correct
2,new_learn,58,144,B,42.01615556306357,16.781096370629598,2.1008077781531784,0.26359684538576145,B,639,Correct
2,new_learn,58,145,A,22.040322752310296,52.16778487876061,1.1020161376155146,0.8194496486458351,A,794,Correct
2,new_learn,58,146,B,53.98983837797554,44.3152087629378,2.6994919188987767,0.696101671459717,B,494,Correct
2,new_learn,58,147,B,55.68352826931248,34.55628155944794,2.784176413465624,0.5428088014127105,A,479,Incorrect
2,new_learn,58,148,B,55.995623229405176,26.162597911158166,2.799781161470259,0.4109611269825908,B,415,Correct
2,new_learn,58,149,B,37.190382123147685,11.544722464159179,1.8595191061573844,0.18134407640567762,A,1042,Incorrect
2,new_learn,58,150,A,37.47347805177979,69.80890380772836,1.8736739025889897,1.0965556967875796,B,1145,Incorrect
2,new_learn,58,151,B,53.06435418123267,29.12940378907489,2.6532177090616336,0.45756360473604174,B,888,Correct
2,new_learn,58,152,A,54.13210050106592,80.85098167507212,2.706605025053296,1.2700042503296478,B,861,Incorrect
2,new_learn,58,153,A,33.693245544065874,57.241881323210755,1.6846622772032935,0.8991533692132884,A,577,Correct
2,new_learn,58,154,A,49.15253222401575,74.67883425245184,2.4576266112007876,1.1730523853307626,B,924,Incorrect
2,new_learn,58,155,A,42.42558048034027,69.01249691441436,2.1212790240170136,1.0840457665610623,A,1091,Correct
2,new_learn,58,156,B,71.2141382447639,61.791474176008606,3.560706912238195,0.9706182066291603,B,570,Correct
2,new_learn,58,157,A,32.40022653822291,58.1149701968433,1.6200113269111456,0.9128678171699636,A,2242,Correct
2,new_learn,58,158,A,13.82383348617764,35.49579191168346,0.6911916743088821,0.5575665955154838,A,626,Correct
2,new_learn,58,159,B,72.22595448967206,40.553809234094444,3.6112977244836033,0.637017745824565,B,632,Correct
2,new_learn,58,160,B,46.31347659614556,36.457753867855914,2.3156738298072783,0.5726770585882051,A,790,Incorrect
2,new_learn,58,161,A,17.638864073068145,42.713167627715535,0.8819432036534073,0.6709368681539025,A,853,Correct
2,new_learn,58,162,B,57.94268577189932,40.659423536637235,2.897134288594966,0.6386767314094773,B,705,Correct
2,new_learn,58,163,A,41.344226461214234,59.3234708421877,2.067211323060712,0.9318509009163259,A,785,Correct
2,new_learn,58,164,B,54.76569338458711,31.474868460456,2.7382846692293557,0.49440607764036826,B,914,Correct
2,new_learn,58,165,A,60.749170751199536,71.56912497542498,3.037458537559977,1.1242051862332247,B,616,Incorrect
2,new_learn,58,166,A,62.02984199109155,75.73059768721643,3.101492099554578,1.1895734467306167,B,489,Incorrect
2,new_learn,58,167,A,54.08290619369307,83.29635484855763,2.7041453096846535,1.308416082315186,A,657,Correct
2,new_learn,58,168,A,59.815868984880005,81.05308486073378,2.9907934492440003,1.2731788797463566,A,827,Correct
2,new_learn,58,169,B,50.208147090616514,32.90895193768754,2.5104073545308254,0.5169326082238939,A,1273,Incorrect
2,new_learn,58,170,A,26.951514547354474,42.11976669341418,1.3475757273677238,0.6616157480747301,A,1997,Correct
2,new_learn,58,171,A,15.435438165738002,44.80256566957854,0.7717719082869001,0.7037570558476111,A,872,Correct
2,new_learn,58,172,B,56.0625866208493,33.003713922926245,2.8031293310424648,0.5184211260072213,A,1098,Incorrect
2,new_learn,58,173,A,52.33647155241396,59.5894313807133,2.616823577620698,0.9360285992862099,B,424,Incorrect
2,new_learn,58,174,B,68.38112721777864,58.608440715926804,3.419056360888932,0.9206192339575429,B,505,Correct
2,new_learn,58,175,A,60.85530440749276,75.48485108831568,3.042765220374638,1.18571326818186,B,614,Incorrect
2,new_learn,58,176,B,56.81672934478753,26.497221539248038,2.8408364672393764,0.41621738264121433,A,1197,Incorrect
2,new_learn,58,177,B,54.960585375821466,39.969046367197805,2.7480292687910732,0.6278323121908921,B,689,Correct
2,new_learn,58,178,B,54.95189090124118,28.00071129966943,2.747594545062059,0.43983414457165093,B,587,Correct
2,new_learn,58,179,A,59.42889699465187,67.77857602089632,2.9714448497325936,1.064663382490126,B,974,Incorrect
2,new_learn,58,180,B,74.76647288852192,60.16996318846102,3.7383236444260954,0.9451475715981872,B,2101,Correct
2,new_learn,58,181,A,16.788658616227938,31.68556535844785,0.8394329308113968,0.49771569677469507,A,975,Correct
2,new_learn,58,182,A,36.563198532553415,61.76870308620684,1.828159926627671,0.9702605191869831,A,3289,Correct
2,new_learn,58,183,A,20.461392051044214,44.62775378560923,1.0230696025522108,0.7010111171954202,A,894,Correct
2,new_learn,58,184,A,67.123855607013,88.87212780831456,3.35619278035065,1.3960001191574707,B,1432,Incorrect
2,new_learn,58,185,A,23.379118235270884,50.78817881138134,1.1689559117635442,0.797778847215202,A,1017,Correct
2,new_learn,58,186,B,71.44443048861416,43.87744449612323,3.572221524430708,0.6892252864365732,B,1757,Correct
2,new_learn,58,187,B,48.55556097809223,24.83517493807712,2.4277780489046115,0.3901100156804021,A,806,Incorrect
2,new_learn,58,188,A,37.24920906681819,45.27053020458776,1.8624604533409095,0.7111078255742387,A,886,Correct
2,new_learn,58,189,A,39.067076628107245,49.75264327774237,1.9533538314053625,0.7815126930901451,B,390,Incorrect
2,new_learn,58,190,A,47.85136441520711,63.59416607798256,2.3925682207603556,0.9989348248087961,B,1206,Incorrect
2,new_learn,58,191,A,42.168171280627256,74.62889941528448,2.108408564031363,1.1722680107427466,A,1193,Correct
2,new_learn,58,192,A,23.40817903856773,36.38313570105955,1.1704089519283867,0.571504959165046,A,716,Correct
2,new_learn,58,193,B,76.19647621818328,62.286142750431765,3.809823810909164,0.9783884424260079,B,1135,Correct
2,new_learn,58,194,B,72.37292436037033,40.56449891718057,3.618646218018517,0.637185658973828,B,1380,Correct
2,new_learn,58,195,B,75.04693630523383,60.37566906992371,3.7523468152616912,0.9483787920282041,B,688,Correct
2,new_learn,58,196,A,42.125198905034026,64.75795570310544,2.1062599452517015,1.0172155894918467,A,840,Correct
2,new_learn,58,197,A,40.68248853592984,68.94633482409155,2.034124426796492,1.0830064948765405,B,1134,Incorrect
2,new_learn,58,198,B,56.90070515573415,39.195919629196005,2.8450352577867073,0.6156880657888908,B,1546,Correct
2,new_learn,58,199,A,38.70311555266557,64.9693060108869,1.9351557776332786,1.0205354723631472,A,754,Correct
2,new_learn,58,200,A,60.2202974660225,84.15146087720174,3.011014873301125,1.3218480564033293,B,697,Incorrect
2,new_learn,58,201,A,31.38163829441633,40.90533865213898,1.5690819147208166,0.6425395570108121,A,641,Correct
2,new_learn,58,202,A,29.632341060477195,47.131074134514456,1.4816170530238597,0.7403331812839327,B,533,Incorrect
2,new_learn,58,203,A,42.8293137260951,64.97182304304819,2.141465686304755,1.0205750098118813,A,587,Correct
2,new_learn,58,204,A,13.935440280852266,32.16745914785923,0.6967720140426132,0.5052852667178218,A,684,Correct
2,new_learn,58,205,B,64.22766043074733,41.99881430628265,3.2113830215373667,0.6597158324204973,B,1002,Correct
2,new_learn,58,206,A,28.245704786464792,59.141088388141064,1.4122852393232395,0.928986044027443,A,519,Correct
2,new_learn,58,207,A,46.03087172187781,55.37554166763883,2.3015435860938904,0.8698369744580481,A,732,Correct
2,new_learn,58,208,B,53.29161990980064,29.53803158785076,2.6645809954900317,0.46398231518947597,A,596,Incorrect
2,new_learn,58,209,B,32.56485491345912,16.257680986648182,1.6282427456729562,0.25537505576030195,B,434,Correct
2,new_learn,58,210,B,62.33053732910912,46.649566062881036,3.116526866455456,0.7327696701814941,B,604,Correct
2,new_learn,58,211,B,54.79023538937964,23.528261164130907,2.739511769468982,0.36958106212487846,B,792,Correct
2,new_learn,58,212,B,76.81837717992332,62.375034782796334,3.840918858996166,0.9797847552052038,B,595,Correct
2,new_learn,58,213,A,65.97726119901756,79.07793854322657,3.298863059950878,1.2421533539421288,B,821,Incorrect
2,new_learn,58,214,B,60.314515425222964,44.766875195437635,3.015725771261148,0.70319643119079,A,340,Incorrect
2,new_learn,58,215,B,55.126914147078615,23.4196129751623,2.756345707353931,0.3678744203634303,B,460,Correct
2,new_learn,58,216,A,49.69599301599017,80.81468502724829,2.4847996507995083,1.2694341039188815,B,2658,Incorrect
2,new_learn,58,217,B,53.4644195923269,40.02238436192568,2.6732209796163446,0.6286701434528637,B,952,Correct
2,new_learn,58,218,B,78.47995516342633,66.02043283817125,3.9239977581713164,1.0370465339560857,B,825,Correct
2,new_learn,58,219,B,41.85535450806378,14.614899629337433,2.0927677254031893,0.22957030654239338,B,741,Correct
2,new_learn,58,220,A,32.0794320740631,42.102035123761894,1.603971603703155,0.661337221229949,B,886,Incorrect
2,new_learn,58,221,B,64.08319733765195,33.32985184711049,3.2041598668825975,0.5235440885405926,B,590,Correct
2,new_learn,58,222,A,45.61717565826298,67.00703983656724,2.280858782913149,1.0525441204467914,B,871,Incorrect
2,new_learn,58,223,A,19.719596791583257,37.50224484490013,0.9859798395791628,0.5890838844893197,A,870,Correct
2,new_learn,58,224,B,56.74506712343732,25.563288144062792,2.837253356171866,0.40154719117493354,B,540,Correct
2,new_learn,58,225,B,51.06634927243541,40.04691593998782,2.5533174636217706,0.6290554845799687,B,852,Correct
2,new_learn,58,226,B,81.01654278699166,63.06568438660727,4.0508271393495825,0.9906334538128896,B,712,Correct
2,new_learn,58,227,B,54.535425493341975,43.57304987469382,2.7267712746670987,0.6844438669041988,B,636,Correct
2,new_learn,58,228,A,49.176792549223954,61.39929804970597,2.458839627461198,0.9644579184426318,B,673,Incorrect
2,new_learn,58,229,B,87.37339895247194,63.05471469617854,4.368669947623597,0.9904611423185745,B,523,Correct
2,new_learn,58,230,A,17.732973092181904,33.39221749537242,0.8866486546090953,0.5245237258526728,A,776,Correct
2,new_learn,58,231,B,52.2351799371758,43.79277836395488,2.61175899685879,0.6878953539424335,B,956,Correct
2,new_learn,58,232,B,68.34035504125801,45.48946585632425,3.4170177520629004,0.7145468587497599,B,529,Correct
2,new_learn,58,233,B,66.91435384472497,58.461672230027105,3.345717692236249,0.9183137999721378,B,509,Correct
2,new_learn,58,234,A,14.486343679750227,39.57930280231437,0.7243171839875114,0.6217102345897837,A,557,Correct
2,new_learn,58,235,A,16.891682267958657,41.68664213622178,0.8445841133979328,0.6548122434399052,A,868,Correct
2,new_learn,58,236,A,20.175598881881083,47.580241340036075,1.0087799440940541,0.7473886832494334,A,627,Correct
2,new_learn,58,237,A,38.03095411631466,59.63443611509933,1.901547705815733,0.9367355320008295,B,574,Incorrect
2,new_learn,58,238,A,49.59947316963263,61.89075285120223,2.4799736584816316,0.9721776724123923,A,449,Correct
2,new_learn,58,239,A,14.331170383753065,40.67393992695952,0.7165585191876532,0.6389047543354429,A,621,Correct
2,new_learn,58,240,A,41.47311640041718,53.06938424139067,2.0736558200208592,0.8336119383164343,B,457,Incorrect
2,new_learn,58,241,B,40.89984332638733,28.930633354703076,2.0449921663193664,0.4544413260541751,A,391,Incorrect
2,new_learn,58,242,B,49.00660026046289,37.759005721717024,2.4503300130231445,0.5931170749110058,B,478,Correct
2,new_learn,58,243,B,68.38597232837367,46.78602667843193,3.4192986164186836,0.7349131885180891,B,594,Correct
2,new_learn,58,244,B,74.99461301973581,52.118752834010536,3.7497306509867907,0.8186794550879485,B,467,Correct
2,new_learn,58,245,A,55.75287821936841,71.41262762375688,2.787643910968421,1.1217469315816906,B,441,Incorrect
2,new_learn,58,246,A,66.98999873375199,86.47198292397572,3.3494999366875993,1.3582987314765207,B,630,Incorrect
2,new_learn,58,247,B,72.07503728283311,51.69007838627291,3.6037518641416555,0.8119458526089776,B,585,Correct
2,new_learn,58,248,B,55.244447315510904,27.665102169845603,2.762222365775545,0.43456240868799,B,626,Correct
2,new_learn,58,249,A,29.432523275159504,61.710869295380526,1.471626163757975,0.969352068125037,A,613,Correct
2,new_learn,58,250,A,29.709777997321673,56.16307011012235,1.4854888998660838,0.8822074423050442,A,1776,Correct
2,new_learn,58,251,A,38.098588862388404,64.58415423228408,1.9049294431194201,1.014485522372269,A,876,Correct
2,new_learn,58,252,B,56.22236677022792,24.162298844048884,2.8111183385113963,0.3795405027115257,B,1065,Correct
2,new_learn,58,253,B,59.91343578287542,50.89936735941491,2.995671789143771,0.7995253928435299,B,649,Correct
2,new_learn,58,254,A,37.73005698886273,52.73709436579308,1.8865028494431362,0.8283923411562361,B,632,Incorrect
2,new_learn,58,255,B,38.27942905894412,14.931813231301756,1.9139714529472058,0.2345483737611623,A,698,Incorrect
2,new_learn,58,256,B,66.96474567985236,56.81638596319907,3.3482372839926176,0.8924697037275423,B,477,Correct
2,new_learn,58,257,B,55.77421534829052,45.80966079389292,2.788710767414526,0.7195764690676717,A,1424,Incorrect
2,new_learn,58,258,A,41.49620237905436,63.76745539212638,2.0748101189527177,1.0016568469900955,B,793,Incorrect
2,new_learn,58,259,A,35.58262119021758,53.4694789061186,1.7791310595108791,0.839896610613683,B,719,Incorrect
2,new_learn,58,260,B,44.026255643584754,35.48041760562523,2.201312782179238,0.557325096480651,B,888,Correct
2,new_learn,58,261,B,69.42567705859999,59.54586637128772,3.4712838529299996,0.9353442817183851,A,466,Incorrect
2,new_learn,58,262,B,40.63324717346442,22.790954635377474,2.0316623586732208,0.35799947825400064,A,1256,Incorrect
2,new_learn,58,263,A,39.756923837755934,60.32442053824334,1.9878461918877968,0.9475737819750325,B,2989,Incorrect
2,new_learn,58,264,A,31.65204329217624,48.4056047484258,1.582602164608812,0.7603534613511286,A,513,Correct
2,new_learn,58,265,A,30.84305357447929,48.80390112478574,1.5421526787239646,0.7666098862007474,A,779,Correct
2,new_learn,58,266,A,36.82671822144937,51.8146703109683,1.8413359110724685,0.8139029379855761,A,687,Correct
2,new_learn,58,267,B,39.53956790074918,21.20965945196592,1.9769783950374589,0.33316055159718727,B,822,Correct
2,new_learn,58,268,B,45.01600173545704,36.57342063767841,2.250800086772852,0.5744939479598992,B,940,Correct
2,new_learn,58,269,A,45.703616597479986,70.88386862275954,2.2851808298739993,1.113441204616427,B,733,Incorrect
2,new_learn,58,270,A,15.350269633293728,44.295394169111425,0.7675134816646864,0.6957904245477231,A,831,Correct
2,new_learn,58,271,A,65.1388917708953,82.2447259724764,3.2569445885447648,1.2918971345581876,B,661,Incorrect
2,new_learn,58,272,A,22.28030456889572,52.467575108929466,1.114015228444786,0.8241587425694175,A,664,Correct
2,new_learn,58,273,B,60.061789392857435,28.6135924101137,3.003089469642872,0.4494612585421293,B,827,Correct
2,new_learn,58,274,A,19.243019427402793,34.49498835412876,0.9621509713701397,0.5418460099949819,A,748,Correct
2,new_learn,58,275,B,59.12838223721755,38.54456821533147,2.956419111860878,0.6054566617053799,B,673,Correct
2,new_learn,58,276,B,33.14183458876262,17.172906201888225,1.6570917294381309,0.26975137982319325,B,725,Correct
2,new_learn,58,277,B,57.241245216194876,35.834045407277685,2.862062260809744,0.5628798689995332,B,633,Correct
2,new_learn,58,278,A,32.49954934681526,54.048958752992725,1.6249774673407629,0.8489990587628984,A,722,Correct
2,new_learn,58,279,B,49.36642153258853,29.2072039923075,2.468321076629427,0.4587856874706586,B,589,Correct
2,new_learn,58,280,B,51.10023900023243,38.924658502204714,2.5550119500116213,0.611427105970089,B,605,Correct
2,new_learn,58,281,B,32.61885615762513,11.796712860191686,1.6309428078812567,0.1853023322904322,A,1177,Incorrect
2,new_learn,58,282,A,31.413816392611956,52.5180502551581,1.5706908196305978,0.8249516043123213,B,1034,Incorrect
2,new_learn,58,283,B,81.09570700389654,61.212889989385836,4.054785350194827,0.9615298274782735,B,557,Correct
2,new_learn,58,284,B,58.113800482393124,50.666926376894175,2.9056900241196564,0.7958742184281283,B,667,Correct
2,new_learn,58,285,B,49.54803513689969,40.63179019923306,2.477401756844985,0.6382426679605617,B,1968,Correct
2,new_learn,58,286,A,37.37226337558328,61.65781540882446,1.868613168779164,0.9685186996237924,B,667,Incorrect
2,new_learn,58,287,A,55.11177670515107,73.61811243841206,2.7555888352575537,1.1563906060383133,A,663,Correct
2,new_learn,58,288,B,42.73630648395684,26.33469406969543,2.136815324197842,0.4136644071194492,B,901,Correct
2,new_learn,58,289,B,71.96545136519472,41.74681820185154,3.5982725682597363,0.6557574868684273,B,567,Correct
2,new_learn,58,290,B,46.26351929541196,38.93297472852353,2.313175964770598,0.611557736947633,B,740,Correct
2,new_learn,58,291,A,17.046237735528283,36.24563938249328,0.8523118867764141,0.5693451720435289,A,2141,Correct
2,new_learn,58,292,A,30.641586024628204,41.8824894466682,1.53207930123141,0.6578886057985243,B,926,Incorrect
2,new_learn,58,293,A,26.24030184177513,44.89066765615922,1.3120150920887566,0.7051409586166538,A,660,Correct
2,new_learn,58,294,A,68.13570715583282,85.67360611608942,3.4067853577916414,1.3457578579042602,B,599,Incorrect
2,new_learn,58,295,B,32.29265872852686,10.904883618563627,1.6146329364263432,0.17129351132165585,A,600,Incorrect
2,new_learn,58,296,A,63.890325126227246,83.63492445054342,3.194516256311362,1.3137343211868227,B,518,Incorrect
2,new_learn,58,297,B,41.192623597278356,28.114825226396654,2.059631179863918,0.4416266419410436,A,975,Incorrect
2,new_learn,58,298,B,38.481165191199246,14.47248552183634,1.9240582595599622,0.22733327097292846,A,794,Incorrect
2,new_learn,58,299,A,51.58607689083016,69.53249250892999,2.5793038445415077,1.092213838259209,B,428,Incorrect
2,new_learn,58,300,B,45.99524527864125,26.65969588717291,2.2997622639320623,0.4187695237304021,A,608,Incorrect
2,new_learn,58,301,A,23.746708417032245,40.7698539294315,1.1873354208516123,0.6404113679631548,B,316,Incorrect
2,new_learn,58,302,B,81.75563075885447,55.28692039785831,4.087781537942723,0.8684449148075769,B,505,Correct
2,new_learn,58,303,B,67.35829101883911,44.03353610267406,3.3679145509419555,0.6916771676587088,B,556,Incorrect
2,new_learn,58,304,B,76.80140177944332,45.79800612868731,3.8400700889721664,0.719393398014722,A,376,Incorrect
2,new_learn,58,305,B,49.98207110713871,34.01958388514187,2.4991035553569354,0.5343783740587171,A,963,Incorrect
2,new_learn,58,306,A,49.833596126408594,77.88062160485622,2.4916798063204295,1.223345943454114,B,482,Incorrect
2,new_learn,58,307,B,79.15643872279374,59.08620960565581,3.9578219361396867,0.9281240101279747,B,353,Incorrect
2,new_learn,58,308,B,57.036377867878706,37.80366826944486,2.8518188933939355,0.5938186325701678,A,513,Correct
2,new_learn,58,309,A,20.19856590490283,35.402735582090585,1.0099282952451416,0.5561048701083888,A,820,Correct
2,new_learn,58,310,B,34.316219093581466,17.050351010451493,1.7158109546790734,0.2678262873778086,A,619,Incorrect
2,new_learn,58,311,A,48.1976131130453,69.70192439604435,2.4098806556522647,1.0948752681184206,B,287,Correct
2,new_learn,58,312,B,82.31530036130465,67.77953157179671,4.1157650180652325,1.06467839224857,B,478,Correct
2,new_learn,58,313,A,33.60923137652836,43.344939039065345,1.6804615688264182,0.6808607102771256,A,581,Correct
2,new_learn,58,314,B,41.607697327971074,28.182613484978653,2.080384866398554,0.4426914574168479,A,1558,Incorrect
2,new_learn,58,315,B,58.27090438354302,28.38543407736536,2.9135452191771507,0.44587735583204186,B,526,Incorrect
2,new_learn,58,316,B,35.59438202657995,14.025455921486326,1.7797191013289975,0.22031134643094452,A,627,Incorrect
2,new_learn,58,317,A,27.966965562278343,42.22049872832934,1.3983482781139172,0.6631980431790833,B,485,Incorrect
2,new_learn,58,318,B,45.05676369855343,36.32026851115274,2.2528381849276715,0.5705174436552306,A,822,Correct
2,new_learn,58,319,A,41.2994756666651,50.500446715002454,2.0649737833332553,0.7932591620142726,B,836,Incorrect
2,new_learn,58,320,A,26.065042747891837,46.82163350954875,1.3032521373945918,0.73547249931336,A,531,Correct
2,new_learn,58,321,B,44.83070606840385,16.478704028930842,2.2415353034201924,0.2588468775898483,B,849,Correct
2,new_learn,58,322,B,63.8125917088947,46.909021655113385,3.1906295854447353,0.7368451890939438,A,607,Incorrect
2,new_learn,58,323,A,26.97950789011935,53.868352663482796,1.3489753945059675,0.8461621049429086,B,284,Incorrect
2,new_learn,58,324,A,62.40599541307358,76.4527253555631,3.1202997706536792,1.2009166016197756,A,414,Incorrect
2,new_learn,58,325,A,58.82069421405998,83.60878624635822,2.9410347107029993,1.3133237432355915,B,705,Incorrect
2,new_learn,58,326,B,64.22410404534544,53.85612992624472,3.211205202267272,0.8459701106353391,B,418,Correct
2,new_learn,58,327,B,84.1098388625672,57.102313576699004,4.20549194312836,0.8969610441776916,B,613,Correct
2,new_learn,58,328,B,81.31628380682086,59.32659210023556,4.065814190341043,0.9318999295230914,B,560,Incorrect
2,new_learn,58,329,A,46.846423245581775,59.977355893138004,2.342321162279089,0.9421221032781143,A,1047,Correct
2,new_learn,58,330,B,75.94284117408853,60.36501525837535,3.7971420587044262,0.9482114423477389,B,565,Correct
2,new_learn,58,331,A,20.81509557308741,45.676118523946975,1.0407547786543705,0.7174787919966424,A,653,Incorrect
2,new_learn,58,332,A,20.112328956844568,37.97665865565217,1.0056164478422283,0.5965359592024204,A,480,Incorrect
2,new_learn,58,333,A,21.358672787020023,39.54064029496877,1.0679336393510013,0.6211029253445521,B,270,Correct
2,new_learn,58,334,B,47.75271670583522,37.417545770117556,2.387635835291761,0.5877534345338058,B,1217,Correct
2,new_learn,58,335,A,44.968362481271704,55.83408692210061,2.248418124063585,0.8770397864718261,B,538,Incorrect
2,new_learn,58,336,B,81.44676213036963,55.53888522166683,4.072338106518481,0.8724027690047762,A,800,Incorrect
2,new_learn,58,337,A,54.73146708638747,72.67458094956841,2.7365733543193733,1.1415696480694042,B,657,Incorrect
2,new_learn,58,338,A,40.3696661236366,63.82945364326466,2.01848330618183,1.0026307132416525,A,804,Correct
2,new_learn,58,339,B,67.43301952683571,37.203371527594705,3.3716509763417855,0.584389193399316,B,455,Incorrect
2,new_learn,58,340,B,80.49352246369281,54.42982689399711,4.024676123184641,0.8549817215317275,B,429,Correct
2,new_learn,58,341,A,24.816362684225155,43.119558258170805,1.2408181342112576,0.6773204372495325,100,702,Incorrect
2,new_learn,58,342,A,52.51028891585143,73.5753566213418,2.6255144457925716,1.1557189992342827,B,615,Incorrect
2,new_learn,58,343,A,31.839193693479054,54.00079518740144,1.5919596846739525,0.8482425072437371,A,572,Incorrect
2,new_learn,58,344,A,35.78567779699372,43.47036980878029,1.789283889849686,0.6828309722004785,B,517,Incorrect
2,new_learn,58,345,B,39.656198092176986,24.164701679926885,1.9828099046088494,0.3795782463692362,B,560,Incorrect
2,new_learn,58,346,A,22.334221263011457,40.56770635398812,1.1167110631505728,0.6372360412733852,A,416,Correct
2,new_learn,58,347,B,62.524934263710634,43.91973163722573,3.1262467131855316,0.6898895312957178,B,378,Correct
2,new_learn,58,348,A,24.572269208037238,43.996906950236855,1.228613460401862,0.691101798277689,B,732,Correct
2,new_learn,58,349,B,81.14975004833008,61.02258338429442,4.057487502416504,0.9585404983158495,B,823,Correct
2,new_learn,58,350,B,52.899521317671066,27.049083058358462,2.644976065883553,0.42488600311239544,A,1259,Incorrect
2,new_learn,58,351,A,17.524989182515988,45.83055810967498,0.8762494591257993,0.7199047233363752,B,491,Correct
2,new_learn,58,352,A,34.963603329288254,52.69409061669775,1.7481801664644125,0.8277168398450625,A,953,Correct
2,new_learn,58,353,B,31.608858355938814,17.269542561889928,1.5804429177969408,0.2712693402164482,B,484,Incorrect
2,new_learn,58,354,A,27.648162458818746,39.936111719565794,1.3824081229409373,0.6273149759556457,A,644,Incorrect
2,new_learn,58,355,A,54.93374522011943,75.82348236549062,2.7466872610059716,1.1910324758451027,B,638,Incorrect
2,new_learn,58,356,B,57.351052902984364,45.68056660611631,2.867552645149218,0.7175486623079712,A,726,Correct
2,new_learn,58,357,A,28.991910754454295,48.32172895153265,1.4495955377227148,0.759035943414461,B,1841,Correct
2,new_learn,58,358,A,26.15177948890681,58.599028100361714,1.3075889744453406,0.9204713809379911,A,1238,Correct
2,new_learn,58,359,A,16.9745085408086,35.99982160279768,0.84872542704043,0.5654838753894617,B,953,Correct
2,new_learn,58,360,A,19.782687853714034,43.821406370664036,0.9891343926857017,0.6883450416202554,B,1342,Incorrect
2,new_learn,58,361,B,40.42124289604071,29.557671590534397,2.021062144802036,0.46429081963021296,A,686,Correct
2,new_learn,58,362,A,34.1422697494341,43.517903811030344,1.7071134874717049,0.6835776345618009,A,538,Correct
2,new_learn,58,363,B,64.41580404880386,34.81003209400864,3.220790202440193,0.5467947054888124,B,415,Incorrect
2,new_learn,58,364,B,82.537351587223,66.86182087859441,4.12686757936115,1.0502630263891441,A,342,Correct
2,new_learn,58,365,A,55.03767169674576,79.00460893071202,2.751883584837288,1.2410014950822974,A,685,Incorrect
2,new_learn,58,366,A,35.90315852876414,45.71927857342469,1.795157926438207,0.7181567484684812,A,624,Correct
2,new_learn,58,367,A,29.682140589799175,50.418284133068674,1.484107029489959,0.7919685551952569,B,285,Incorrect
2,new_learn,58,368,B,61.03992587842601,33.3779021522371,3.0519962939213006,0.5242988609685351,A,361,Correct
2,new_learn,58,369,A,44.51922361454293,62.20564741566911,2.2259611807271464,0.9771240246643149,A,567,Correct
2,new_learn,58,370,A,33.06588617085471,42.19467774361558,1.6532943085427354,0.6627924480996572,A,579,Correct
2,new_learn,58,371,A,35.46313501236364,57.399411321411534,1.7731567506181818,0.9016278446386263,B,409,Incorrect
2,new_learn,58,372,A,61.50437289681111,76.71850395903124,3.0752186448405556,1.2050914421604602,A,319,Correct
2,new_learn,58,373,B,46.44307885915887,28.29932972418355,2.3221539429579434,0.4445248318150515,A,303,Correct
2,new_learn,58,374,B,51.406441026581476,22.07277211802666,2.570322051329074,0.34671829365177087,A,313,Incorrect
2,new_learn,58,375,B,77.98121469006075,54.37543419766712,3.899060734503038,0.8541273230557311,A,382,Incorrect
2,new_learn,58,376,A,30.101360817015724,42.299236585143255,1.5050680408507862,0.6644348545417134,B,298,Incorrect
2,new_learn,58,377,A,53.8503280496895,78.50840826976646,2.6925164024844754,1.2332071933266324,A,870,Correct
2,new_learn,58,378,A,39.454771387758136,54.18912124794468,1.972738569387907,0.851200726085148,B,417,Incorrect
2,new_learn,58,379,A,15.462287462152553,45.222290648276996,0.7731143731076275,0.7103500803956471,B,359,Incorrect
2,new_learn,58,380,B,46.276823591774246,39.070953651534516,2.3138411795887124,0.6137251048020407,B,552,Correct
2,new_learn,58,381,B,46.1120282045674,15.963986548496568,2.30560141022837,0.25076171431381544,B,401,Correct
2,new_learn,58,382,B,51.340037682664054,33.75524641534211,2.567001884133203,0.5302261707927598,B,350,Incorrect
2,new_learn,58,383,A,48.58393840644018,55.421883240318785,2.429196920322009,0.8705649061794839,B,739,Correct
2,new_learn,58,384,B,67.19300315068364,52.397123322738594,3.359650157534182,0.8230520884997699,B,570,Correct
2,new_learn,58,385,A,29.08117164800246,53.06467596746765,1.4540585824001229,0.8335379809225961,A,2303,Incorrect
2,new_learn,58,386,B,73.15254208328894,40.40173360541597,3.657627104164447,0.6346289474353333,B,884,Correct
2,new_learn,58,387,B,61.304924256914646,43.884378624958316,3.0652462128457323,0.6893342074776099,B,1587,Incorrect
2,new_learn,58,388,B,59.22030864918122,48.93749745865573,2.961015432459061,0.7687084125059102,B,661,Incorrect
2,new_learn,58,389,B,83.51793694143262,56.39371176998831,4.1758968470716304,0.8858303530262776,B,474,Incorrect
2,new_learn,58,390,B,78.4456690580524,62.389201480444754,3.9222834529026205,0.9800072851714935,B,2078,Correct
2,new_learn,58,391,A,34.246107072594214,45.896875819835245,1.7123053536297106,0.7209464394915872,B,618,Incorrect
2,new_learn,58,392,A,65.35527636531083,89.19461179488447,3.2677638182655415,1.4010656857730128,A,1049,Incorrect
2,new_learn,58,393,A,24.757000666584844,43.841484507930666,1.2378500333292421,0.6886604282629286,B,333,Incorrect
2,new_learn,58,394,B,38.41047848113652,15.47699047190848,1.9205239240568261,0.2431119978311345,B,408,Incorrect
2,new_learn,58,395,A,30.953141029857775,46.24004730265075,1.5476570514928887,0.7263369645382607,A,2134,Correct
2,new_learn,58,396,B,81.71829334720032,66.75043528797853,4.085914667360016,1.0485133856231712,B,963,Correct
2,new_learn,58,397,B,72.95018656319488,45.54691029812686,3.6475093281597437,0.7154491939315432,B,645,Correct
2,new_learn,58,398,B,42.08174622890131,15.880186634961582,2.104087311445065,0.24944538835015062,A,858,Correct
2,new_learn,58,399,B,82.57157700269634,62.97148721145632,4.128578850134818,0.9891538080456741,B,627,Correct
2,new_learn,58,400,B,82.89133398494643,65.1447977623607,4.144566699247322,1.0232920903491258,B,824,Incorrect
2,new_learn,58,401,A,43.63057960155771,56.0884430124281,2.1815289800778856,0.8810352025956694,A,808,Correct
2,new_learn,58,402,B,48.37827302181895,27.81231968905471,2.4189136510909477,0.43687489607212526,B,589,Correct
2,new_learn,58,403,B,78.38878821829327,51.09080049801489,3.9194394109146633,0.8025324175529267,B,718,Correct
2,new_learn,58,404,B,69.44504282941,41.481507008838555,3.4722521414705,0.6515899883940036,B,818,Correct
2,new_learn,58,405,B,50.2734491429599,19.216279022808003,2.5136724571479947,0.30184860503692634,A,966,Incorrect
2,new_learn,58,406,B,88.81427309592289,69.11158114179506,4.440713654796144,1.0856021779651912,B,2175,Correct
2,new_learn,58,407,A,65.35480999384751,88.89185659781657,3.267740499692376,1.3963100182582895,B,1661,Incorrect
2,new_learn,58,408,B,67.63143729338464,40.12999727330914,3.381571864669232,0.6303605231120321,B,1016,Correct
2,new_learn,58,409,A,24.77526972461451,57.30886877852707,1.2387634862307255,0.9002056057008107,A,1130,Correct
2,new_learn,58,410,B,67.15399910567011,56.03018864699313,3.3576999552835054,0.8801201451632193,B,709,Correct
2,new_learn,58,411,B,45.733611219820304,27.911697167359183,2.2866805609910155,0.4384359138509932,B,747,Correct
2,new_learn,58,412,A,53.860145871074806,75.57974896701147,2.69300729355374,1.1872039205746199,B,1013,Correct
2,new_learn,58,413,B,77.02063026714154,55.972790873280545,3.851031513357077,0.8792185430420799,B,695,Correct
2,new_learn,58,414,B,58.46871447753817,48.19664523716678,2.9234357238769086,0.7570711330237833,B,635,Correct
2,new_learn,58,415,B,60.82902352235607,49.2856099295186,3.0414511761178034,0.774176550411339,B,551,Incorrect
2,new_learn,58,416,A,26.99672689069135,44.95118455088979,1.3498363445345674,0.7060915557761719,A,717,Correct
2,new_learn,58,417,A,50.204727131791856,59.14159280317962,2.510236356589593,0.9289939673603403,B,636,Incorrect
2,new_learn,58,418,A,64.83314851357565,84.36894895184567,3.241657425678783,1.3252643510910531,B,3069,Correct
2,new_learn,58,419,B,52.994690739968135,44.55687441794496,2.6497345369984067,0.6998977466916944,B,897,Correct
2,new_learn,58,420,A,30.15505955748044,48.87099721444882,1.507752977874022,0.7676638291125985,A,2132,Incorrect
2,new_learn,58,421,A,49.20463480123026,75.45294628469664,2.4602317400615132,1.1852121086985412,B,820,Incorrect
2,new_learn,58,422,B,38.84113090812744,14.306805020103727,1.942056545406372,0.2247307677374972,A,729,Incorrect
2,new_learn,58,423,A,22.591855352257497,50.345352246187694,1.1295927676128747,0.7908229437950683,B,386,Incorrect
2,new_learn,58,424,B,67.62615536798697,47.757181032282524,3.381307768399348,0.7501680454358829,B,606,Correct
2,new_learn,58,425,B,55.45805871892689,40.162845397570564,2.7729029359463446,0.6308765002413514,B,673,Correct
2,new_learn,58,426,B,45.19895579405975,17.098126277899965,2.2599477897029874,0.2685767395240056,A,1092,Incorrect
2,new_learn,58,427,A,30.342209616406162,62.91153055787645,1.517110480820308,0.9882120111335722,107,795,Incorrect
2,new_learn,58,428,B,71.03103741443232,41.23936416918786,3.551551870721616,0.6477864175631737,B,656,Incorrect
2,new_learn,58,429,A,19.324553781875903,39.71089372823272,0.9662276890937952,0.6237772600205045,A,736,Incorrect
2,new_learn,58,430,B,79.35408320178682,62.94310871170732,3.967704160089341,0.9887080396140171,B,506,Incorrect
2,new_learn,58,431,B,38.88107210637902,12.161937316770686,1.944053605318951,0.19103926463893173,A,534,Incorrect
2,new_learn,58,432,B,51.982404310548425,37.553532822717,2.5991202155274213,0.5898895141609546,B,411,Correct
2,new_learn,58,433,A,26.57297250416184,45.86143808601972,1.328648625208092,0.7203897848705133,A,272,Incorrect
2,new_learn,58,434,A,53.095999710196466,80.20961722057129,2.654799985509823,1.2599297210369806,B,353,Incorrect
2,new_learn,58,435,A,25.435292189030648,53.74191534626688,1.2717646094515325,0.8441760322083829,A,456,Correct
2,new_learn,58,436,B,72.15937151645376,42.60415505590231,3.607968575822688,0.6692245026801157,B,264,Incorrect
2,new_learn,58,437,A,38.395399142624115,49.24691720734005,1.9197699571312057,0.7735687665526213,A,613,Correct
2,new_learn,58,438,B,72.71597449874247,56.81490831315598,3.6357987249371235,0.8924464928549426,A,735,Incorrect
2,new_learn,58,439,B,37.30123347665067,26.794867456883004,1.8650616738325336,0.42089279378227934,B,720,Correct
2,new_learn,58,440,A,25.28275794512102,45.506360060908015,1.264137897256051,0.714812232294803,B,427,Incorrect
2,new_learn,58,441,A,32.688728218387816,47.999539536261054,1.6344364109193907,0.7539750039140527,A,511,Correct
2,new_learn,58,442,A,68.67771129222528,83.79240784443246,3.4338855646112645,1.3162080645533438,B,1061,Incorrect
2,new_learn,58,443,B,63.77801457021216,44.58836447267103,3.1889007285106077,0.7003923913146373,A,427,Correct
2,new_learn,58,444,B,46.401890373896926,20.851328636490557,2.3200945186948463,0.32753190430992607,B,814,Correct
2,new_learn,58,445,A,66.58263550137579,87.2352594703951,3.3291317750687894,1.3702882514309636,B,320,Incorrect
2,new_learn,58,446,A,36.23216881698014,64.86112391246954,1.811608440849007,1.018836151934958,A,549,Correct
2,new_learn,58,447,A,24.86973705991157,46.475931401064194,1.2434868529955785,0.7300422232916322,A,662,Correct
2,new_learn,58,448,B,32.53235029374261,17.320181026379384,1.6266175146871305,0.27206476735659396,A,652,Incorrect
2,new_learn,58,449,B,65.79141356111487,39.31359889424058,3.289570678055743,0.6175365673616101,B,497,Incorrect
2,new_learn,58,450,A,32.68232568297309,53.04572471314094,1.6341162841486545,0.8332402953157506,A,459,Correct
2,new_learn,58,451,A,68.07002419032914,87.93705148230424,3.403501209516457,1.381311974575772,B,567,Incorrect
2,new_learn,58,452,A,55.42297007636407,72.85946659031951,2.7711485038182038,1.1444738249230937,A,606,Correct
2,new_learn,58,453,B,71.18648183813958,47.44583269180822,3.559324091906979,0.7452773971401757,B,516,Correct
2,new_learn,58,454,B,75.05520588655028,54.384409872929474,3.7527602943275142,0.8542683126330572,B,638,Incorrect
2,new_learn,58,455,B,46.691800840941376,18.828935500897583,2.334590042047069,0.2957642272226795,A,314,Correct
2,new_learn,58,456,B,43.481379771875055,17.2903034264766,2.1740689885937527,0.2715954511147866,B,522,Correct
2,new_learn,58,457,B,56.331004658270956,42.7269265495593,2.816550232913548,0.6711529927928309,A,536,Correct
2,new_learn,58,458,A,40.24968772935464,64.19574462192935,2.0124843864677318,1.0083843984798984,B,887,Incorrect
2,new_learn,58,459,A,22.91750960563389,34.730098574955065,1.1458754802816944,0.5455391127076409,A,530,Correct
2,new_learn,58,460,B,67.93722049479206,48.647118292093865,3.396861024739603,0.7641471472237787,B,317,Correct
2,new_learn,58,461,B,78.21216544262322,58.58129352224191,3.910608272131161,0.9201928068363127,A,540,Correct
2,new_learn,58,462,A,67.58285133378271,81.91963186954143,3.379142566689136,1.2867905683306584,B,329,Correct
2,new_learn,58,463,A,35.169132957670016,67.59977119683391,1.7584566478835006,1.0618547228816215,A,637,Incorrect
2,new_learn,58,464,A,34.80206358437426,53.72896128042573,1.740103179218713,0.8439725502179795,A,253,Correct
2,new_learn,58,465,A,40.77124843153021,63.070880920282185,2.0385624215765104,0.9907150807729758,B,302,Incorrect
2,new_learn,58,466,B,49.339161949322474,20.797561760810957,2.466958097466124,0.32668733620171847,A,276,Incorrect
2,new_learn,58,467,A,47.27522572364331,58.28726711294796,2.3637612861821653,0.9155742507993163,B,332,Incorrect
2,new_learn,58,468,B,34.69771526045961,19.524174425403544,1.7348857630229804,0.30668501471126747,A,509,Incorrect
2,new_learn,58,469,A,39.15359200134382,48.213683558313534,1.9576796000671908,0.757338770346504,A,179,Incorrect
2,new_learn,58,470,B,59.5296701793111,46.665087261127,2.976483508965555,0.7330134765934162,B,309,Incorrect
2,new_learn,58,471,B,76.18653166853767,46.577143484210175,3.8093265834268832,0.731632058975962,B,544,Incorrect
2,new_learn,58,472,A,48.531965176949974,73.12033574431067,2.426598258847499,1.1485715480117276,A,425,Correct
2,new_learn,58,473,A,60.6946200338775,75.21375971585279,3.034731001693875,1.181454974860955,B,285,Correct
2,new_learn,58,474,B,74.82142451632151,64.2161342652469,3.7410712258160754,1.008704678248177,B,588,Correct
2,new_learn,58,475,A,13.933391395140792,42.47934889343614,0.6966695697570395,0.6672640520644835,A,655,Correct
2,new_learn,58,476,B,52.68447503066441,36.50628219145685,2.6342237515332205,0.5734393397127836,B,573,Correct
2,new_learn,58,477,B,64.16963604413942,50.76126518894198,3.2084818022069714,0.7973560890225171,B,560,Correct
2,new_learn,58,478,B,77.86764530081271,62.02690898829269,3.893382265040635,0.9743164080125152,B,523,Correct
2,new_learn,58,479,B,71.92556802385883,57.9743373871553,3.5962784011929414,0.910658762161116,B,453,Correct
2,new_learn,58,480,A,50.37363277944542,76.63532676798829,2.518681638972271,1.203784897898826,B,427,Incorrect
2,new_learn,58,481,A,56.0164681117587,66.57428139353662,2.8008234055879346,1.0457463667197717,A,220,Incorrect
2,new_learn,58,482,A,42.5754202856713,56.55399759769754,2.128771014283565,0.8883481169203069,B,330,Correct
2,new_learn,58,483,B,65.71363405592689,38.983920330256474,3.2856817027963445,0.6123579885883175,B,457,Correct
2,new_learn,58,484,A,42.53934355554633,62.99472319980294,2.1269671777773165,0.9895187980971171,A,524,Correct
2,new_learn,58,485,B,37.583106392686474,24.13873161237118,1.8791553196343238,0.37917030950200503,B,485,Correct
2,new_learn,58,486,B,69.1997009373857,48.55469528373676,3.4599850468692854,0.7626953700033919,B,608,Incorrect
2,new_learn,58,487,A,36.700195244639374,48.172063371651916,1.8350097622319685,0.756685001983218,107,287,Incorrect
2,new_learn,58,488,B,48.691479806272696,20.275616347845943,2.434573990313635,0.31848863682698964,A,355,Correct
2,new_learn,58,489,B,41.19049520746114,26.02983158729516,2.059524760373057,0.40887563844413016,B,553,Correct
2,new_learn,58,490,B,76.07567476776872,52.41970065961287,3.803783738388436,0.8234067324780793,A,602,Correct
2,new_learn,58,491,A,41.058115814769025,73.4372792101341,2.052905790738451,1.1535500843308986,A,582,Correct
2,new_learn,58,492,B,62.5122335205219,31.59380635701745,3.1256116760260952,0.4962743497507226,A,679,Incorrect
2,new_learn,58,493,B,39.5508596570163,28.988365213548665,1.9775429828508149,0.45534817597231203,B,1487,Incorrect
2,new_learn,58,494,A,32.65751146260268,63.37730715503846,1.6328755731301339,0.9955284128128633,A,477,Correct
2,new_learn,58,495,A,17.232842467903147,40.101645092093186,0.8616421233951573,0.6299151680909257,B,882,Incorrect
2,new_learn,58,496,B,36.083586236045576,17.420737182305647,1.8041793118022786,0.27364429976024984,A,1246,Incorrect
2,new_learn,58,497,B,40.460874978075196,16.887731079462505,2.02304374890376,0.26527185947519716,A,770,Incorrect
2,new_learn,58,498,B,75.24019296235542,54.488919440661206,3.762009648117771,0.8559099450841365,B,379,Incorrect
2,new_learn,58,499,A,44.536120153335276,66.84462950712563,2.226806007666764,1.049992984957587,B,452,Incorrect
2,new_learn,58,500,B,41.24249896408966,26.531545134967878,2.062124948204483,0.41675653642200555,A,429,Correct
2,new_learn,58,501,A,29.631071783635374,52.82328443025326,1.4815535891817686,0.8297462115228386,B,325,Incorrect
2,new_learn,58,502,B,56.113978648387004,41.948072235758005,2.80569893241935,0.6589187778405565,B,1154,Correct
2,new_learn,58,503,A,13.284512711092571,31.3670137730786,0.6642256355546285,0.4927119001727679,A,403,Correct
2,new_learn,58,504,B,80.56027605745356,66.81160648666872,4.028013802872678,1.0494742605652532,B,383,Incorrect
2,new_learn,58,505,B,61.24027862778785,36.24795577014474,3.0620139313893926,0.5693815577756725,A,488,Correct
2,new_learn,58,506,A,54.8952125153012,83.88888164686034,2.74476062576506,1.3177234714982002,A,529,Correct
2,new_learn,58,507,A,24.392146138875063,45.93112105921495,1.2196073069437532,0.7214843624538656,A,450,Incorrect
2,new_learn,58,508,B,60.0457142006306,29.453435416745894,3.0022857100315297,0.4626534816411516,B,290,Correct
2,new_learn,58,509,B,54.22581693543632,36.123912655921686,2.7112908467718158,0.5674330930938146,A,456,Correct
2,new_learn,58,510,B,61.001445958217545,51.99313104711531,3.0500722979108774,0.8167061926737443,B,748,Incorrect
2,new_learn,58,511,A,29.868924279775086,61.155212073035294,1.4934462139887543,0.9606238248868675,A,457,Correct
2,new_learn,58,512,A,29.087715520012903,50.77170444551946,1.4543857760006451,0.7975200684813809,A,582,Correct
2,new_learn,58,513,A,47.10496228009423,66.35210023787212,2.3552481140047115,1.0422563532877631,A,444,Incorrect
2,new_learn,58,514,A,25.552208207034674,45.34176981412314,1.2776104103517338,0.7122268547440436,B,144,Correct
2,new_learn,58,515,A,15.090140085582377,39.880473594847494,0.7545070042791189,0.6264410143362731,B,458,Incorrect
2,new_learn,58,516,B,47.01274423972956,27.452260628879415,2.350637211986478,0.4312191015805994,A,436,Correct
2,new_learn,58,517,B,78.47331321107512,66.02593559302623,3.9236656605537563,1.0371329710272204,B,702,Correct
2,new_learn,58,518,B,42.78240178638195,18.801824479951364,2.139120089319098,0.2953383683014997,A,481,Correct
2,new_learn,58,519,A,14.271772950873302,33.19292309904577,0.713588647543665,0.5213932167956657,B,524,Incorrect
2,new_learn,58,520,A,12.180464643829232,38.644666202549224,0.6090232321914616,0.607028997211792,A,350,Correct
2,new_learn,58,521,B,55.698938957403,40.84977763763588,2.78494694787015,0.6416668066358675,B,610,Correct
2,new_learn,58,522,A,45.82823903598474,77.19536936178471,2.291411951799237,1.2125820263906673,A,592,Correct
2,new_learn,58,523,A,39.308448919964434,64.27122262136174,1.9654224459982217,1.0095700041225208,B,510,Incorrect
2,new_learn,58,524,A,33.40279574671354,45.43520670734297,1.670139787335677,0.7136945580306119,A,382,Incorrect
2,new_learn,58,525,B,62.238414753268344,54.165596090140866,3.111920737663417,0.8508311937704929,B,636,Correct
2,new_learn,58,526,B,60.20478528209063,39.11146129909469,3.0102392641045315,0.6143613974419869,B,1495,Correct
2,new_learn,58,527,B,43.06181235422923,16.162871749500386,2.1530906177114617,0.2538857957457221,B,2289,Correct
2,new_learn,58,528,A,37.46547027837181,69.54239412759273,1.8732735139185905,1.0923693725214565,B,1212,Correct
2,new_learn,58,529,A,20.61426719414468,43.25239430806934,1.030713359707234,0.679407021041998,A,691,Incorrect
2,new_learn,58,530,A,25.829109970717226,52.00247489138102,1.2914554985358615,0.8168529654362514,B,533,Incorrect
2,new_learn,58,531,A,53.11586570978416,65.85295388287992,2.655793285489208,1.034415780678215,A,606,Correct
2,new_learn,58,532,B,32.0275188881614,13.091280983425719,1.6013759444080702,0.20563736081805,A,382,Correct
2,new_learn,58,533,B,44.664571541404584,15.058324717841202,2.2332285770702294,0.23653561154469757,A,305,Incorrect
2,new_learn,58,534,B,68.07935360770293,59.275592556326856,3.4039676803851466,0.9310988305606914,B,1039,Incorrect
2,new_learn,58,535,B,64.86990432225626,49.096795282900885,3.243495216112813,0.7712106568778171,A,638,Incorrect
2,new_learn,58,536,A,56.80572783268543,69.13933133189353,2.8402863916342715,1.0860380769319367,B,988,Incorrect
2,new_learn,58,537,B,73.25900380663487,52.57297367279033,3.662950190331743,0.8258143393390386,A,868,Correct
2,new_learn,58,538,B,79.78488027529289,50.12409315185619,3.9892440137646448,0.7873474140686093,B,415,Correct
2,new_learn,58,539,B,66.66991192201445,44.35113273897885,3.333495596100722,0.6966659639558086,B,504,Correct
2,new_learn,58,540,A,32.18332699190799,61.12442963692394,1.6091663495953994,0.9601402955111323,A,426,Correct
2,new_learn,58,541,A,61.59253386358007,70.8634834496324,3.0796266931790033,1.1131209950657353,B,460,Incorrect
2,new_learn,58,542,B,68.06905044146409,50.47357773897236,3.403452522073204,0.7928371051257445,A,482,Correct
2,new_learn,58,543,A,19.46905790640822,35.272996732753754,0.9734528953204111,0.5540669370285799,B,322,Incorrect
2,new_learn,58,544,A,20.314977335147187,42.638709879859135,1.0157488667573593,0.66976728858556,A,465,Correct
2,new_learn,58,545,A,42.36170770067947,62.81174273393346,2.1180853850339734,0.9866445476604871,A,1145,Incorrect
2,new_learn,58,546,B,84.44226286957304,68.55234290882595,4.222113143478652,1.0768176843436796,B,723,Correct
2,new_learn,58,547,B,71.46115637549518,46.809073791090555,3.573057818774759,0.7352752117171631,A,435,Incorrect
2,new_learn,58,548,A,25.11140680881431,48.499022572868505,1.2555703404407155,0.7618208651060463,107,4345,Correct
2,new_learn,58,549,B,68.61288312114698,36.00246586170537,3.430644156057349,0.5655254113112546,B,414,Correct
2,new_learn,58,550,B,62.125561627441144,36.622923549129766,3.106278081372057,0.5752715378746335,A,863,Correct
2,new_learn,58,551,A,44.948044194911475,76.75385371189398,2.2474022097455735,1.2056467147799592,B,435,Correct
2,new_learn,58,552,B,81.06439034445182,65.13474560186376,4.05321951722259,1.0231341913812764,A,422,Incorrect
2,new_learn,58,553,A,39.27747265256098,53.12491192765237,1.963873632628049,0.8344841651725874,B,321,Incorrect
2,new_learn,58,554,A,42.58537881887869,53.5536820819673,2.1292689409439345,0.8412192710069591,A,444,Correct
2,new_learn,58,555,A,35.35529085608514,48.072651973883474,1.767764542804257,0.7551234513986559,B,454,Incorrect
2,new_learn,58,556,A,50.64539382097246,80.82086169112861,2.532269691048623,1.2695311267282319,A,371,Correct
2,new_learn,58,557,A,23.963775547369416,36.99840417147362,1.1981887773684707,0.5811695736982373,B,841,Correct
2,new_learn,58,558,B,75.27856805672394,52.10427986852608,3.7639284028361972,0.8184521142777403,A,599,Incorrect
2,new_learn,58,559,B,59.25204635715814,34.180511953264364,2.962602317857907,0.5369062262415673,A,419,Correct
2,new_learn,58,560,A,42.45602262836643,54.74693077572766,2.122801131418322,0.8599627776580749,B,702,Correct
2,new_learn,58,561,A,43.82194708699305,53.43354144278681,2.1910973543496524,0.839332106259724,A,420,Incorrect
2,new_learn,58,562,A,65.0842641181177,76.7400856585045,3.254213205905885,1.2054304467030459,B,980,Incorrect
2,new_learn,58,563,A,22.89294942895253,41.246007802246666,1.1446474714476265,0.647890775507227,107,714,Incorrect
2,new_learn,58,564,B,41.05664705328281,22.792349382034082,2.0528323526641405,0.35802138688325064,A,779,Correct
2,new_learn,58,565,B,32.795818752982086,15.170865071468867,1.6397909376491042,0.23830339128564293,B,396,Correct
2,new_learn,58,566,B,83.51544138959365,66.0904393705162,4.175772069479683,1.0381461939946766,100,654,Incorrect
2,new_learn,58,567,A,22.292931533325977,48.941604132688816,1.1146465766662987,0.7687729199907751,A,1347,Correct
2,new_learn,58,568,A,37.59973227104947,59.452758501109564,1.8799866135524734,0.9338817467136697,B,750,Incorrect
2,new_learn,58,569,B,70.22158527374219,55.27379183132811,3.51107926368711,0.8682386917667597,A,554,Incorrect
2,new_learn,58,570,B,57.42600886988864,47.179870903462025,2.871300443494432,0.7410996791381556,B,413,Correct
2,new_learn,58,571,B,77.50363798027956,46.43538003665843,3.8751818990139784,0.7294052439490813,B,784,Incorrect
2,new_learn,58,572,B,44.625631774131286,19.397510968372117,2.231281588706564,0.3046953897808264,A,571,Correct
2,new_learn,58,573,A,23.97620576558126,40.357909242730045,1.198810288279063,0.6339405559560216,B,570,Correct
2,new_learn,58,574,B,88.06620764211367,64.79328154898197,4.403310382105683,1.0177704865812842,B,514,Correct
2,new_learn,58,575,A,18.009805968370124,33.03286356353307,0.9004902984185063,0.5188790074911472,A,475,Incorrect
2,new_learn,58,576,B,61.75515699312073,44.52472149593158,3.0877578496560365,0.699392689773751,B,363,Correct
2,new_learn,58,577,B,37.14338746371888,19.21650099201477,1.857169373185944,0.30185209172107286,B,420,Correct
2,new_learn,58,578,B,36.25877153910197,15.738753917722807,1.8129385769550987,0.24722376842287774,B,396,Correct
2,new_learn,58,579,B,50.82112379453339,41.54883914467349,2.5410561897266692,0.6526476391104512,B,411,Correct
2,new_learn,58,580,A,38.86260409026274,55.6697792501107,1.9431302045131371,0.8744588475955664,B,450,Correct
2,new_learn,58,581,A,37.34778882336561,66.12703809467696,1.8673894411682808,1.0387210854094477,B,548,Incorrect
2,new_learn,58,582,A,40.947556026161244,68.27917267824849,2.047377801308062,1.072526736395872,B,798,Correct
2,new_learn,58,583,A,37.73537169665409,66.68264070838845,1.8867685848327045,1.047448470857204,B,562,Incorrect
2,new_learn,58,584,B,63.82831004553157,37.07143808759513,3.1914155022765787,0.5823167877699885,A,881,Incorrect
2,new_learn,58,585,A,38.84053548640247,58.010989614340104,1.9420267743201236,0.9112344939994234,B,581,Correct
2,new_learn,58,586,B,59.68400442620178,52.11201726337181,2.9842002213100893,0.8185736529917669,A,816,Incorrect
2,new_learn,58,587,A,37.8065821801829,65.49422026192235,1.890329109009145,1.028780806137235,B,725,Correct
2,new_learn,58,588,A,33.224065026530646,61.42699594850598,1.6612032513265322,0.9648929960195818,B,828,Correct
2,new_learn,58,589,B,83.83470437849596,63.41237649250054,4.191735218924798,0.9960792806775491,B,886,Correct
2,new_learn,58,590,B,36.756897434845385,21.013704131946355,1.837844871742269,0.33008249262816075,A,4713,Correct
2,new_learn,58,591,A,19.734005008694712,39.159683548328886,0.9867002504347355,0.6151188707616555,B,1265,Incorrect
2,new_learn,58,592,B,79.44337546180071,58.51278081670043,3.9721687730900355,0.9191166117742792,B,560,Incorrect
2,new_learn,58,593,A,26.75921342058149,37.02397571690523,1.3379606710290743,0.5815712505945817,A,679,Correct
2,new_learn,58,594,A,25.988262834137178,48.47851184090278,1.299413141706859,0.7614986832817299,A,386,Correct
2,new_learn,58,595,B,52.25294619486504,28.643422338720384,2.612647309743252,0.4499298259649686,B,324,Correct
2,new_learn,58,596,A,66.68957890257121,84.1021406255534,3.3344789451285606,1.3210733357020712,A,405,Correct
2,new_learn,58,597,B,43.78495650681258,30.189799732332048,2.189247825340629,0.4742202652622073,A,1098,Incorrect
2,new_learn,58,598,A,64.5635207544604,87.65236037453425,3.2281760377230198,1.3768400571122095,A,471,Correct
2,new_learn,58,599,A,64.35059582015401,85.79444730098555,3.2175297910077005,1.3476560267978643,A,1871,Correct
2,new_learn,58,600,A,87.34980587867942,35.304504021905686,4.3674902939339715,0.554561852369251,B,1031,Incorrect
2,new_learn,58,601,B,19.099154698426368,61.20897728660304,0.9549577349213183,0.961468366886683,A,1581,Incorrect
2,new_learn,58,602,A,49.24691720734005,61.604600857375885,2.4623458603670025,0.9676828074043177,B,541,Incorrect
2,new_learn,58,603,B,16.478704028930842,55.16929393159615,0.8239352014465422,0.8665972425961921,B,1019,Correct
2,new_learn,58,604,A,64.27122262136174,60.691551080035566,3.2135611310680874,0.953340655040047,A,428,Correct
2,new_learn,58,605,B,12.16193731677069,61.11892789362098,0.6080968658385345,0.9600538743294198,B,814,Correct
2,new_learn,58,606,A,46.475931401064194,75.13026294008843,2.3237965700532097,1.1801434105742563,A,575,Correct
2,new_learn,58,607,B,50.76126518894198,35.83036395586058,2.538063259447099,0.5628220408959006,A,2541,Incorrect
2,new_learn,58,608,B,44.626827152147456,32.16331745008256,2.2313413576073726,0.5052202090812788,B,1213,Correct
2,new_learn,58,609,A,80.81468502724829,50.30400698400983,4.040734251362414,0.7901734939354748,A,804,Correct
2,new_learn,58,610,B,12.806889533670557,69.68297554622376,0.6403444766835278,1.0945776202814688,B,872,Correct
2,new_learn,58,611,B,47.371032004253344,39.32732352244601,2.368551600212667,0.6177521533173272,A,620,Incorrect
2,new_learn,58,612,A,53.06467596746765,70.91882835199755,2.6532337983733827,1.113990350759155,A,1092,Correct
2,new_learn,58,613,A,56.4615315526356,50.96298718644868,2.8230765776317797,0.8005247307496897,100,570,Incorrect
2,new_learn,58,614,B,24.83517493807712,51.44443902190777,1.241758746903856,0.8080873584963677,A,962,Incorrect
2,new_learn,58,615,B,36.57342063767841,54.98399826454296,1.8286710318839203,0.8636866250644105,B,1017,Correct
2,new_learn,58,616,B,25.19808492380696,47.36387981138798,1.259904246190348,0.743990084304832,A,638,Incorrect
2,new_learn,58,617,B,62.97148721145632,17.428422997303656,3.1485743605728156,0.2737650282599228,A,1539,Incorrect
2,new_learn,58,618,A,80.85315243876019,36.09853202941656,4.042657621938009,0.5670344151449547,B,355,Incorrect
2,new_learn,58,619,B,39.31359889424058,34.208586438885135,1.965679944712029,0.5373472192304649,A,1376,Incorrect
2,new_learn,58,620,A,73.5753566213418,47.48971108414857,3.67876783106709,0.7459666373153145,A,1239,Correct
2,new_learn,58,621,A,60.10649735416093,53.54258083789382,3.0053248677080466,0.8410448930728243,B,385,Incorrect
2,new_learn,58,622,A,61.39929804970597,50.823207450776046,3.069964902485298,0.7983290757961403,A,1249,Correct
2,new_learn,58,623,B,49.096795282900885,35.13009567774374,2.454839764145044,0.5518222525055314,B,507,Correct
2,new_learn,58,624,B,26.162597911158166,44.004376770594824,1.3081298955579084,0.6912191339414901,A,729,Incorrect
2,new_learn,58,625,A,43.996906950236855,75.42773079196276,2.1998453475118427,1.184816024664894,B,363,Incorrect
2,new_learn,58,626,A,33.05181034251725,78.87297137684075,1.6525905171258626,1.2389337372214047,A,626,Correct
2,new_learn,58,627,A,51.42245110940484,71.83966567173292,2.5711225554702417,1.128454829553315,B,504,Incorrect
2,new_learn,58,628,A,81.890427568538,35.69556846283257,4.094521378426901,0.5607046782427315,A,317,Correct
2,new_learn,58,629,B,37.759005721717024,50.99339973953711,1.887950286085851,0.8010024500164873,A,243,Incorrect
2,new_learn,58,630,B,13.091280983425719,67.97248111183859,0.654564049171286,1.0677092365361156,B,247,Correct
2,new_learn,58,631,A,64.75795570310544,57.874801094965974,3.2378977851552717,0.909095249739578,B,274,Incorrect
2,new_learn,58,632,A,36.99840417147362,76.03622445263059,1.849920208573681,1.1943742207354444,B,824,Incorrect
2,new_learn,58,633,B,40.553809234094444,27.774045510327937,2.0276904617047222,0.43627368667857414,A,250,Incorrect
2,new_learn,58,634,B,54.46866070223067,29.238080552105018,2.7234330351115337,0.4592706953377986,B,280,Correct
2,new_learn,58,635,B,66.02043283817125,21.520044836573675,3.3010216419085623,0.33803607381751405,A,1915,Incorrect
2,new_learn,58,636,B,45.095348013243814,30.679906471511202,2.2547674006621907,0.48191884391860773,B,390,Correct
2,new_learn,58,637,A,57.21054145511652,60.85733900678339,2.8605270727558256,0.9559448457036713,B,827,Incorrect
2,new_learn,58,638,B,68.55234290882595,15.557737130426958,3.4276171454412974,0.24438036337715235,A,438,Incorrect
2,new_learn,58,639,B,33.916571955545955,34.361364616846544,1.6958285977772976,0.5397470532380269,B,546,Correct
2,new_learn,58,640,A,71.01401565253656,61.65562397830408,3.5507007826268278,0.9684842767136739,B,764,Incorrect
2,new_learn,58,641,B,52.57297367279033,26.740996193365135,2.6286486836395166,0.4200465859537426,B,598,Correct
2,new_learn,58,642,B,29.045239261028467,61.48641998623022,1.4522619630514233,0.9658264266213874,A,712,Incorrect
2,new_learn,58,643,A,55.37554166763883,53.96912827812219,2.768777083381941,0.8477450845959691,A,882,Correct
2,new_learn,58,644,A,39.879646255663744,82.41940482634087,1.9939823127831873,1.2946409835783779,B,661,Incorrect
2,new_learn,58,645,A,37.38028544766618,82.90373172235837,1.8690142723833092,1.3022487726707008,A,517,Correct
2,new_learn,58,646,A,69.01249691441436,57.57441951965973,3.4506248457207174,0.9043768669882989,B,1164,Incorrect
2,new_learn,58,647,B,33.32985184711049,35.91680266234805,1.6664925923555245,0.5641798169223348,A,570,Incorrect
2,new_learn,58,648,A,72.64604961962658,40.702618691925096,3.632302480981329,0.6393552393220925,A,765,Correct
2,new_learn,58,649,B,57.9743373871553,28.07443197614117,2.8987168693577647,0.4409921462497573,B,651,Correct
2,new_learn,58,650,A,88.87212780831456,32.876144392987,4.443606390415727,0.5164172685168262,A,703,Correct
2,new_learn,58,651,A,48.213683558313534,60.84640799865618,2.4106841779156767,0.9557731418295274,B,398,Incorrect
2,new_learn,58,652,B,45.2172051153141,40.156879870753905,2.260860255765705,0.6307827939652415,A,571,Incorrect
2,new_learn,58,653,B,48.62333643989504,24.469458226390117,2.431166821994752,0.3843653510067477,B,466,Correct
2,new_learn,58,654,A,73.71664215555538,37.42189743476832,3.685832107777769,0.5878217903222944,A,388,Correct
2,new_learn,58,655,A,56.23799166358754,59.99951328103023,2.811899583179377,0.9424701507132391,B,495,Incorrect
2,new_learn,58,656,A,42.47934889343614,86.06660860485921,2.123967444671807,1.351931126562069,A,348,Correct
2,new_learn,58,657,A,64.44470879408125,49.1140314775281,3.2222354397040625,0.7714814023899006,A,876,Correct
2,new_learn,58,658,A,64.56414634185144,49.03110823956945,3.228207317092572,0.7701788472139868,A,566,Correct
2,new_learn,58,659,A,32.16745914785923,86.06455971914774,1.6083729573929617,1.3518989427405728,B,344,Incorrect
2,new_learn,58,660,B,58.461672230027105,33.08564615527503,2.923083611501355,0.5197081145034171,A,482,Incorrect
2,new_learn,58,661,B,48.630702501792655,44.60716642604589,2.4315351250896327,0.7006877317076152,B,543,Correct
2,new_learn,58,662,B,41.23936416918786,28.96896258556768,2.061968208459393,0.455043400204685,B,430,Correct
2,new_learn,58,663,B,41.94901179645559,43.56857152563802,2.0974505898227793,0.6843735211617292,B,398,Correct
2,new_learn,58,664,B,42.58239884954854,25.396164898734384,2.129119942477427,0.39892202537609456,B,961,Correct
2,new_learn,58,665,B,14.61489962933743,58.14464549193622,0.7307449814668715,0.9133339556152484,A,605,Incorrect
2,new_learn,58,666,B,61.791474176008606,28.7858617552361,3.08957370880043,0.45216725908750555,B,513,Correct
2,new_learn,58,667,A,61.46590630908366,71.2209171920257,3.0732953154541827,1.1187355511619745,A,619,Correct
2,new_learn,58,668,A,55.83408692210061,55.031637518728296,2.79170434610503,0.8644349407192664,B,592,Incorrect
2,new_learn,58,669,B,59.275592556326856,31.920646392297073,2.9637796278163426,0.50140834101939,A,624,Incorrect
2,new_learn,58,670,B,37.89240628211884,45.09950247760467,1.894620314105942,0.7084213283209876,B,506,Correct
2,new_learn,58,671,B,32.90895193768754,49.791852909383486,1.645447596884377,0.7821285965437137,A,416,Incorrect
2,new_learn,58,672,A,65.87916108925508,51.7782823461667,3.2939580544627542,0.8133313571710767,A,747,Correct
2,new_learn,58,673,A,54.74693077572766,57.54397737163357,2.737346538786383,0.9038986828453065,B,277,Incorrect
2,new_learn,58,674,B,38.54456821533147,40.87161776278245,1.9272284107665738,0.6420098705194373,A,972,Incorrect
2,new_learn,58,675,A,76.4527253555631,37.59400458692642,3.822636267778155,0.5905252431465452,A,1012,Correct
2,new_learn,58,676,A,81.90714890356321,43.64765195968053,4.095357445178161,0.6856157137148825,A,750,Correct
2,new_learn,58,677,A,57.85776309839131,58.991462136805275,2.8928881549195653,0.9266357203675395,B,560,Incorrect
2,new_learn,58,678,A,76.27046215940115,35.79406700700383,3.813523107970058,0.5622518897565202,A,455,Correct
2,new_learn,58,679,A,59.604104787311556,49.58878464692034,2.980205239365578,0.7789388077360562,B,382,Incorrect
2,new_learn,58,680,B,26.812394206614144,54.73699188201288,1.3406197103307074,0.8598066578806791,A,462,Incorrect
2,new_learn,58,681,A,84.72551453668352,39.84327253634937,4.236275726834176,0.6258566614758557,A,564,Correct
2,new_learn,58,682,B,34.087552377214365,55.58186433119431,1.7043776188607183,0.8730778832785229,B,713,Correct
2,new_learn,58,683,A,79.00460893071202,44.96232830325424,3.9502304465356013,0.7062666014289797,A,849,Correct
2,new_learn,58,684,A,86.77183802023796,41.328322379846924,4.338591901011898,0.6491837698685886,A,970,Correct
2,new_learn,58,685,B,23.528261164130907,45.20976461062036,1.1764130582065453,0.7101533218562437,B,690,Correct
2,new_learn,58,686,A,52.16778487876061,77.95967724768971,2.6083892439380305,1.2245877465878667,B,529,Incorrect
2,new_learn,58,687,A,44.388610447824135,76.75860853818972,2.2194305223912068,1.205721403416758,A,1172,Correct
2,new_learn,58,688,B,33.20358507585621,56.95118543117379,1.6601792537928106,0.8945871288190281,A,806,Incorrect
2,new_learn,58,689,B,45.1487302847318,31.85010141965472,2.25743651423659,0.5003002231803856,A,706,Incorrect
2,new_learn,58,690,B,39.88000754029311,40.13081400396853,1.9940003770146553,0.6303733522872296,B,475,Correct
2,new_learn,58,691,B,44.484002708807964,36.9299541226119,2.224200135440398,0.5800943628450282,B,786,Correct
2,new_learn,58,692,B,38.294035644808766,54.254668026503424,1.9147017822404382,0.8522303324750808,B,675,Correct
2,new_learn,58,693,B,59.25764183888769,15.346317691819223,2.962882091944385,0.24105939460137168,A,1029,Incorrect
2,new_learn,58,694,A,44.80256566957854,84.564561834262,2.240128283478927,1.3283370310627864,A,940,Correct
2,new_learn,58,695,A,64.29322210512018,60.07750381061359,3.2146611052560092,0.9436952230871823,B,737,Incorrect
2,new_learn,58,696,B,39.670201820133855,39.57536549741062,1.9835100910066927,0.6216483875489809,A,674,Incorrect
2,new_learn,58,697,A,59.17817351576679,69.81323472985471,2.958908675788339,1.0966237267532568,B,521,Incorrect
2,new_learn,58,698,A,83.79240784443246,31.322288707774717,4.189620392221623,0.49200936048981797,A,335,Correct
2,new_learn,58,699,A,62.52561458858864,61.71938352425883,3.1262807294294315,0.9694858093195122,B,445,Incorrect
2,new_learn,58,700,A,41.57120271395655,76.01776415890737,2.0785601356978276,1.1940842471197244,A,1108,Correct
2,new_learn,58,701,B,56.81490831315598,27.28402550125753,2.840745415657799,0.4285764703755362,A,607,Incorrect
2,new_learn,58,702,A,78.34737341218386,36.37420019980049,3.917368670609193,0.571364600639488,B,707,Incorrect
2,new_learn,58,703,A,33.440152642059104,89.8583793950263,1.672007632102955,1.4114921228544952,A,417,Correct
2,new_learn,58,704,B,27.87565230671239,51.83704551489779,1.3937826153356196,0.814254406867013,A,141,Incorrect
2,new_learn,58,705,A,75.21540485031556,47.823757099478016,3.760770242515778,0.7512138198539143,A,413,Correct
2,new_learn,58,706,A,48.32172895153265,71.0080892455457,2.416086447576632,1.115392457596274,B,53,Incorrect
2,new_learn,58,707,B,20.008264050740298,53.31587349943662,1.000413202537015,0.8374837825277639,107,364,Incorrect
2,new_learn,58,708,B,54.63882010729013,27.091923100701237,2.7319410053645066,0.42555893292391306,B,310,Correct
2,new_learn,58,709,A,53.94254380808478,72.69113608841108,2.697127190404239,1.1418296955822407,A,642,Correct
2,new_learn,58,710,B,38.41385475638741,36.325482861098244,1.9206927378193706,0.5705993504726409,B,626,Correct
2,new_learn,58,711,A,59.5894313807133,47.66352844758604,2.979471569035665,0.7486969540755221,B,657,Incorrect
2,new_learn,58,712,B,65.1447977623607,17.108666015053572,3.2572398881180344,0.2687422973280683,A,457,Incorrect
2,new_learn,58,713,A,62.99472319980294,57.46065644445367,3.149736159990147,0.9025898807817133,B,338,Incorrect
2,new_learn,58,714,B,44.3152087629378,46.01016162202446,2.21576043814689,0.7227259287111554,A,481,Incorrect
2,new_learn,58,715,B,44.68074718437438,38.02954166191293,2.234037359218719,0.5973666435222632,B,635,Correct
2,new_learn,58,716,B,11.544722464159179,62.809617876852315,0.5772361232079589,0.9866111704835068,A,489,Incorrect
2,new_learn,58,717,A,46.24004730265075,69.04685897014222,2.312002365132537,1.0845855244702467,A,712,Correct
2,new_learn,58,718,B,24.775103121439177,56.50537431679845,1.2387551560719587,0.8875843442099769,B,389,Correct
2,new_learn,58,719,A,39.159683548328886,80.26599499130529,1.9579841774164441,1.2608153009887992,A,1104,Correct
2,new_learn,58,720,A,84.36894895184567,35.16685148642435,4.2184474475922835,0.5523996113981702,B,695,Incorrect
2,new_learn,58,721,B,39.195919629196005,43.09929484426585,1.9597959814598003,0.67700214028823,B,1072,Correct
2,new_learn,58,722,B,19.524174425403544,65.3022847395404,0.9762087212701772,1.025765890001845,B,1138,Correct
2,new_learn,58,723,A,52.467575108929466,77.71969543110428,2.623378755446473,1.2208181210279672,A,586,Correct
2,new_learn,58,724,A,52.63403762986548,65.11749484718953,2.6317018814932744,1.0228632171605092,A,731,Correct
2,new_learn,58,725,A,50.78817881138134,76.62088176472912,2.539408940569067,1.2035579963182257,A,1146,Correct
2,new_learn,58,726,B,49.8666792758703,26.803900702251752,2.493333963793515,0.421034687668722,A,736,Incorrect
2,new_learn,58,727,B,22.790954635377474,59.36675282653558,1.1395477317688738,0.9325307727366264,B,585,Correct
2,new_learn,58,728,A,64.69072395621522,65.0365017916382,3.234536197810761,1.0215909812189499,A,960,Correct
2,new_learn,58,729,B,41.8243166411127,26.15224590968718,2.091215832055635,0.4107985181237348,B,540,Correct
2,new_learn,58,730,B,59.32659210023556,18.683716193179137,2.9663296050117776,0.2934831276712412,B,732,Correct
2,new_learn,58,731,A,44.62775378560923,79.53860794895579,2.2313876892804614,1.2493895320459911,A,473,Correct
2,new_learn,58,732,B,28.930633354703076,59.10015667361267,1.4465316677351538,0.9283430901591369,B,396,Correct
2,new_learn,58,733,A,68.27917267824849,59.052443973838756,3.413958633912424,0.9275936208236734,B,798,Incorrect
2,new_learn,58,734,B,36.00246586170537,31.38711687885302,1.8001232930852682,0.49302767901984423,A,547,Incorrect
2,new_learn,58,735,B,63.808256227511436,19.434576916008865,3.190412811375572,0.30527762032479616,B,297,Correct
2,new_learn,58,736,B,51.36795685233144,41.5392771408508,2.568397842616572,0.6524974395056365,A,404,Incorrect
2,new_learn,58,737,A,58.28726711294796,52.72477427635669,2.914363355647398,0.8281988176439115,B,1214,Incorrect
2,new_learn,58,738,A,43.47036980878029,64.21432220300628,2.1735184904390144,1.0086762144410624,A,502,Correct
2,new_learn,58,739,A,81.92656172707869,45.88364054854932,4.096328086353934,0.7207385403363864,B,584,Incorrect
2,new_learn,58,740,B,55.27379183132811,29.778414726257807,2.763689591566406,0.4677582446978082,A,317,Incorrect
2,new_learn,58,741,A,74.35772872854369,57.889489631395215,3.7178864364271846,0.9093259767302685,B,285,Incorrect
2,new_learn,58,742,A,71.73238530853668,50.54771700279935,3.5866192654268336,0.7940016819586516,A,269,Correct
2,new_learn,58,743,B,64.88563221393915,19.774145428359105,3.2442816106969574,0.3106115500437458,B,899,Correct
2,new_learn,58,744,B,53.53356710940795,33.62403832174424,2.676678355470397,0.5281651588780669,A,711,Incorrect
2,new_learn,58,745,B,36.622923549129766,37.874438372558856,1.8311461774564883,0.5949302867503513,B,522,Correct
2,new_learn,58,746,B,33.582102073440474,38.88050946085696,1.6791051036720237,0.6107336144502834,B,395,Correct
2,new_learn,58,747,B,36.123912655921686,45.77418306456368,1.8061956327960842,0.719019186198538,B,625,Correct
2,new_learn,58,748,A,61.12442963692394,67.81667300809201,3.0562214818461975,1.0652618085656154,B,366,Incorrect
2,new_learn,58,749,A,78.8141089604064,42.25645735436645,3.9407054480203203,0.6637628799560401,A,505,Correct
2,new_learn,58,750,B,56.81638596319907,33.035254320147644,2.8408192981599534,0.5189165614082315,B,478,Correct
2,new_learn,58,751,B,40.40173360541597,26.847457916711065,2.020086680270799,0.42171888279350306,B,465,Correct
2,new_learn,58,752,A,71.8504051352237,56.840889108883594,3.5925202567611847,0.8928545982399041,B,653,Incorrect
2,new_learn,58,753,B,39.10266861018451,45.88316224428459,1.9551334305092254,0.7207310271505651,A,368,Incorrect
2,new_learn,58,754,A,55.29015780639616,69.22422205159457,2.7645078903198077,1.0873715372387902,B,279,Incorrect
2,new_learn,58,755,B,27.24458055644157,55.26155654395318,1.3622290278220786,0.8680465003221015,A,157,Incorrect
2,new_learn,58,756,B,38.96808561342083,46.33789901718689,1.9484042806710418,0.7278740156759002,B,852,Correct
2,new_learn,58,757,B,45.54691029812686,27.049813436805124,2.2773455149063433,0.4248974758702072,A,1457,Incorrect
2,new_learn,58,758,B,42.95532524596527,27.298435132625713,2.1477662622982634,0.4288028163357723,B,190,Correct
2,new_learn,58,759,B,50.12003646596742,26.688611250672707,2.5060018232983707,0.4192237251981364,A,276,Incorrect
2,new_learn,58,760,A,63.913326882064496,62.26081245239325,3.1956663441032247,0.9779905550348528,A,518,Correct
2,new_learn,58,761,B,31.474868460456,45.23430661541289,1.5737434230228002,0.7105388267660466,B,286,Correct
2,new_learn,58,762,A,86.21659846248888,41.240909327028675,4.310829923124444,0.6478106888457803,A,530,Correct
2,new_learn,58,763,A,35.99982160279768,83.0254914591914,1.799991080139884,1.304161370144389,B,301,Incorrect
2,new_learn,58,764,A,78.36081029242736,36.26790705786813,3.9180405146213677,0.5696949518703797,A,2696,Correct
2,new_learn,58,765,A,42.11976669341418,73.04848545264552,2.105988334670709,1.1474429262694603,B,506,Incorrect
2,new_learn,58,766,A,86.47198292397572,33.01000126624801,4.323599146198785,0.5185198873651726,A,1067,Correct
2,new_learn,58,767,A,56.8086909537272,65.63834640639786,2.8404345476863604,1.0310447343206073,B,421,Incorrect
2,new_learn,58,768,B,44.53814415812859,29.81936672662337,2.2269072079064296,0.4684015172152995,A,732,Incorrect
2,new_learn,58,769,B,23.381119052768106,45.487558950851756,1.1690559526384052,0.7145169051486424,A,1649,Incorrect
2,new_learn,58,770,A,89.19461179488447,34.64472363468917,4.459730589744223,0.5441980462819409,B,624,Incorrect
2,new_learn,58,771,A,81.11753353730006,46.67737142623419,4.055876676865003,0.7332064358076972,A,1831,Correct
2,new_learn,58,772,A,35.272996732753754,80.53094209359178,1.7636498366376878,1.2649770803394649,B,814,Incorrect
2,new_learn,58,773,A,72.52940398343378,56.01090528417507,3.6264701991716892,0.8798172428083905,A,568,Correct
2,new_learn,58,774,B,27.35727548450049,48.205820027255285,1.3678637742250246,0.7572152502894846,A,979,Incorrect
2,new_learn,58,775,B,52.14083244092102,33.00166224304694,2.607041622046051,0.5183888982950395,B,405,Correct
2,new_learn,58,776,B,38.93297472852353,53.73648070458804,1.9466487364261766,0.8440906650565173,B,418,Correct
2,new_learn,58,777,B,57.102313576699004,15.890161137432798,2.85511567883495,0.24960206746858457,B,695,Correct
2,new_learn,58,778,A,47.21084688418402,72.604262340722,2.3605423442092013,1.1404650859445917,B,454,Incorrect
2,new_learn,58,779,A,35.402735582090585,79.80143409509716,1.7701367791045295,1.2535179954954363,A,362,Correct
2,new_learn,58,780,B,45.68056660611631,42.648947097015636,2.2840283303058153,0.6699280944166203,A,790,Incorrect
2,new_learn,58,781,B,50.37434626407662,30.178876450239216,2.518717313203831,0.4740486827483277,B,161,Correct
2,new_learn,58,782,A,86.79924768734006,38.27324757524691,4.339962384367003,0.6011947670570953,B,708,Incorrect
2,new_learn,58,783,A,69.70192439604435,51.8023868869547,3.4850962198022173,0.8137099904123656,A,732,Correct
2,new_learn,58,784,B,17.098126277899965,54.80104420594025,0.8549063138949983,0.8608127894321569,B,574,Correct
2,new_learn,58,785,A,69.42203018703157,55.954149499699575,3.4711015093515782,0.8789257250306058,B,814,Incorrect
2,new_learn,58,786,A,48.47851184090278,74.01173716586283,2.4239255920451392,1.1625736487984664,A,730,Correct
2,new_learn,58,787,A,72.85946659031951,44.57702992363593,3.642973329515976,0.7002143486347351,B,464,Incorrect
2,new_learn,58,788,B,32.446879505718044,54.193923937685746,1.6223439752859021,0.8512761665591878,B,529,Correct
2,new_learn,58,789,B,19.767379688975968,51.808312178110896,0.9883689844487984,0.813803064668199,A,315,Incorrect
2,new_learn,58,790,B,30.189799732332048,56.21504349318742,1.5094899866166025,0.8830238382971416,B,360,Correct
2,new_learn,58,791,A,53.72896128042573,65.19793641562575,2.6864480640212864,1.0241267903627214,B,717,Incorrect
2,new_learn,58,792,B,55.28692039785831,18.244369241145534,2.7643460198929155,0.286581881886812,A,521,Incorrect
2,new_learn,58,793,B,59.08620960565581,20.843561277206263,2.954310480282791,0.32740989491559935,A,638,Incorrect
2,new_learn,58,794,A,76.7400856585045,34.9157358818823,3.837004282925225,0.5484550967060149,A,1085,Correct
2,new_learn,58,795,B,52.11201726337181,40.31599557379822,2.6056008631685903,0.6332821775840155,B,822,Correct
2,new_learn,58,796,A,51.73268562878252,74.77540061634897,2.586634281439126,1.1745692462277781,A,848,Correct
2,new_learn,58,797,A,75.48485108831568,39.14469559250724,3.774242554415784,0.6148834405021475,A,838,Correct
2,new_learn,58,798,B,21.20965945196592,60.46043209925082,1.060482972598296,0.9497102465793544,B,1454,Correct
2,new_learn,58,799,B,15.738753917722804,63.74122846089803,0.7869376958861402,1.0012448753177294,B,5866,Correct
2,new_learn,58,800,A,43.119558258170805,75.18363731577485,2.1559779129085404,1.1809818133069883,A,795,Correct
2,new_learn,58,801,A,81.79858865452786,34.26681469364914,4.089929432726393,0.5382618665174544,A,831,Correct
2,new_learn,58,802,B,20.851328636490557,53.598109626103074,1.042566431824528,0.8419171372383291,B,1054,Correct
2,new_learn,58,803,A,61.76911056443757,55.137900767211036,3.088455528221879,0.8661041199231662,A,936,Correct
2,new_learn,58,804,B,35.85483257289001,35.28227677591107,1.7927416286445006,0.55421270760562,A,660,Incorrect
2,new_learn,58,805,B,46.380801782167644,29.6026484087228,2.319040089108382,0.4649973138382256,B,793,Correct
2,new_learn,58,806,B,27.836928663687836,62.14376665411692,1.3918464331843918,0.9761520039348602,A,756,Incorrect
2,new_learn,58,807,B,28.114825226396654,58.807376402721644,1.4057412613198326,0.9237441084184005,B,247,Correct
2,new_learn,58,808,A,48.941604132688816,77.70706846667403,2.447080206634441,1.2206197771345109,A,643,Correct
2,new_learn,58,809,A,31.3670137730786,86.71548728890743,1.56835068865393,1.3621236890964532,A,1088,Correct
2,new_learn,58,810,B,63.37287968642955,22.07036905784858,3.1686439843214775,0.3466805464707629,A,654,Incorrect
2,new_learn,58,811,B,26.794867456883004,62.69876652334933,1.3397433728441501,0.9848699214944795,B,603,Correct
2,new_learn,58,812,A,35.366870687427465,84.40442647269998,1.7683435343713734,1.3258216306854709,A,593,Correct
2,new_learn,58,813,A,66.79524246735762,66.10737886416577,3.3397621233678816,1.0384122789387018,B,555,Incorrect
2,new_learn,58,814,B,42.7269265495593,43.668995341729044,2.136346327477965,0.6859509747761142,A,417,Incorrect
2,new_learn,58,815,A,88.89185659781657,34.64519000615249,4.444592829890828,0.544205372027756,A,1198,Correct
2,new_learn,58,816,B,40.56449891718057,27.627075639629666,2.0282249458590287,0.4339650893481505,B,332,Correct
2,new_learn,58,817,B,41.99881430628265,35.772339569252665,2.099940715314132,0.5619105959624182,A,955,Incorrect
2,new_learn,58,818,B,19.21650099201477,62.85661253628112,0.9608250496007384,0.9873493608676043,A,770,Incorrect
2,new_learn,58,819,A,33.19292309904577,85.7282270491267,1.6596461549522885,1.3466158415140712,B,440,Incorrect
2,new_learn,58,820,A,76.75385371189398,55.051955805088525,3.837692685594699,0.8647540996150804,A,739,Correct
2,new_learn,58,821,A,67.00703983656724,54.38282434173702,3.350351991828362,0.854243407167326,A,792,Correct
2,new_learn,58,822,B,47.09521153410161,38.262077013693,2.3547605767050808,0.6010193002865242,A,576,Incorrect
2,new_learn,58,823,B,11.79671286019169,67.38114384237487,0.5898356430095845,1.0584205324284102,B,855,Correct
2,new_learn,58,824,A,78.50840826976646,46.1496719503105,3.925420413488323,0.7249173518233719,A,650,Correct
2,new_learn,58,825,B,34.98062639003322,48.737365121944265,1.7490313195016611,0.7655647411121175,B,4052,Correct
2,new_learn,58,826,B,66.86182087859441,17.462648412777,3.3430910439297206,0.27430263982900843,A,884,Incorrect
2,new_learn,58,827,A,57.241881323210755,66.30675445593413,2.862094066160538,1.0415440634107245,A,2651,Correct
2,new_learn,58,828,A,67.6287770896572,65.42724051278508,3.38143885448286,1.0277286906980903,B,864,Incorrect
2,new_learn,58,829,A,40.7698539294315,76.25329158296776,2.038492696471575,1.1977839032454596,A,4301,Correct
2,new_learn,58,830,A,64.58375871685647,61.21191900943566,3.229187935842823,0.9615145753608823,B,1187,Incorrect
2,new_learn,58,831,B,42.889878722199796,24.851228754031013,2.1444939361099897,0.39036218843171633,A,520,Incorrect
2,new_learn,58,832,B,55.53888522166683,18.553237869630365,2.7769442610833415,0.29143357895767347,107,306,Correct
2,new_learn,58,833,A,87.2352594703951,33.41736449862421,4.361762973519756,0.5249187340560508,100,93,Incorrect
2,new_learn,58,834,B,24.77491541343753,54.46341644206507,1.2387457706718765,0.8555093449189657,107,219,Incorrect
2,new_learn,58,835,A,52.018891494255236,54.60758240642832,2.600944574712762,0.8577738985916723,107,283,Correct
2,new_learn,58,836,A,75.21375971585279,39.3053799661225,3.7606879857926394,0.6174074647406294,B,286,Incorrect
2,new_learn,58,837,B,26.33469406969543,57.26369351604316,1.3167347034847716,0.8994959943370933,B,388,Correct
2,new_learn,58,838,A,48.172063371651916,63.299804755360626,2.4086031685825957,0.994311007965546,B,231,Incorrect
2,new_learn,58,839,B,66.02593559302623,21.526686788924877,3.3012967796513117,0.3381404053610742,B,135,Correct
2,new_learn,58,840,B,48.47026335993592,20.681607359645582,2.4235131679967963,0.3248659287274558,A,368,Incorrect
2,new_learn,58,841,B,59.54586637128772,30.574322941400013,2.977293318564386,0.4802603417059208,A,931,Incorrect
2,new_learn,58,842,A,53.43354144278681,56.17805291300695,2.6716770721393406,0.8824427916224066,B,787,Incorrect
2,new_learn,58,843,A,42.73749555996874,78.03366024465424,2.1368747779984374,1.2257498687866382,A,1312,Correct
2,new_learn,58,844,A,80.53331578136097,40.198598578960315,4.026665789068049,0.6314381099013341,A,973,Correct
2,new_learn,58,845,B,18.801824479951364,57.21759821361805,0.9400912239975682,0.8987719310197747,B,894,Correct
2,new_learn,58,846,A,53.4694789061186,64.41737880978242,2.6734739453059304,1.0118658201616162,A,730,Correct
2,new_learn,58,847,B,60.488548891516345,20.513913621332435,3.0244274445758172,0.3222318016457678,B,1281,Correct
2,new_learn,58,848,A,47.08309854122875,64.31791330411455,2.3541549270614377,1.0103034196521576,A,742,Correct
2,new_learn,58,849,B,58.03531151954157,25.86122529276946,2.9017655759770786,0.40622717696297533,B,879,Correct
2,new_learn,58,850,A,61.42699594850598,66.77593497346936,3.0713497974252992,1.0489139337462055,100,623,Incorrect
2,new_learn,58,851,A,83.88888164686034,45.1047874846988,4.194444082343017,0.7085043450182928,A,726,Correct
2,new_learn,58,852,A,66.65125736923505,61.384839249489396,3.3325628684617525,0.9642308001399312,B,464,Incorrect
2,new_learn,58,853,A,83.2755915934566,34.43469594529989,4.1637795796728305,0.5408989390517619,A,379,Correct
2,new_learn,58,854,A,71.5587299376052,55.481796095879766,3.57793649688026,0.8715060151139136,A,968,Correct
2,new_learn,58,855,B,27.176270829010186,40.601993760263355,1.3588135414505091,0.6377746265917099,B,642,Correct
2,new_learn,58,856,B,39.11146129909469,39.79521471790937,1.9555730649547345,0.6251017710290624,A,732,Incorrect
2,new_learn,58,857,A,83.29635484855763,45.91709380630693,4.164817742427881,0.7212640228804362,A,728,Correct
2,new_learn,58,858,A,75.73059768721643,37.97015800890845,3.7865298843608217,0.5964338472821521,A,913,Correct
2,new_learn,58,859,B,16.7233812008448,54.32458455026495,0.8361690600422399,0.8533285786621497,B,452,Correct
2,new_learn,58,860,B,40.659423536637235,42.05731422810068,2.032971176831862,0.6606347470435929,B,741,Correct
2,new_learn,58,861,A,69.82223497145392,42.268837894692545,3.491111748572696,0.6639573530287198,A,662,Correct
2,new_learn,58,862,B,37.417545770117556,52.24728329416478,1.8708772885058778,0.8206984068348642,A,993,Incorrect
2,new_learn,58,863,A,57.30886877852707,75.2247302753855,2.865443438926354,1.1816273000071238,A,1261,Correct
2,new_learn,58,864,B,62.286142750431765,23.803523781816722,3.114307137521588,0.3739048772125268,B,306,Correct
2,new_learn,58,865,A,71.002457407411,53.662317728266984,3.55012287037055,0.8429257157486243,A,713,Correct
2,new_learn,58,866,B,60.445527034234985,14.619068187744205,3.0222763517117492,0.22963578610472724,B,570,Correct
2,new_learn,58,867,A,46.82163350954875,73.93495725210816,2.3410816754774375,1.161367592733492,B,802,Incorrect
2,new_learn,58,868,B,29.474334105628966,46.3106690326059,1.4737167052814482,0.7274462880783152,B,732,Correct
2,new_learn,58,869,A,57.23988037495825,51.75209181521436,2.8619940187479127,0.8129199572729094,A,737,Correct
2,new_learn,58,870,B,20.275616347845943,51.308520193727304,1.013780817392297,0.8059523505358863,B,685,Correct
2,new_learn,58,871,A,47.50238686609271,67.98578477308294,2.3751193433046356,1.067918209958271,B,589,Incorrect
2,new_learn,58,872,A,40.56770635398812,77.66577873698854,2.028385317699406,1.219971199577268,A,1310,Correct
2,new_learn,58,873,B,26.906383797811376,57.89177754622869,1.345319189890569,0.909361915212433,B,672,Correct
2,new_learn,58,874,B,10.90488361856363,67.70734127147314,0.5452441809281815,1.0635444296627852,B,673,Correct
2,new_learn,58,875,B,57.21800135630045,24.884672299934664,2.860900067815022,0.3908875184223208,A,683,Incorrect
2,new_learn,58,876,A,85.67360611608942,31.86429284416718,4.283680305804471,0.5005231415553472,A,697,Correct
2,new_learn,58,877,B,61.212889989385836,18.904292996103464,3.060644499469292,0.2969479399893381,A,790,Incorrect
2,new_learn,58,878,A,45.92963282822103,71.13852287012524,2.2964816414110514,1.1174413041800748,B,822,Incorrect
2,new_learn,58,879,A,61.76870308620684,63.436801467446585,3.0884351543103423,0.996462947286822,100,2294,Incorrect
2,new_learn,58,880,B,55.342216667473565,32.39017043135132,2.7671108333736782,0.5087836073782733,A,437,Incorrect
2,new_learn,58,881,A,61.89075285120223,50.40052683036737,3.094537642560111,0.791689624136687,B,481,Incorrect
2,new_learn,58,882,A,70.02479309600719,58.4598787686747,3.5012396548003597,0.9182856283470918,A,992,Correct
2,new_learn,58,883,B,17.290303426476598,56.518620228124945,0.8645151713238299,0.8877924104985441,B,563,Correct
2,new_learn,58,884,B,30.823862360768693,36.08642247006068,1.5411931180384346,0.5668441986314015,A,827,Incorrect
2,new_learn,58,885,B,16.53650444240872,63.901361942971754,0.8268252221204361,1.0037602461721122,B,590,Correct
2,new_learn,58,886,A,61.155212073035294,70.13107572022491,3.0577606036517646,1.1016163613550405,B,911,Incorrect
2,new_learn,58,887,B,38.983920330256474,34.28636594407311,1.9491960165128237,0.5385689768409568,A,326,Incorrect
2,new_learn,58,888,A,67.7362851791812,64.46307694756094,3.3868142589590597,1.0125836448312548,107,223,Correct
2,new_learn,58,889,B,45.80966079389292,44.22578465170948,2.290483039694646,0.6946970008052736,107,63,Incorrect
2,new_learn,58,890,A,36.38313570105955,76.59182096143226,1.8191567850529777,1.2031015102875016,B,353,Incorrect
2,new_learn,58,891,A,58.010989614340104,61.15946451359753,2.9005494807170056,0.9606906220670182,A,474,Correct
2,new_learn,58,892,B,32.95051797672919,42.59973745792128,1.6475258988364596,0.6691551112132972,B,1181,Correct
2,new_learn,58,893,A,37.97665865565217,79.88767104315544,1.8988329327826086,1.2548726023078758,A,790,Correct
2,new_learn,58,894,A,55.421883240318785,51.41606159355982,2.7710941620159395,0.8076416068942391,100,843,Incorrect
2,new_learn,58,895,B,60.30965079372827,30.97107435028414,3.0154825396864133,0.4864924982631797,100,109,Correct
2,new_learn,58,896,A,31.47721631521436,84.0426546431777,1.5738608157607181,1.3201389320759558,107,88,Correct
2,new_learn,58,897,B,30.519154673719274,40.86193883213448,1.5259577336859638,0.6418578342323459,100,126,Correct
2,new_learn,58,898,B,42.52116745026684,37.23155574487208,2.126058372513342,0.584831910049045,100,114,Correct
