experiment,condition,subject,trial,cat,x,y,xt,yt,resp,rt,fb
2,relearn,71,0,A,58.67012230465675,67.6800003205001,2.9335061152328374,1.0631149590091897,A,2375,Correct
2,relearn,71,1,A,34.29166522424706,43.650606398118775,1.714583261212353,0.6856621219253478,B,995,Incorrect
2,relearn,71,2,B,62.51153531266624,41.29947467753589,3.125576765633312,0.6487306312203222,A,944,Incorrect
2,relearn,71,3,A,52.99901820432037,78.77337381628571,2.6499509102160186,1.237369262398629,A,662,Correct
2,relearn,71,4,B,49.04115857768011,21.984720250287467,2.452057928884005,0.3453351781476493,A,559,Incorrect
2,relearn,71,5,A,15.210793923131124,43.24513125888156,0.7605396961565561,0.679292933332143,A,728,Correct
2,relearn,71,6,A,68.6321008228359,84.14370789616225,3.431605041141795,1.3217262728619439,B,780,Incorrect
2,relearn,71,7,A,22.93680119509103,46.240827920388334,1.1468400597545514,0.7263492264530089,A,450,Correct
2,relearn,71,8,B,52.656752013473984,26.813147771105214,2.6328376006736995,0.42117994028660843,A,708,Incorrect
2,relearn,71,9,A,30.704841341902274,57.18109713760965,1.5352420670951137,0.8981985734585941,A,318,Correct
2,relearn,71,10,A,23.123318219099218,43.1242478445896,1.156165910954961,0.6773941011007407,B,376,Incorrect
2,relearn,71,11,A,67.18684434647459,89.51294476618942,3.359342217323729,1.4060660483932481,A,818,Correct
2,relearn,71,12,A,34.80022648869539,48.74514867607264,1.7400113244347692,0.7656870048944601,B,965,Incorrect
2,relearn,71,13,A,69.25241320490056,87.55789691320446,3.4626206602450282,1.3753562285314778,A,621,Correct
2,relearn,71,14,A,18.229940587996396,43.360990063686714,0.9114970293998198,0.681112839182291,B,663,Incorrect
2,relearn,71,15,B,34.880458021793686,16.425359323946562,1.7440229010896844,0.25800894092341564,B,1128,Correct
2,relearn,71,16,B,74.954790724958,64.63448127430121,3.7477395362479,1.0152760576996587,A,728,Incorrect
2,relearn,71,17,A,22.446046274863445,34.75989955340275,1.1223023137431722,0.546007225382446,B,505,Incorrect
2,relearn,71,18,A,53.40979032826621,65.29482890853359,2.6704895164133107,1.0256487740822577,A,578,Correct
2,relearn,71,19,B,68.39529969144536,59.66634971009759,3.419764984572268,0.9372368295788104,A,910,Incorrect
2,relearn,71,20,B,35.686292433818295,21.01579484030769,1.7843146216909147,0.3301153333983046,A,749,Incorrect
2,relearn,71,21,B,51.99899046641032,25.497851728688183,2.599949523320516,0.400519318365843,A,355,Incorrect
2,relearn,71,22,A,41.157691473532054,69.89915953066352,2.0578845736766027,1.0979734303681674,A,1196,Correct
2,relearn,71,23,B,52.94913340927272,26.04965576281653,2.6474566704636358,0.40918703586503713,A,710,Incorrect
2,relearn,71,24,A,18.913396593858273,43.74993913366808,0.9456698296929136,0.6872224368866612,B,2366,Incorrect
2,relearn,71,25,B,86.2716093527895,59.75262123205662,4.313580467639475,0.9385919794768128,B,485,Correct
2,relearn,71,26,A,19.92361227280526,38.961854403833854,0.996180613640263,0.6120113778265979,A,454,Correct
2,relearn,71,27,A,12.679438386115823,33.82210855688416,0.6339719193057911,0.5312764388561189,B,272,Incorrect
2,relearn,71,28,A,55.49564758730709,68.96269306262471,2.7747823793653543,1.083263449486548,A,281,Correct
2,relearn,71,29,B,32.301351569273955,18.414654418191994,1.6150675784636976,0.28925671519293394,A,1066,Incorrect
2,relearn,71,30,A,63.34483760409164,85.28720924057401,3.167241880204582,1.3396883499768144,A,1198,Correct
2,relearn,71,31,A,23.353103095927956,48.542997411456724,1.1676551547963978,0.7625116202553038,A,859,Correct
2,relearn,71,32,B,75.4683420650145,46.701274003186455,3.7734171032507247,0.7335818966084728,A,531,Incorrect
2,relearn,71,33,B,74.16768924245106,49.527888075032564,3.708384462122553,0.777982246621699,B,495,Correct
2,relearn,71,34,A,53.06936287285167,68.10607289582049,2.6534681436425838,1.0698076913718029,A,730,Correct
2,relearn,71,35,B,76.15060070339807,64.5645749799077,3.8075300351699037,1.0141779721951272,A,1150,Incorrect
2,relearn,71,36,A,39.16639591896019,70.78408702993801,1.9583197959480094,1.111873839021569,A,677,Correct
2,relearn,71,37,B,74.69610841126264,55.96313138834829,3.734805420563132,0.8790668122075769,A,814,Incorrect
2,relearn,71,38,A,59.88512325356362,75.59695743848977,2.994256162678181,1.1874742306124986,A,810,Correct
2,relearn,71,39,A,40.94561327438935,50.64538596136404,2.0472806637194676,0.7955358623722047,A,990,Correct
2,relearn,71,40,B,80.89340996141235,61.808565381265964,4.044670498070617,0.9708866746535479,A,628,Incorrect
2,relearn,71,41,A,29.9754304192166,39.540999473374285,1.4987715209608299,0.6211085673057526,A,1184,Correct
2,relearn,71,42,A,10.331872705226466,34.68137829465406,0.5165936352613233,0.5447738163342686,A,900,Correct
2,relearn,71,43,A,14.712289147037026,42.165714493770906,0.7356144573518513,0.6623374944349767,B,538,Incorrect
2,relearn,71,44,A,28.57084028810079,38.71471808183381,1.4285420144050394,0.6081293695584452,A,771,Correct
2,relearn,71,45,A,44.7534794690341,72.60553471236985,2.2376739734517046,1.1404850723116993,A,759,Correct
2,relearn,71,46,B,54.10204380120277,43.732691917616656,2.705102190060138,0.6869515182504511,A,667,Incorrect
2,relearn,71,47,B,68.42048302165162,39.694310077273435,3.421024151082581,0.6235167646403875,A,1049,Incorrect
2,relearn,71,48,A,59.93003064380956,69.24189177523617,2.996501532190478,1.0876490926087075,A,1773,Correct
2,relearn,71,49,A,58.56073953754557,85.8597168956619,2.9280369768772787,1.3486812791935545,B,980,Incorrect
2,relearn,71,50,B,77.71640346805555,46.22785041062443,3.8858201734027773,0.7261453762063278,A,879,Incorrect
2,relearn,71,51,B,71.97387698302008,55.19743674716883,3.598693849151004,0.8670393089094643,A,1622,Incorrect
2,relearn,71,52,A,54.84112319624038,62.065101872479175,2.742056159812019,0.9749163404344136,B,747,Incorrect
2,relearn,71,53,A,25.963035357728693,43.96560484088181,1.2981517678864347,0.6906101058937306,A,331,Correct
2,relearn,71,54,A,40.149466274919,58.21998876832064,2.00747331374595,0.9145174450331819,A,1095,Correct
2,relearn,71,55,A,27.0302577994346,58.67855749857765,1.35151288997173,0.921720625803889,B,1060,Incorrect
2,relearn,71,56,B,60.22047053490308,42.66688204530858,3.011023526745154,0.6702098159256185,A,728,Incorrect
2,relearn,71,57,B,75.25550641708956,56.06533498915509,3.7627753208544785,0.8806722226149022,B,307,Correct
2,relearn,71,58,B,58.41477022855898,43.66525635574749,2.9207385114279485,0.6858922429216567,A,243,Incorrect
2,relearn,71,59,B,67.7673744732194,48.25406905163845,3.3883687236609705,0.7579731441922097,B,387,Correct
2,relearn,71,60,A,52.3623171832036,66.63018743596955,2.61811585916018,1.0466245367807643,A,396,Correct
2,relearn,71,61,A,50.53468893766888,81.4710499000228,2.526734446883444,1.2797442592307957,B,277,Incorrect
2,relearn,71,62,A,37.54394952629764,52.84867360076215,1.877197476314882,0.8301450236805961,A,274,Correct
2,relearn,71,63,A,37.254559193767854,50.007345160635126,1.8627279596883926,0.785513540910902,B,687,Incorrect
2,relearn,71,64,B,60.990960702483584,43.41196583938172,3.0495480351241793,0.6819135647944634,A,311,Incorrect
2,relearn,71,65,B,52.32217376142159,25.675596368969465,2.6161086880710793,0.40331132464645625,B,11,Correct
2,relearn,71,66,A,41.898036082478164,52.245915476077606,2.0949018041239085,0.8206769211985935,B,287,Incorrect
2,relearn,71,67,A,24.29996930256534,34.79255338893371,1.214998465128267,0.546520150631524,A,283,Correct
2,relearn,71,68,B,71.1629009949119,42.2495182090986,3.5581450497455944,0.6636538801170617,A,331,Incorrect
2,relearn,71,69,B,71.07712794606404,48.06517166131909,3.5538563973032016,0.755005950923662,B,470,Correct
2,relearn,71,70,A,67.13815467193473,84.0509985089974,3.3569077335967363,1.3202699972137646,A,281,Correct
2,relearn,71,71,B,53.19371896421911,24.149501568786103,2.6596859482109556,0.379339483581768,B,429,Correct
2,relearn,71,72,A,52.550866660999986,81.50734091480307,2.6275433330499993,1.2803143171579205,A,241,Correct
2,relearn,71,73,B,37.934117463879275,24.334250965720955,1.8967058731939637,0.3822415203225964,B,359,Correct
2,relearn,71,74,B,55.10128538690684,27.55373269751608,2.755064269345342,0.4328130211074669,A,371,Incorrect
2,relearn,71,75,B,69.44255857682853,51.374105041719645,3.472127928841427,0.806982554919084,B,345,Correct
2,relearn,71,76,B,70.72142378423618,61.596608323305844,3.536071189211809,0.9675572609727278,A,333,Incorrect
2,relearn,71,77,A,25.871603876619048,52.81385906073725,1.2935801938309524,0.8295981581646943,B,230,Incorrect
2,relearn,71,78,B,51.4762356327817,30.252880780716882,2.573811781639085,0.47521114005313997,A,543,Incorrect
2,relearn,71,79,B,43.90438408789971,27.749507212675553,2.195219204394985,0.4358882400003925,B,254,Correct
2,relearn,71,80,A,21.461501433620754,49.8711519833059,1.0730750716810378,0.7833742234840693,B,265,Incorrect
2,relearn,71,81,B,59.43920312295669,46.73053522886798,2.9719601561478344,0.7340415308666532,A,269,Incorrect
2,relearn,71,82,B,43.78734124263636,27.227158529512657,2.1893670621318178,0.42768320607220817,B,228,Correct
2,relearn,71,83,B,80.54971319192991,60.486822908769554,4.027485659596496,0.950124792445886,B,460,Correct
2,relearn,71,84,A,33.3740749787169,60.87073886468914,1.6687037489358447,0.9561553301794504,A,485,Correct
2,relearn,71,85,A,34.169193471736875,51.60976597814786,1.7084596735868438,0.8106843082521888,B,206,Incorrect
2,relearn,71,86,B,57.963602607944615,41.93016253722963,2.8981801303972308,0.6586374529539327,B,212,Correct
2,relearn,71,87,A,29.799547872750402,50.977831785597246,1.48997739363752,0.8007579091678427,A,251,Correct
2,relearn,71,88,A,41.19499485053765,69.92447838253081,2.0597497425268823,1.0983711379632854,B,267,Incorrect
2,relearn,71,89,A,65.37754341333591,88.90435262534074,3.2688771706667956,1.3965063053996345,A,524,Correct
2,relearn,71,90,B,62.84394933212407,31.33869688262815,3.1421974666062034,0.4922670994977097,B,1006,Correct
2,relearn,71,91,B,67.21235316652579,38.06272337380392,3.360617658326289,0.5978878606338145,A,476,Incorrect
2,relearn,71,92,A,31.876972475820992,48.49233500553368,1.5938486237910496,0.7617158170439989,1073742049,336,Correct
2,relearn,71,93,B,80.09723922837652,64.53400221389842,4.004861961418826,1.0136977363096535,1073742049,267,Incorrect
2,relearn,71,94,B,81.35573698920273,66.45427688046301,4.067786849460137,1.0438613402364232,A,276,Incorrect
2,relearn,71,95,B,57.03336188148444,37.831908154704664,2.851668094074222,0.5942622236505198,B,1228,Correct
2,relearn,71,96,A,16.80442948279533,44.461211529345974,0.8402214741397666,0.6983950775514757,A,927,Correct
2,relearn,71,97,A,67.56454038367443,89.78939412493386,3.378227019183721,1.4104085047658537,B,1120,Incorrect
2,relearn,71,98,A,62.7142225188382,75.37444558030083,3.13571112594191,1.1839790225173834,A,367,Correct
2,relearn,71,99,B,69.28342366720321,50.567114435066024,3.4641711833601607,0.7943063761121891,A,460,Incorrect
2,relearn,71,100,B,44.81993477509012,31.206431025405145,2.240996738754506,0.49018947227084697,B,244,Correct
2,relearn,71,101,A,31.965841867651626,60.51067903372177,1.5982920933825813,0.9504995235803512,A,503,Correct
2,relearn,71,102,B,40.186797288574944,23.456102114440846,2.0093398644287475,0.3684475904228968,B,231,Correct
2,relearn,71,103,A,35.8453463434273,68.83307863432137,1.7922673171713652,1.0812274708077627,A,241,Correct
2,relearn,71,104,B,38.41561454419893,26.00819707011012,1.9207807272099466,0.4085358042428676,B,179,Correct
2,relearn,71,105,B,37.94566623503711,16.809132461421825,1.8972833117518553,0.2640372352701026,B,148,Correct
2,relearn,71,106,A,65.07197438370156,78.97219049696473,3.253598719185078,1.2404922675157903,107,244,Incorrect
2,relearn,71,107,B,47.34135972688034,34.42887146409599,2.367067986344017,0.5408074483149562,A,12,Incorrect
2,relearn,71,108,B,56.612632531720706,39.39246118391573,2.830631626586035,0.6187753333110537,B,66,Correct
2,relearn,71,109,B,45.21047401294618,23.587893072664528,2.260523700647309,0.3705177579537222,A,268,Incorrect
2,relearn,71,110,A,49.40451138674237,57.10982875494286,2.4702255693371185,0.8970790923214981,B,260,Incorrect
2,relearn,71,111,B,77.37708010303739,48.5395523520053,3.868854005151869,0.7624575053879851,A,242,Incorrect
2,relearn,71,112,A,27.131507089713253,56.71952233779639,1.3565753544856625,0.8909481734577166,B,248,Incorrect
2,relearn,71,113,A,41.71992469461924,50.57696704078713,2.085996234730962,0.7944611404809497,A,150,Correct
2,relearn,71,114,B,71.20150846375503,58.337662473159945,3.560075423187752,0.9163658592664011,A,81,Incorrect
2,relearn,71,115,A,62.32875744026735,78.21294642647774,3.1164378720133676,1.2285660895451727,B,229,Incorrect
2,relearn,71,116,B,48.91437545413339,21.35859953357697,2.4457187727066696,0.335500096928259,B,197,Correct
2,relearn,71,117,B,52.363687748883194,38.862901170959276,2.6181843874441597,0.6104570240793592,B,261,Correct
2,relearn,71,118,B,46.78215196650618,23.68358947915168,2.3391075983253087,0.3720209535916972,A,1010,Incorrect
2,relearn,71,119,A,58.7067127074236,67.15752308589593,2.93533563537118,1.054907905799688,B,421,Incorrect
2,relearn,71,120,A,20.05523572893985,35.65345399038426,1.0027617864469924,0.5600431456564643,B,149,Incorrect
2,relearn,71,121,A,48.14566714067607,59.5564239498208,2.4072833570338035,0.9355101197741811,A,195,Correct
2,relearn,71,122,A,54.191495747852485,64.14678747109028,2.7095747873926244,1.007615381352815,A,269,Correct
2,relearn,71,123,A,38.41540208129793,48.332222252099854,1.9207701040648966,0.7592007717943302,A,253,Correct
2,relearn,71,124,A,59.26469873320791,81.40792730289252,2.9632349366603954,1.2787527317936953,A,381,Correct
2,relearn,71,125,B,81.02289947849142,60.8312854744828,4.051144973924571,0.9555355977752933,B,1761,Correct
2,relearn,71,126,B,85.51262054058216,68.70377054527992,4.275631027029108,1.0791963040948511,B,317,Correct
2,relearn,71,127,A,62.10101413249127,84.08136747016724,3.1050507066245636,1.320747031740306,A,368,Correct
2,relearn,71,128,A,63.127990886659845,83.73955081788311,3.1563995443329924,1.3153777883218536,B,376,Incorrect
2,relearn,71,129,A,41.40175996872678,68.16421782361819,2.070087998436339,1.0707210297618668,1073741905,320,Correct
2,relearn,71,130,B,55.94579123135567,39.713468595143745,2.7972895615677835,0.6238177059353627,A,549,Incorrect
2,relearn,71,131,A,42.21855089315413,70.92604348795732,2.1109275446577067,1.1141036858497844,B,364,Incorrect
2,relearn,71,132,B,88.9710698598308,65.9878020312685,4.44855349299154,1.0365339704398537,A,274,Incorrect
2,relearn,71,133,B,48.6208257102779,20.95593032992106,2.4310412855138948,0.3291749838680977,A,391,Incorrect
2,relearn,71,134,A,35.16827727153455,49.5389697677024,1.7584138635767275,0.7781563174431034,B,245,Incorrect
2,relearn,71,135,B,36.16494008528596,19.582878870468864,1.8082470042642982,0.30760714197801886,A,376,Incorrect
2,relearn,71,136,A,42.57287710808785,66.5534657896646,2.1286438554043925,1.0454193959787497,B,434,Incorrect
2,relearn,71,137,A,61.27655677514447,78.3180379630953,3.0638278387572235,1.2302168635421338,A,552,Correct
2,relearn,71,138,B,84.08501910722171,66.96350517726776,4.204250955361085,1.0518602796176324,A,437,Incorrect
2,relearn,71,139,B,64.51063151250509,31.578516699997316,3.2255315756252543,0.49603418037987085,B,544,Correct
2,relearn,71,140,A,62.791563266438686,77.18570085730312,3.1395781633219344,1.2124301538774145,A,786,Correct
2,relearn,71,141,A,56.6248185063657,84.42400020385777,2.8312409253182853,1.326129094135514,B,448,Incorrect
2,relearn,71,142,A,48.01490967243601,75.9677792209593,2.4007454836218005,1.1932990855504855,B,316,Incorrect
2,relearn,71,143,A,10.498725698245899,35.58313457385371,0.5249362849122949,0.5589385708445791,A,420,Correct
2,relearn,71,144,A,53.66133660284956,79.81175896382193,2.683066830142478,1.2536801781541114,A,283,Correct
2,relearn,71,145,A,29.408645297870283,42.77890625206126,1.4704322648935142,0.6719694880504107,A,453,Correct
2,relearn,71,146,B,80.27986112649452,50.52253218385093,4.013993056324726,0.7936060797476998,A,328,Incorrect
2,relearn,71,147,B,43.473862662252856,19.949387376640384,2.173693133112643,0.3133642441303519,B,223,Correct
2,relearn,71,148,A,44.07205555926008,75.5251400447747,2.2036027779630043,1.1863461256300225,B,294,Incorrect
2,relearn,71,149,B,74.24366611600112,63.44774494802401,3.712183305800056,0.9966348470777556,A,215,Incorrect
2,relearn,71,150,B,46.02629539065028,19.720280293162986,2.3013147695325142,0.30976543847866206,100,14,Incorrect
2,relearn,71,151,B,42.444114134488785,26.118751208128394,2.122205706724439,0.41027238458197846,B,242,Correct
2,relearn,71,152,B,42.30123372756644,28.09899612432885,2.115061686378322,0.4413779989871979,B,63,Correct
2,relearn,71,153,B,49.865089428879145,25.81001819625989,2.493254471443957,0.4054228177719448,A,267,Incorrect
2,relearn,71,154,A,27.974901222912376,51.348721848265086,1.398745061145619,0.8065838366486765,B,306,Incorrect
2,relearn,71,155,A,34.341512392715664,57.29373573323774,1.717075619635783,0.8999678963812735,48,341,Incorrect
2,relearn,71,156,A,19.070694394034312,34.671327164352235,0.9535347197017157,0.544615933548686,B,317,Incorrect
2,relearn,71,157,B,72.21249196776479,44.403412530462596,3.6106245983882395,0.6974871730000913,A,298,Incorrect
2,relearn,71,158,A,62.42629554877151,87.88001640307363,3.1213147774385757,1.380416069646233,B,250,Incorrect
2,relearn,71,159,A,35.498665684096366,57.62156496951813,1.7749332842048182,0.9051174259829258,B,249,Incorrect
2,relearn,71,160,A,37.81944204462413,48.997773710675844,1.8909721022312067,0.7696552296585717,A,432,Correct
2,relearn,71,161,A,13.953588202462427,36.004938533971234,0.6976794101231214,0.5655642519563804,A,209,Correct
2,relearn,71,162,A,58.57484705434366,74.74804568906197,2.928742352717183,1.1741395560347565,B,307,Incorrect
2,relearn,71,163,A,45.066206130138475,76.79133418055375,2.2533103065069238,1.2062354566049323,A,315,Correct
2,relearn,71,164,A,25.0114426918895,53.64663430409973,1.250572134594475,0.8426793610978893,A,266,Correct
2,relearn,71,165,B,51.16617056085943,20.463653897513403,2.5583085280429714,0.32144232375016124,B,248,Correct
2,relearn,71,166,B,60.794503077679934,27.829306908136004,3.0397251538839964,0.4371417306854788,A,319,Incorrect
2,relearn,71,167,B,78.89776845616893,60.07459535227723,3.9448884228084466,0.9436495371304683,B,315,Correct
2,relearn,71,168,A,45.18103082617299,68.64006260507455,2.2590515413086494,1.0781955821102285,B,297,Incorrect
2,relearn,71,169,A,14.296557747122673,33.134408385028905,0.7148278873561337,0.5204740698172543,A,279,Correct
2,relearn,71,170,A,43.85443640791577,65.99422704309848,2.192721820395789,1.036634894289675,B,252,Incorrect
2,relearn,71,171,A,28.91493787799974,39.65754453487159,1.445746893899987,0.6229392528508132,A,475,Correct
2,relearn,71,172,A,35.87711448777526,63.04422052636631,1.793855724388763,0.9902963002846361,B,600,Incorrect
2,relearn,71,173,B,59.55341108595998,45.02933743416428,2.977670554297999,0.707319178395932,A,874,Incorrect
2,relearn,71,174,B,78.29295720078251,64.62049623218326,3.9146478600391252,1.0150563811717692,B,369,Correct
2,relearn,71,175,B,50.47837550749968,33.00477952478825,2.523918775374984,0.5184378644421279,B,1330,Correct
2,relearn,71,176,A,51.34170887938437,76.18025194250261,2.567085443969219,1.196636599255929,A,532,Correct
2,relearn,71,177,A,14.834110669173246,31.098495376424093,0.7417055334586622,0.4884940230613504,B,109,Incorrect
2,relearn,71,178,B,79.6126719168998,50.09261229828454,3.98063359584499,0.7868529139770621,A,179,Incorrect
2,relearn,71,179,B,52.66378242318761,41.445261956362906,2.633189121159381,0.6510206524410712,A,211,Incorrect
2,relearn,71,180,B,55.33617665452062,27.526644124487056,2.7668088327260314,0.4323875147973459,48,220,Correct
2,relearn,71,181,A,62.9946779698959,84.97959182877653,3.1497338984947953,1.3348563069717179,B,368,Incorrect
2,relearn,71,182,B,50.64434707553435,43.292802464105314,2.5322173537767174,0.6800417508727367,A,239,Incorrect
2,relearn,71,183,B,53.18527106657483,46.20247091851346,2.6592635533287416,0.7257467160764899,B,275,Correct
2,relearn,71,184,B,61.5284838812024,46.663412352949095,3.07642419406012,0.7329871671972804,B,898,Correct
2,relearn,71,185,B,43.90482062729544,18.56888973988451,2.195241031364772,0.29167943796070034,B,306,Correct
2,relearn,71,186,A,62.835923326774946,75.62071022588374,3.1417961663387475,1.1878473385243946,B,244,Incorrect
2,relearn,71,187,A,39.15820720531941,69.03854544739411,1.9579103602659702,1.084454935960292,61,298,Correct
2,relearn,71,188,A,62.068158032397946,73.21291501600018,3.103407901619897,1.1500257798108002,B,236,Incorrect
2,relearn,71,189,B,82.0312726789055,58.69347708429723,4.101563633945275,0.9219549821083451,A,246,Incorrect
2,relearn,71,190,A,20.989024911926332,49.03423905131204,1.0494512455963168,0.7702280258898382,B,328,Incorrect
2,relearn,71,191,B,46.074755339856026,23.577545288535873,2.3037377669928016,0.3703552153407247,A,230,Incorrect
2,relearn,71,192,B,69.82316740627343,58.30343306598593,3.4911583703136717,0.915828184995828,B,228,Correct
2,relearn,71,193,A,30.40621257735733,59.535667494402624,1.5203106288678665,0.9351840781348996,B,287,Incorrect
2,relearn,71,194,A,56.19978255856137,72.22551282828529,2.8099891279280684,1.1345157025154824,A,347,Correct
2,relearn,71,195,B,75.32116900488715,59.83223226641944,3.766058450244358,0.9398425066803074,B,378,Correct
2,relearn,71,196,B,73.1532889612817,47.92042744981488,3.657664448064085,0.7527323141661054,B,339,Correct
2,relearn,71,197,A,55.05041859131127,80.91937836417466,2.7525209295655633,1.27107862300972,B,302,Incorrect
2,relearn,71,198,A,56.870924193862166,74.9786147566091,2.843546209693108,1.177761326478512,B,301,Incorrect
2,relearn,71,199,A,57.50668837332468,69.41195833603851,2.8753344186662337,1.090320491898897,A,249,Correct
2,relearn,71,200,B,40.398418444457945,28.82525670991288,2.019920922222897,0.45278607358851103,B,330,Correct
2,relearn,71,201,A,13.288264159007102,33.82245366997937,0.6644132079503551,0.5312818598799416,100,230,Correct
2,relearn,71,202,A,18.75019353596619,47.01904576367414,0.9375096767983095,0.7385734437498047,B,241,Incorrect
2,relearn,71,203,B,55.41225123182951,32.16704981907459,2.7706125615914754,0.505278836996308,A,603,Incorrect
2,relearn,71,204,A,29.913727907402514,41.205761996851905,1.4956863953701256,0.6472585958743972,B,251,Incorrect
2,relearn,71,205,A,67.39549120623315,80.15701205219695,3.369774560311657,1.259103400984452,A,208,Correct
2,relearn,71,206,B,72.3848677485892,43.376008803726386,3.61924338742946,0.681348752999165,A,272,Incorrect
2,relearn,71,207,B,54.55894950240309,28.36982248274996,2.7279474751201542,0.4456321294772691,B,231,Correct
2,relearn,71,208,A,56.797034171580236,85.28023568835826,2.8398517085790114,1.339578809674762,B,280,Incorrect
2,relearn,71,209,B,88.20454620462047,67.77208787629846,4.410227310231023,1.0645614669531056,A,368,Incorrect
2,relearn,71,210,B,46.533247397017426,23.973601777493457,2.326662369850871,0.37657645612130325,B,270,Correct
2,relearn,71,211,A,67.49404054336814,80.70911596407136,3.374702027168407,1.2677758289522663,A,262,Correct
2,relearn,71,212,A,35.75910829121371,64.24214904825855,1.7879554145606853,1.009113317504148,B,342,Incorrect
2,relearn,71,213,B,61.2885811120688,43.84777807047567,3.06442905560344,0.6887592873122099,A,186,Incorrect
2,relearn,71,214,B,60.0892321195189,52.78202886299832,3.004461605975945,0.8290981705877997,B,481,Correct
2,relearn,71,215,B,48.0801454403212,21.108023273156146,2.40400727201606,0.33156405423374863,A,351,Incorrect
2,relearn,71,216,A,31.142697565810273,61.47263819220812,1.5571348782905137,0.9656099427071217,B,64,Incorrect
2,relearn,71,217,A,44.75743094779381,72.44781832356283,2.23787154738969,1.1380076690695649,A,639,Correct
2,relearn,71,218,A,14.773529339609038,31.621299153358674,0.738676466980452,0.49670620558578377,B,263,Incorrect
2,relearn,71,219,A,54.87309493422557,81.18757663881516,2.7436547467112784,1.2752914716563002,A,76,Correct
2,relearn,71,220,A,52.901825947838205,70.89728218298175,2.6450912973919105,1.11365190432769,A,151,Correct
2,relearn,71,221,A,52.162717967545774,62.905834828648295,2.6081358983772884,0.9881225428280721,B,875,Incorrect
2,relearn,71,222,B,52.64114605116635,42.52258174183476,2.6320573025583176,0.6679431520590977,A,201,Incorrect
2,relearn,71,223,A,34.02790048918849,65.33097652525784,1.7013950244594245,1.0262165795179863,B,196,Incorrect
2,relearn,71,224,B,41.47682283718804,21.6289262666014,2.073841141859402,0.33974637932095136,A,238,Incorrect
2,relearn,71,225,B,80.76242705676547,62.208083279756934,4.038121352838274,0.9771622871279321,B,324,Correct
2,relearn,71,226,B,58.233642662142806,51.091662496309574,2.9116821331071403,0.8025459577904765,B,340,Correct
2,relearn,71,227,B,47.020668208306176,26.696690517422034,2.351033410415309,0.4193506340234668,B,197,Correct
2,relearn,71,228,B,65.52809724743072,46.35792824020545,3.276404862371536,0.7281886339753614,A,247,Incorrect
2,relearn,71,229,A,62.3067704342217,84.4569418174084,3.115338521711085,1.3266465397911542,B,58,Incorrect
2,relearn,71,230,A,32.63009794531921,58.57003120933935,1.6315048972659605,0.920015898838927,A,341,Correct
2,relearn,71,231,A,14.95772001972471,39.753803380459566,0.7478860009862356,0.6244512832615242,A,1164,Correct
2,relearn,71,232,B,38.00723710174224,22.907426335686992,1.9003618550871122,0.359829011444218,A,1712,Incorrect
2,relearn,71,233,B,89.39642069045927,66.81776483790168,4.469821034522963,1.0495709957202115,B,731,Correct
2,relearn,71,234,A,46.267445909177695,64.13516410790774,2.3133722954588847,1.0074328019908938,A,915,Correct
2,relearn,71,235,A,29.994526513595343,53.36485046251248,1.4997263256797673,0.8382531108647354,A,574,Correct
2,relearn,71,236,A,21.71457073750266,49.34861162766346,1.0857285368751333,0.7751661787716169,A,533,Correct
2,relearn,71,237,A,21.896783664573874,46.984162849475815,1.0948391832286937,0.7380255042148987,A,772,Correct
2,relearn,71,238,B,32.88532558401893,13.393079369375318,1.6442662792009464,0.2103779987788726,A,1066,Incorrect
2,relearn,71,239,A,45.75323564036225,77.10444705658018,2.2876617820181124,1.2111538221602773,B,1189,Incorrect
2,relearn,71,240,A,18.46027531426741,42.56628100436576,0.9230137657133705,0.6686295784697711,A,672,Correct
2,relearn,71,241,B,60.63762206477905,42.11140927134214,3.0318811032389528,0.6614844699958078,A,1047,Incorrect
2,relearn,71,242,A,10.667919790608867,33.19278178944771,0.5333959895304433,0.52139099710969,A,761,Correct
2,relearn,71,243,A,54.79799716543923,76.4785524346565,2.739899858271962,1.201322292429493,B,1303,Incorrect
2,relearn,71,244,A,48.645701420230935,55.28447353949813,2.4322850710115467,0.8684064796463332,A,7393,Correct
2,relearn,71,245,A,64.46303498389783,81.03069829876988,3.2231517491948916,1.272827232453332,B,739,Incorrect
2,relearn,71,246,A,41.50349559413378,56.87369167089226,2.075174779706689,0.8933698596790307,B,590,Incorrect
2,relearn,71,247,B,51.52074926558354,27.536079855189662,2.5760374632791767,0.4325357309086287,A,595,Incorrect
2,relearn,71,248,A,60.286184087688525,84.09480911458677,3.014309204384426,1.320958172597109,B,1212,Incorrect
2,relearn,71,249,B,66.67433745875122,40.486335664362066,3.3337168729375612,0.6359578734696515,A,703,Incorrect
2,relearn,71,250,B,58.177723786662796,48.94304530446429,2.9088861893331397,0.768795557864087,B,584,Correct
2,relearn,71,251,B,63.42870610194204,46.283498590940894,3.171435305097102,0.7270194957786671,B,512,Correct
2,relearn,71,252,A,29.673919942182295,62.363970797157094,1.4836959971091148,0.9796109625251855,B,1057,Incorrect
2,relearn,71,253,B,65.98991975487482,45.54863158771461,3.299495987743741,0.715476231885161,B,828,Correct
2,relearn,71,254,A,57.335322781398794,77.97034240906119,2.8667661390699397,1.2247552745509367,A,453,Correct
2,relearn,71,255,A,61.433437257751514,78.57197227422932,3.071671862887576,1.2342056543738988,B,462,Incorrect
2,relearn,71,256,A,23.390278144386944,44.17734662376243,1.1695139072193472,0.6939361380415096,A,600,Correct
2,relearn,71,257,B,69.05440163037959,53.932601065411646,3.4527200815189794,0.8471713164804313,B,993,Correct
2,relearn,71,258,A,62.125838337596214,80.95160787456261,3.1062919168798104,1.2715848829750378,A,38,Correct
2,relearn,71,259,B,49.739475459594814,18.96187999235206,2.4869737729797405,0.2978525144111226,B,112,Correct
2,relearn,71,260,A,31.578372908143265,58.05737318227193,1.578918645407163,0.9119630853807329,A,418,Correct
2,relearn,71,261,B,51.24953169401194,37.111108008576494,2.562476584700597,0.5829399214316061,B,605,Correct
2,relearn,71,262,B,44.81750314401985,30.176264806444856,2.2408751572009926,0.47400765914353693,A,440,Incorrect
2,relearn,71,263,B,40.28891359068977,18.27319388048016,2.014445679534489,0.28703465826269214,B,747,Correct
2,relearn,71,264,A,54.720028804322396,65.36312959137175,2.73600144021612,1.0267216386994553,A,330,Correct
2,relearn,71,265,B,62.32542171944752,53.97196237225835,3.1162710859723757,0.8477896024425579,A,346,Incorrect
2,relearn,71,266,B,77.30314807150876,61.62465171771769,3.865157403575438,0.9679977655820576,B,1140,Correct
2,relearn,71,267,A,33.77339794337667,63.529467595703416,1.6886698971688334,0.9979185434256633,A,344,Correct
2,relearn,71,268,B,64.30161636035777,42.16956678359712,3.215080818017889,0.6623980060620644,32,323,Correct
2,relearn,71,269,A,59.435452698335766,73.85199734036159,2.9717726349167886,1.1600644614870645,A,175,Correct
2,relearn,71,270,A,27.232661782157884,51.49563268387465,1.3616330891078943,0.8088915066580954,B,269,Incorrect
2,relearn,71,271,A,44.61486337979641,59.60270338879466,2.2307431689898207,0.9362370755016438,A,229,Correct
2,relearn,71,272,B,65.51436435194412,41.312442680538126,3.275718217597206,0.6489343321351401,B,275,Correct
2,relearn,71,273,A,32.48026522501311,62.55546652077305,1.6240132612506557,0.9826189703177144,A,369,Correct
2,relearn,71,274,B,52.410528945038266,43.19725551947288,2.620526447251913,0.6785409029760856,B,567,Correct
2,relearn,71,275,B,46.16340470109466,28.056250210769967,2.308170235054733,0.44070654774716,A,681,Incorrect
2,relearn,71,276,B,49.52905690643405,20.036665684642763,2.4764528453217025,0.314735208586542,B,864,Correct
2,relearn,71,277,A,10.316278563044381,32.282586751419785,0.515813928152219,0.5070936868856779,A,1444,Correct
2,relearn,71,278,A,49.94200296368193,63.33205182186218,2.4971001481840966,0.9948175437016514,A,6688,Correct
2,relearn,71,279,A,60.40283298147219,84.45225642462282,3.0201416490736097,1.3265729418133825,B,1069,Incorrect
2,relearn,71,280,B,70.58188865250946,46.0606077817197,3.529094432625473,0.7235183351346574,A,733,Incorrect
2,relearn,71,281,A,44.15183215696658,69.93198091138242,2.207591607848329,1.0984889874109032,B,131,Incorrect
2,relearn,71,282,B,40.40366031228288,12.682060744606975,2.020183015614144,0.19920934433818388,A,373,Incorrect
2,relearn,71,283,B,64.698432714963,41.94688724558223,3.2349216357481505,0.6589001640584028,A,611,Incorrect
2,relearn,71,284,B,81.85098725425559,57.61654691052249,4.092549362712779,0.9050386024965456,B,259,Correct
2,relearn,71,285,A,32.5265251806625,62.48157223869104,1.626326259033125,0.9814582416490585,A,139,Correct
2,relearn,71,286,A,45.85099531320066,52.66670929657048,2.292549765660033,0.8272867350742754,A,255,Correct
2,relearn,71,287,B,87.30172325245016,69.43739947572521,4.365086162622508,1.0907201203865904,100,692,Incorrect
2,relearn,71,288,B,64.45265881522337,46.84393049175738,3.2226329407611685,0.7358227394908793,B,543,Correct
2,relearn,71,289,B,57.758160674496054,27.47548530387717,2.8879080337248024,0.4315839139223742,A,460,Incorrect
2,relearn,71,290,B,67.63742509048191,35.119538633465375,3.3818712545240954,0.5516564228417887,B,265,Correct
2,relearn,71,291,B,58.329495339994295,48.07043349080442,2.916474766999715,0.7550886035479395,A,408,Incorrect
2,relearn,71,292,B,68.77430614843968,53.31865820701649,3.438715307421984,0.8375275246121406,B,483,Correct
2,relearn,71,293,B,48.069241489502126,38.029143337375714,2.4034620744751063,0.5973603866550637,B,612,Correct
2,relearn,71,294,A,52.2888806093222,77.18685892575441,2.61444403046611,1.212448344774109,A,412,Correct
2,relearn,71,295,A,31.731959161424918,44.56986649045014,1.586597958071246,0.7001018256893802,A,225,Correct
2,relearn,71,296,B,49.60177153765524,34.327962142955805,2.480088576882762,0.5392223684050925,B,517,Correct
2,relearn,71,297,B,61.01028398114244,44.6911062546141,3.0505141990571225,0.7020062554514825,A,340,Incorrect
2,relearn,71,298,B,58.056350583862226,35.335450281421345,2.9028175291931113,0.5550479550770034,B,347,Correct
2,relearn,71,299,B,58.52087039377657,33.432283748736786,2.9260435196888284,0.5251530850888046,B,654,Correct
2,relearn,71,300,B,73.90883841892466,50.03208259878982,3.6954419209462332,0.7859021156807791,B,715,Incorrect
2,relearn,71,301,A,61.256271354052174,81.01874098149061,3.0628135677026087,1.2726394073527258,A,675,Correct
2,relearn,71,302,A,17.503165792304216,35.388263155714235,0.8751582896152108,0.5558775377664709,A,5042,Correct
2,relearn,71,303,B,41.05399348443149,28.226380234452908,2.052699674221574,0.443378943909947,B,742,Correct
2,relearn,71,304,A,62.12048349853235,83.5122259030376,3.1060241749266173,1.3118069769095706,A,425,Incorrect
2,relearn,71,305,A,62.87571680185663,72.92509329810352,3.1437858400928316,1.1455046868383612,B,543,Incorrect
2,relearn,71,306,B,89.31047812757403,66.82884839775942,4.465523906378701,1.049745095871335,A,47,Correct
2,relearn,71,307,B,48.996101757798705,24.15131493336436,2.4498050878899353,0.3793679678459547,A,152,Incorrect
2,relearn,71,308,B,81.8934800334224,51.93928115985454,4.0946740016711205,0.8158603206226688,B,556,Correct
2,relearn,71,309,B,79.22904911206946,55.77674085288198,3.9614524556034727,0.8761389965229784,A,536,Incorrect
2,relearn,71,310,B,70.246081137864,60.106779762622466,3.5123040568932,0.944155088665972,B,367,Correct
2,relearn,71,311,A,46.83034351323157,72.3601972331225,2.3415171756615787,1.1366313201994307,B,453,Correct
2,relearn,71,312,A,38.92182404214811,65.34479932502468,1.9460912021074055,1.026433707548984,A,321,Incorrect
2,relearn,71,313,B,69.01713997407222,54.619202523824185,3.4508569987036113,0.8579564269688957,B,272,Incorrect
2,relearn,71,314,A,20.634221752977627,43.83542329055666,1.0317110876488813,0.6885652188830587,A,372,Incorrect
2,relearn,71,315,A,40.47677788324251,71.15887961665858,2.0238388941621257,1.1177610672068752,107,348,Correct
2,relearn,71,316,A,12.054948988033829,37.75330994438568,0.6027474494016914,0.5930276058499027,B,186,Incorrect
2,relearn,71,317,B,82.43221770201009,52.22491886725206,4.121610885100505,0.8203471072384101,107,1980,Correct
2,relearn,71,318,B,70.50566823641635,40.49782475453803,3.5252834118208174,0.6361383436761177,B,321,Correct
2,relearn,71,319,B,79.08758962574244,50.39562591395724,3.954379481287122,0.7916126407217372,A,308,Incorrect
2,relearn,71,320,A,29.759488421787893,40.46855611197646,1.4879744210893946,0.6356785929138579,B,855,Incorrect
2,relearn,71,321,B,48.33711581653178,26.224682712460055,2.4168557908265886,0.4119363527609388,B,842,Incorrect
2,relearn,71,322,B,42.69535284379613,15.478151116831913,2.1347676421898063,0.24313022919895896,B,320,Correct
2,relearn,71,323,A,53.66354730945959,61.06430752761816,2.6831773654729796,0.9591958996265657,A,320,Incorrect
2,relearn,71,324,A,66.90673776672949,89.347801680746,3.3453368883364747,1.4034719868731471,B,117,Correct
2,relearn,71,325,B,54.35691462911789,30.096259093952217,2.717845731455894,0.47275093235047644,B,103,Correct
2,relearn,71,326,A,36.76857665257161,56.74575265073786,1.8384288326285805,0.891360198249908,B,301,Correct
2,relearn,71,327,A,12.868484901746928,37.935728873614636,0.6434242450873464,0.5958930356896097,B,292,Correct
2,relearn,71,328,A,52.908006824436534,71.72004449604933,2.6454003412218263,1.1265758245196085,A,2135,Correct
2,relearn,71,329,B,42.90810779256839,25.288917370316113,2.1454053896284195,0.39723738513912205,100,287,Correct
2,relearn,71,330,A,45.811643108383635,59.47964024867058,2.2905821554191816,0.9343040042169362,B,307,Incorrect
2,relearn,71,331,A,16.89127814042344,33.034017475477484,0.844563907021172,0.5188971330975846,A,286,Correct
2,relearn,71,332,B,48.38681961828477,38.23955341748316,2.4193409809142383,0.6006655004645978,A,333,Correct
2,relearn,71,333,B,45.09424906095989,30.54683603742086,2.2547124530479947,0.47982857842786664,B,81,Correct
2,relearn,71,334,A,25.71925909870375,43.34565183685336,1.2859629549351874,0.6808719068785971,A,160,Correct
2,relearn,71,335,B,54.25671281527809,23.669305688688723,2.7128356407639047,0.371796584335778,B,228,Incorrect
2,relearn,71,336,A,38.46445733532491,52.80745967874645,1.9232228667662454,0.8294976369074453,A,210,Correct
2,relearn,71,337,B,60.673004115935555,32.30171582742599,3.0336502057967776,0.5073941657089331,B,280,Incorrect
2,relearn,71,338,A,50.56564577345628,70.30759800616703,2.528282288672814,1.1043891669385935,A,290,Incorrect
2,relearn,71,339,A,19.311809759369083,33.63309189557663,0.9655904879684541,0.5283073720832697,B,361,Incorrect
2,relearn,71,340,A,37.00576661460162,61.12074630048285,1.8502883307300808,0.9600824377976123,A,403,Correct
2,relearn,71,341,A,16.32071110218656,43.90407818323516,0.8160355551093281,0.6896436474154174,A,277,Correct
2,relearn,71,342,B,42.579692039146266,25.723062918847454,2.1289846019573133,0.4040569274683959,B,489,Correct
2,relearn,71,343,A,51.944309520298546,60.55169678250718,2.5972154760149273,0.9511438288716063,100,324,Correct
2,relearn,71,344,A,57.2702136491025,83.37731369228572,2.863510682455125,1.3096877808586824,A,205,Correct
2,relearn,71,345,B,74.79249519746588,41.97046309485723,3.739624759873294,0.659270492632825,B,20,Correct
2,relearn,71,346,B,70.05483334169199,59.21223735605423,3.502741667084599,0.9301036494019754,A,194,Incorrect
2,relearn,71,347,A,31.747809845629984,53.030559114660534,1.5873904922814992,0.8330020746518839,B,263,Incorrect
2,relearn,71,348,A,57.73729442212422,81.16909833145155,2.8868647211062113,1.2750012150829786,A,130,Correct
2,relearn,71,349,B,67.20270831466456,44.32836719440155,3.360135415733228,0.6963083636178135,B,281,Correct
2,relearn,71,350,B,57.91397907161266,25.58080013373643,2.8956989535806326,0.4018222688654758,A,283,Incorrect
2,relearn,71,351,B,66.51625635862915,47.05401888858374,3.3258128179314577,0.7391228003112502,B,174,Incorrect
2,relearn,71,352,B,52.303143162412724,21.191388268410886,2.615157158120636,0.33287354851704287,A,1899,Incorrect
2,relearn,71,353,B,55.25806673022215,24.632741683105856,2.7629033365111075,0.3869302015471021,B,1798,Correct
2,relearn,71,354,A,24.45777912902006,42.74765999504809,1.222888956451003,0.6714786729929869,100,826,Correct
2,relearn,71,355,A,36.65650701788208,52.06180489222649,1.8328253508941037,0.8177849189102193,B,422,Correct
2,relearn,71,356,B,57.43693931963283,29.72635819308001,2.871846965981641,0.4669405425867945,A,477,Incorrect
2,relearn,71,357,B,63.85895751541319,42.3476737993821,3.1929478757706597,0.6651957045237787,A,384,Incorrect
2,relearn,71,358,B,85.765420001678,61.79822440356566,4.288271000083899,0.9707242389556768,A,606,Incorrect
2,relearn,71,359,A,33.92055051625016,65.88798956751954,1.696027525812508,1.0349661199256015,A,369,Correct
2,relearn,71,360,B,79.50485355724388,60.4832665359521,3.975242677862194,0.9500689290723024,B,456,Correct
2,relearn,71,361,A,60.535723354001526,83.69984450979051,3.0267861677000765,1.314754083092829,A,826,Correct
2,relearn,71,362,A,42.52151503932788,71.28764011928868,2.126075751966394,1.1197836324525516,B,861,Incorrect
2,relearn,71,363,A,53.985414017499735,77.22246266451313,2.6992707008749868,1.2130076069947329,A,453,Incorrect
2,relearn,71,364,A,49.66240626374278,56.916771101846635,2.483120313187139,0.8940465497980662,B,205,Incorrect
2,relearn,71,365,B,35.301497483170145,11.355044221353161,1.7650748741585074,0.1783646175349516,A,1271,Incorrect
2,relearn,71,366,B,55.01110287252061,48.25373645492615,2.7505551436260305,0.7579679197752698,B,381,Incorrect
2,relearn,71,367,B,40.549186591011605,27.762225073341956,2.0274593295505805,0.4360880116885872,A,543,Incorrect
2,relearn,71,368,A,41.40248451201229,64.3435543047662,2.0701242256006145,1.010706187548547,A,322,Incorrect
2,relearn,71,369,B,44.41828949139508,34.912364120745096,2.220914474569754,0.5484021332059233,B,1048,Correct
2,relearn,71,370,B,75.7225813877951,43.648005054057826,3.786129069389755,0.6856212601083912,B,295,Incorrect
2,relearn,71,371,B,75.38746042181447,62.66834280441176,3.7693730210907233,0.9843920268349337,A,300,Incorrect
2,relearn,71,372,B,67.99239996187762,55.471703507827996,3.399619998093881,0.8713474811115179,B,925,Correct
2,relearn,71,373,B,63.103444977397196,44.153417551379285,3.1551722488698597,0.6935602610514789,A,1098,Correct
2,relearn,71,374,B,60.43195806280483,33.775923167526585,3.0215979031402416,0.530550960456574,B,881,Correct
2,relearn,71,375,B,72.51077344052315,49.85123058788482,3.625538672026158,0.7830612989365486,B,3084,Correct
2,relearn,71,376,A,30.037890864646897,58.66149665770731,1.501894543232345,0.9214526347421773,A,2503,Correct
2,relearn,71,377,A,63.32477142771593,86.34767901742313,3.1662385713857963,1.35634617027833,A,527,Incorrect
2,relearn,71,378,A,40.07751552081265,62.87861669331129,2.0038757760406325,0.9876950013579763,A,1728,Correct
2,relearn,71,379,A,56.404441427900665,74.6477130223308,2.8202220713950332,1.172563534191168,B,2428,Incorrect
2,relearn,71,380,B,62.431592202953496,46.73752974366047,3.1215796101476747,0.7341514004480909,B,825,Incorrect
2,relearn,71,381,B,85.14231500864669,62.9575933222109,4.257115750432335,0.9889355633437579,A,51,Incorrect
2,relearn,71,382,B,61.01082805458781,31.57213114638541,3.0505414027293902,0.49593387633828945,B,62,Correct
2,relearn,71,383,A,65.25151135619679,81.9875243921615,3.262575567809839,1.2878570215821428,100,97,Correct
2,relearn,71,384,B,68.10359282896897,35.527335362830115,3.405179641448449,0.5580620788874397,B,1062,Incorrect
2,relearn,71,385,A,42.641223961054756,60.17779054363173,2.1320611980527375,0.9452705234056938,A,197,Correct
2,relearn,71,386,B,33.256052156462175,14.177949220873398,1.6628026078231088,0.222706705576325,B,719,Correct
2,relearn,71,387,A,67.19246772999364,87.89238095395038,3.3596233864996816,1.38061029155723,A,720,Correct
2,relearn,71,388,B,44.00257456582136,27.243475215316536,2.200128728291068,0.4279395079734702,B,87,Correct
2,relearn,71,389,A,49.090964013155784,67.48067173374466,2.454548200657789,1.0599839128901831,A,74,Correct
2,relearn,71,390,A,67.6925320713691,85.34862356437242,3.384626603568455,1.3406530439191653,B,290,Incorrect
2,relearn,71,391,B,74.93841236833894,52.421393502282,3.7469206184169472,0.8234333235885443,44,2511,Correct
2,relearn,71,392,B,47.982052782272795,25.29838597401043,2.39910263911364,0.3973861176181512,A,61,Correct
2,relearn,71,393,B,74.69572822723539,52.30986992100953,3.7347864113617697,0.8216815152704061,B,367,Incorrect
2,relearn,71,394,B,31.17940445533912,15.765407842898387,1.558970222766956,0.24764244730048238,100,48,Incorrect
2,relearn,71,395,B,65.15941609110153,55.79709180043478,3.257970804555077,0.8764586684596058,A,1313,Incorrect
2,relearn,71,396,B,40.036536951758734,22.388042412884424,2.0018268475879366,0.3516705478628721,B,39,Correct
2,relearn,71,397,B,65.77607873966652,42.359032527926374,3.2888039369833257,0.6653741270145228,A,382,Incorrect
2,relearn,71,398,B,41.024889915443296,16.473055259328024,2.0512444957721647,0.2587581469244181,100,264,Correct
2,relearn,71,399,B,64.1013681556135,53.61002273510348,3.205068407780675,0.8421042679169143,B,236,Correct
2,relearn,71,400,B,37.92238357585236,27.92868157508139,1.896119178792618,0.43870270430362157,59,252,Correct
2,relearn,71,401,A,13.908651937620355,38.59291347328384,0.6954325968810179,0.6062160672414753,B,244,Correct
2,relearn,71,402,B,50.88053581902376,36.30493802536652,2.5440267909511878,0.5702766329476208,A,331,Incorrect
2,relearn,71,403,A,43.19317022117854,55.54891908886117,2.159658511058927,0.8725603806221004,1073742048,295,Correct
2,relearn,71,404,B,53.905064572297086,44.686763793287824,2.6952532286148543,0.7019380442284769,B,369,Correct
2,relearn,71,405,A,30.25708839142757,59.55150896655931,1.5128544195713785,0.9354329153976472,A,326,Correct
2,relearn,71,406,A,44.55114740081665,57.22641740606398,2.2275573700408327,0.8989104625707683,A,1059,Incorrect
2,relearn,71,407,A,17.69042422479259,48.12733597534472,0.8845212112396296,0.7559824256849538,B,361,Incorrect
2,relearn,71,408,B,75.66599111248775,57.49103083793308,3.7832995556243874,0.903067000638774,B,389,Correct
2,relearn,71,409,B,77.1121790099971,50.444812258991455,3.8556089504998554,0.7923852580228193,A,251,Incorrect
2,relearn,71,410,B,60.100171945535095,46.27478975342417,3.0050085972767544,0.7268826976788479,B,234,Incorrect
2,relearn,71,411,B,70.49757134995593,40.41875598574295,3.5248785674977965,0.6348963343602426,A,386,Incorrect
2,relearn,71,412,A,20.55510041263273,38.49024353583633,1.0277550206316364,0.6046033316353271,A,4757,Correct
2,relearn,71,413,B,58.35395927909385,25.778185510729593,2.9176979639546925,0.40492279111691465,A,293,Incorrect
2,relearn,71,414,A,54.87326945301816,79.47451730608853,2.743663472650908,1.2483827985820128,B,804,Incorrect
2,relearn,71,415,B,42.63185981011533,29.200384997536318,2.1315929905057662,0.45867857495126846,A,734,Correct
2,relearn,71,416,A,56.499141123737445,66.69821605370127,2.8249570561868724,1.0476931278092638,32,388,Incorrect
2,relearn,71,417,A,61.67265086421624,70.77391495195295,3.0836325432108116,1.111714056394221,A,256,Incorrect
2,relearn,71,418,A,42.68408554953308,66.61781344280219,2.134204277476654,1.0464301665506137,B,45,Incorrect
2,relearn,71,419,A,35.119274972541284,44.68692421760821,1.7559637486270643,0.7019405641678088,A,166,Correct
2,relearn,71,420,B,41.02266238404485,22.77679509359437,2.0511331192022424,0.35777706069178056,A,101,Incorrect
2,relearn,71,421,A,48.38709401461129,59.7030866941694,2.419354700730565,0.9378138927751857,100,55,Incorrect
2,relearn,71,422,A,66.48847034370803,82.11011641059343,3.324423517185402,1.2897826925046152,A,384,Correct
2,relearn,71,423,A,19.525451564078345,32.28985020593351,0.9762725782039172,0.507207780962378,A,252,Correct
2,relearn,71,424,A,28.789682124741386,60.689501012116544,1.4394841062370693,0.9533084526484781,B,263,Incorrect
2,relearn,71,425,A,24.482865771978705,41.57866044269966,1.2241432885989354,0.6531160709644489,32,923,Correct
2,relearn,71,426,B,31.472667878891414,13.12422203290577,1.5736333939445706,0.20615479761329034,A,251,Correct
2,relearn,71,427,A,49.80765099571485,80.05188171650593,2.4903825497857426,1.2574520175330703,A,288,Incorrect
2,relearn,71,428,B,49.1542416990515,28.938621763632646,2.457712084952575,0.4545668076882102,B,257,Correct
2,relearn,71,429,B,50.39248714388971,23.117387106693553,2.5196243571944854,0.36312706752289936,A,769,Incorrect
2,relearn,71,430,B,63.47473947782477,32.497441174155476,3.173736973891238,0.5104686122659665,100,281,Incorrect
2,relearn,71,431,A,59.606970699058124,77.85191401405112,2.980348534952906,1.2228950056722363,A,324,Correct
2,relearn,71,432,B,61.63808379679904,52.03888076721679,3.081904189839952,0.8174248275966172,B,237,Correct
2,relearn,71,433,B,50.275572752456284,33.3863119517858,2.5137786376228144,0.5244309617909368,A,231,Correct
2,relearn,71,434,A,29.99750911473845,56.00893003242202,1.4998754557369225,0.8797862156264088,B,281,Correct
2,relearn,71,435,B,69.04147947343998,47.327323583264544,3.4520739736719985,0.7434158604162542,B,289,Incorrect
2,relearn,71,436,B,85.76848418266046,61.513334554066105,4.288424209133023,0.9662491996643262,100,213,Correct
2,relearn,71,437,B,89.10121397642956,66.87132464206846,4.4550606988214785,1.0504123111567019,A,412,Incorrect
2,relearn,71,438,A,60.77868565240794,86.34165287625424,3.0389342826203967,1.356251511874202,B,1353,Incorrect
2,relearn,71,439,B,74.88369626705519,53.271728491108114,3.7441848133527595,0.8367903543584766,100,455,Correct
2,relearn,71,440,B,34.14455691306154,12.400175332747438,1.707227845653077,0.19478149864292357,107,1129,Correct
2,relearn,71,441,B,73.7169371404279,41.725993757357166,3.685846857021395,0.6554303772592343,A,1903,Incorrect
2,relearn,71,442,B,81.38672229484519,52.27908062086889,4.069336114742259,0.8211978780747512,A,1728,Correct
2,relearn,71,443,A,38.77353457026271,55.313934003428834,1.9386767285131357,0.8688692435316135,A,4502,Incorrect
2,relearn,71,444,B,57.83173581940006,27.293214189122203,2.891586790970003,0.4287208059469951,A,4411,Incorrect
2,relearn,71,445,B,54.65213667890087,23.98554255703481,2.7326068339450433,0.3767640214477296,100,548,Correct
2,relearn,71,446,A,44.00172522355996,73.73376411053059,2.200086261177998,1.158207258255828,107,3,Correct
2,relearn,71,447,A,52.01525216842343,60.44815188339395,2.6007626084211717,0.9495173493997522,B,1704,Incorrect
2,relearn,71,448,B,83.4852807090956,62.33138332981452,4.17426403545478,0.9790990797851731,100,66,Incorrect
2,relearn,71,449,B,56.83655523123337,42.862440804748566,2.8418277615616683,0.6732816457356273,B,347,Correct
2,relearn,71,450,B,75.80779004657316,61.45532539601665,3.7903895023286576,0.9653379939404807,A,769,Incorrect
2,relearn,71,451,A,28.475995085783268,47.5363742063261,1.4237997542891634,0.7466996199244471,B,76,Incorrect
2,relearn,71,452,A,22.475678270893596,36.43960794902044,1.1237839135446799,0.5723920231616743,A,483,Correct
2,relearn,71,453,B,58.317449502495414,51.07283937768458,2.9158724751247704,0.802250284934527,A,3605,Incorrect
2,relearn,71,454,B,74.99617363695975,45.61004223245345,3.749808681847987,0.7164408680369798,107,869,Correct
2,relearn,71,455,B,86.11241353785691,60.22531823948883,4.305620676892846,0.9460170867064275,100,298,Correct
2,relearn,71,456,B,63.06242430145709,32.448990439991036,3.1531212150728543,0.5097075499134063,A,83,Incorrect
2,relearn,71,457,B,46.89989659275001,25.11306941153947,2.3449948296375003,0.3944751718619147,107,3737,Correct
2,relearn,71,458,B,54.69049966219343,24.228092920020686,2.7345249831096714,0.38057399364013933,A,422,Incorrect
2,relearn,71,459,B,73.26809627628886,42.92594926109756,3.6634048138144433,0.6742792342351615,B,235,Correct
2,relearn,71,460,A,25.275571743974172,35.68660020713595,1.2637785871987086,0.5605638052116716,A,347,Correct
2,relearn,71,461,B,82.2637527442136,55.3900254692966,4.113187637210681,0.8700644854824688,B,9,Correct
2,relearn,71,462,A,28.97279775742861,38.95067240200634,1.4486398878714306,0.6118357313526291,100,139,Correct
2,relearn,71,463,A,42.79669201993931,64.82708313550357,2.1398346009969655,1.018301440660764,A,292,Incorrect
2,relearn,71,464,A,24.029511035568206,47.64117465215983,1.2014755517784104,0.7483458214780679,B,352,Correct
2,relearn,71,465,A,18.32453048722054,32.02448597758577,0.916226524361027,0.503039449410864,A,3952,Correct
2,relearn,71,466,A,24.6501410817926,40.60756757988011,1.23250705408963,0.6378621799455121,A,1363,Correct
2,relearn,71,467,B,71.44363513001628,45.269351184888336,3.5721817565008136,0.7110893055761079,B,339,Correct
2,relearn,71,468,B,65.91497578321605,35.825259175244234,3.2957487891608026,0.562741855189488,A,288,Correct
2,relearn,71,469,A,18.778371541531985,37.981489017180394,0.9389185770765992,0.5966118343438768,A,279,Correct
2,relearn,71,470,A,35.111124630212586,50.26254627406849,1.7555562315106295,0.7895222306266529,B,323,Correct
2,relearn,71,471,A,41.25120347800546,72.5804813058948,2.062560173900273,1.140091534323052,A,239,Incorrect
2,relearn,71,472,B,46.56743131879708,16.54760015523617,2.328371565939854,0.2599290954111564,B,275,Incorrect
2,relearn,71,473,A,33.2709358087881,62.61730470102856,1.663546790439405,0.9835903221817247,A,295,Incorrect
2,relearn,71,474,A,67.06169611834761,89.93634582915121,3.353084805917381,1.4127168167378623,B,370,Incorrect
2,relearn,71,475,A,49.47973664067556,74.23125684780457,2.473986832033778,1.1660218558989992,A,266,Incorrect
2,relearn,71,476,B,57.482807101543244,39.512653748062135,2.874140355077162,0.620663313693746,B,289,Correct
2,relearn,71,477,B,30.391337701108053,12.745342704233035,1.5195668850554025,0.20020337503551386,A,163,Correct
2,relearn,71,478,B,82.80245110766842,66.42233971436193,4.140122555383421,1.043359672404425,B,218,Correct
2,relearn,71,479,A,20.48815022876714,40.93497041711864,1.024407511438357,0.6430050116866772,A,275,Correct
2,relearn,71,480,A,60.43702141193734,83.98597106734543,3.021851070596867,1.3192485485488865,B,323,Correct
2,relearn,71,481,B,62.94128757814276,45.04057922911167,3.147064378907138,0.7074957640980313,A,448,Incorrect
2,relearn,71,482,B,50.443189069499645,27.04188772232451,2.5221594534749823,0.4247729790382735,B,1338,Incorrect
2,relearn,71,483,A,16.177828911023795,33.16392397304674,0.8088914455511897,0.5209376995896704,B,72,Correct
2,relearn,71,484,B,47.16635523119934,23.22231311421596,2.358317761559967,0.3647752413949138,B,222,Correct
2,relearn,71,485,A,27.481496897600664,53.289475537337054,1.3740748448800333,0.8370691243087554,B,664,Incorrect
2,relearn,71,486,A,24.83369419071272,40.690507571811864,1.241684709535636,0.6391649982922201,A,403,Incorrect
2,relearn,71,487,B,65.60155192484933,43.96893405994224,3.2800775962424664,0.690662401144443,B,2034,Incorrect
2,relearn,71,488,B,82.75910887797752,61.103562537425404,4.137955443898876,0.9598125158787009,A,497,Incorrect
2,relearn,71,489,B,47.60113526781257,26.783982069925685,2.3800567633906287,0.4207218065237963,B,242,Correct
2,relearn,71,490,A,55.61116548508469,76.29274255366694,2.7805582742542345,1.1984035976440872,100,631,Correct
2,relearn,71,491,A,64.77058923969933,76.43336957393859,3.238529461984967,1.2006125617129955,B,487,Incorrect
2,relearn,71,492,A,57.36582108129734,72.99941444747759,2.868291054064867,1.146672120722761,A,245,Correct
2,relearn,71,493,A,19.631215361071312,43.96217287265556,0.9815607680535656,0.6905561966628959,B,238,Incorrect
2,relearn,71,494,A,30.84062706941095,58.83059796628741,1.5420313534705474,0.9241088718859157,A,287,Correct
2,relearn,71,495,A,28.734988843699067,42.392556809074,1.4367494421849534,0.6659007251913741,B,314,Incorrect
2,relearn,71,496,B,80.39430633465228,57.19139541993546,4.019715316732614,0.8983603384990909,A,651,Correct
2,relearn,71,497,A,15.706820676140243,38.675610373907986,0.7853410338070121,0.6075150671188526,B,200,Correct
2,relearn,71,498,A,36.86969014237496,45.014536736287916,1.843484507118748,0.70708668957735,A,348,Incorrect
2,relearn,71,499,A,55.709772142839356,81.50906079067151,2.7854886071419678,1.2803413329048874,B,230,Incorrect
2,relearn,71,500,B,80.14405690984461,59.305496860726365,4.00720284549223,0.9315685662757525,A,464,Incorrect
2,relearn,71,501,B,81.85903034189494,56.77737400066739,4.092951517094747,0.891856905253084,B,661,Correct
2,relearn,71,502,A,65.59359171503188,79.97302535234394,3.279679585751594,1.25621334466137,A,457,Correct
2,relearn,71,503,A,63.82347942081938,84.60815767388567,3.191173971040969,1.3290218329102306,B,595,Correct
2,relearn,71,504,B,39.24276098879823,20.453854396082775,1.9621380494399117,0.3212883935416447,A,676,Incorrect
2,relearn,71,505,A,20.616225736069207,36.870776727836414,1.0308112868034605,0.5791648065016021,B,90,Incorrect
2,relearn,71,506,B,84.69964551020507,61.42293977251419,4.234982275510253,0.9648292817560945,B,1247,Incorrect
2,relearn,71,507,B,68.85367396081988,38.43884683332876,3.442683698040994,0.6037959941202447,A,209,Incorrect
2,relearn,71,508,A,18.584920449107248,40.544449537706896,0.9292460224553624,0.6368707240575103,B,303,Incorrect
2,relearn,71,509,A,23.367474259301943,37.39935951610842,1.168373712965097,0.5874677655238487,A,245,Incorrect
2,relearn,71,510,A,31.51101780513411,59.73073146639136,1.5755508902567055,0.9382481358417989,A,447,Correct
2,relearn,71,511,B,67.35386965347116,57.04425409870176,3.3676934826735585,0.8960490480299546,A,311,Correct
2,relearn,71,512,A,14.741263977128913,36.880492487072246,0.7370631988564456,0.5793174212907987,A,241,Correct
2,relearn,71,513,A,13.441157910619111,30.93177283804816,0.6720578955309555,0.485875151552602,A,266,Incorrect
2,relearn,71,514,B,53.318213856551665,46.113956658651915,2.665910692827583,0.7243563373338948,B,448,Correct
2,relearn,71,515,A,13.07717789969729,36.24192669681703,0.6538588949848645,0.5692868533133009,A,502,Incorrect
2,relearn,71,516,A,60.221612807071594,76.55119281877258,3.0110806403535797,1.202463324914958,B,250,Incorrect
2,relearn,71,517,B,50.64994271839319,38.20802545035309,2.5324971359196597,0.6001702603150055,A,259,Incorrect
2,relearn,71,518,A,20.30099436198622,46.83118440033677,1.015049718099311,0.7356225243550346,B,1680,Incorrect
2,relearn,71,519,B,30.67906038465798,14.72308491279368,1.5339530192328992,0.23126967700105677,A,1768,Incorrect
2,relearn,71,520,A,23.443368484825083,39.71652381493621,1.1721684242412542,0.6238656972156383,B,728,Correct
2,relearn,71,521,B,44.13266816202122,28.54035726515053,2.206633408101061,0.4483108835751249,A,390,Incorrect
2,relearn,71,522,B,46.148034285447494,24.373496080625657,2.3074017142723746,0.3828579811459659,B,264,Incorrect
2,relearn,71,523,B,65.76199953010857,35.92125791599125,3.288099976505429,0.5642497998829116,A,184,Incorrect
2,relearn,71,524,A,20.125331856707827,49.872742140281844,1.0062665928353913,0.7833992016114376,B,303,Incorrect
2,relearn,71,525,B,46.24064966111115,20.087406153599662,2.3120324830555576,0.31553223800911545,B,236,Correct
2,relearn,71,526,A,41.94129704856484,50.2984218918851,2.0970648524282423,0.7900857635135313,B,101,Incorrect
2,relearn,71,527,A,17.03893538486354,31.982901601847406,0.8519467692431769,0.5023862435642452,A,119,Incorrect
2,relearn,71,528,A,52.61068633336993,64.03913533279508,2.6305343166684962,1.0059243855187578,B,262,Correct
2,relearn,71,529,B,38.84130182531947,20.657168423559952,1.9420650912659736,0.324482042817115,B,312,Correct
2,relearn,71,530,A,30.187747923867086,46.84178783331033,1.5093873961933542,0.7357890826906973,B,204,Incorrect
2,relearn,71,531,A,67.90190828214915,81.05398178098609,3.3950954141074576,1.2731929685367342,A,462,Correct
2,relearn,71,532,A,35.59336404272234,50.77082614562622,1.779668202136117,0.7975062721789197,B,250,Correct
2,relearn,71,533,B,37.952512541947826,11.568373757666318,1.8976256270973915,0.18171559005532728,A,223,Correct
2,relearn,71,534,A,58.47666620097725,69.12468412680114,2.9238333100488627,1.0858079991723673,B,210,Incorrect
2,relearn,71,535,B,52.68434393090295,31.32058096300436,2.6342171965451473,0.49198253529769415,100,266,Correct
2,relearn,71,536,B,33.50755805230774,19.693974516677972,1.675377902615387,0.3093522283079006,B,404,Correct
2,relearn,71,537,B,50.98573959542581,37.77902823071014,2.5492869797712903,0.5934315877468018,A,547,Incorrect
2,relearn,71,538,A,45.18842531581209,55.70793869956259,2.2594212657906043,0.875058254825882,B,70,Correct
2,relearn,71,539,A,40.83576705148256,61.11161017638635,2.041788352574128,0.959938927895893,107,20,Correct
2,relearn,71,540,B,34.60638471672617,10.253366130788493,1.7303192358363082,0.16105949855525767,A,225,Correct
2,relearn,71,541,B,78.59807376372677,60.60175565807284,3.929903688186339,0.9519301518502264,B,226,Correct
2,relearn,71,542,A,57.45789385062392,80.11363748694997,2.872894692531196,1.2584220749067894,B,329,Correct
2,relearn,71,543,A,66.01271481589227,86.95832403939363,3.300635740794613,1.3659381598531988,B,316,Incorrect
2,relearn,71,544,A,56.4429003533444,75.44733584966039,2.8221450176672196,1.1851239801910747,A,99,Correct
2,relearn,71,545,B,46.39153448834383,21.010585958342,2.3195767244171916,0.3300335124717204,A,380,Incorrect
2,relearn,71,546,A,63.14794706098246,88.29301923659587,3.157397353049123,1.3869035029847594,B,284,Correct
2,relearn,71,547,B,85.10617289032271,67.15561246229696,4.255308644516135,1.0548778937943764,A,309,Incorrect
2,relearn,71,548,A,53.34647592243298,78.81892115811902,2.6673237961216487,1.2380847183710992,B,322,Incorrect
2,relearn,71,549,B,49.633629324946796,32.855146820752786,2.48168146624734,0.5160874394234549,A,295,Correct
2,relearn,71,550,B,72.25960383115552,55.645821340354324,3.6129801915577757,0.8740825176291364,A,363,Correct
2,relearn,71,551,A,14.260096888035985,30.418556231458975,0.7130048444017993,0.47781356394779767,B,125,Incorrect
2,relearn,71,552,B,75.22203523485996,60.70735373032546,3.761101761742998,0.9535888824903368,B,3643,Correct
2,relearn,71,553,A,14.722064717405171,43.93619876945438,0.7361032358702586,0.6901481964038939,A,232,Correct
2,relearn,71,554,A,30.766033688912877,59.80689004183774,1.5383016844456439,0.9394444319474501,A,4316,Incorrect
2,relearn,71,555,A,11.63821700567507,35.253784239702554,0.5819108502837536,0.5537651478934459,A,309,Incorrect
2,relearn,71,556,B,56.352790890493644,49.23147978317631,2.8176395445246825,0.7733262760609055,A,27,Correct
2,relearn,71,557,B,77.44315625961403,65.37759342971927,3.8721578129807015,1.0269488361409318,B,442,Incorrect
2,relearn,71,558,B,71.82236316966458,43.05003697650873,3.591118158483229,0.6762283995108438,A,652,Correct
2,relearn,71,559,A,30.588663990569458,57.14399446482609,1.5294331995284727,0.8976157660373671,B,4286,Incorrect
2,relearn,71,560,A,36.43721539880255,69.27611403859508,1.8218607699401275,1.0881866546644954,B,2359,Correct
2,relearn,71,561,B,34.744090053932574,16.012343890375043,1.7372045026966287,0.2515213096637782,107,4802,Correct
2,relearn,71,562,A,58.743217188850544,80.65022883886908,2.937160859442527,1.2668508321526337,B,67,Correct
2,relearn,71,563,B,54.113070172587584,46.06039665763831,2.7056535086293794,0.7235150188053419,A,891,Incorrect
2,relearn,71,564,B,64.22897981661905,48.30546389149337,3.211448990830952,0.758780452448813,B,370,Correct
2,relearn,71,565,A,27.565244925273937,41.50473632901033,1.3782622462636969,0.6519548737020012,A,1318,Incorrect
2,relearn,71,566,B,78.41225301261011,50.93651435628563,3.9206126506305052,0.8001088965058898,A,4432,Correct
2,relearn,71,567,A,59.15808151552881,69.68041800669936,2.9579040757764403,1.094537446544563,B,447,Incorrect
2,relearn,71,568,A,55.8479039401108,73.32395908294461,2.7923951970055394,1.1517700559354866,A,156,Incorrect
2,relearn,71,569,B,57.27968244797443,49.789524929313544,2.8639841223987212,0.7820920287182864,B,810,Correct
2,relearn,71,570,B,62.93484381745336,50.58504664899667,3.146742190872668,0.7945880546699247,B,1115,Correct
2,relearn,71,571,A,44.951406888713485,56.644936150330366,2.2475703444356743,0.889776576364704,B,5141,Correct
2,relearn,71,572,B,50.46750086306511,43.080613276851835,2.523375043153256,0.676708690913503,A,4437,Incorrect
2,relearn,71,573,A,21.51756566205938,43.23735569687004,1.075878283102969,0.6791707950896786,A,1851,Correct
2,relearn,71,574,A,62.9197138950469,84.96936753553453,3.145985694752345,1.3346957041490317,B,1197,Incorrect
2,relearn,71,575,A,53.289109108362574,71.39234862665697,2.664455455418129,1.1214283898401343,A,2347,Correct
2,relearn,71,576,A,41.77420934580806,48.67304751426815,2.088710467290403,0.7645544424932587,B,772,Incorrect
2,relearn,71,577,A,19.939361557009548,48.931265103756964,0.9969680778504774,0.7686105149040873,92,418,Correct
2,relearn,71,578,B,50.9073200406567,28.919049281839584,2.5453660020328353,0.4542593638631421,B,357,Correct
2,relearn,71,579,A,55.05066803409062,62.96112162680434,2.752533401704531,0.9889909858227098,A,307,Correct
2,relearn,71,580,A,43.63838594909198,58.28965292228424,2.181919297454599,0.9156117270047349,B,293,Correct
2,relearn,71,581,A,30.944216640511094,42.6387597316339,1.5472108320255546,0.6697680716554066,A,487,Incorrect
2,relearn,71,582,A,45.7868972418603,67.22511029651781,2.289344862093015,1.0559695632215196,107,1050,Correct
2,relearn,71,583,A,24.429377903877025,50.527483533077906,1.2214688951938513,0.7936838553594839,A,486,Correct
2,relearn,71,584,B,58.67513496566132,25.804073758143943,2.933756748283066,0.4053294427563709,B,3849,Correct
2,relearn,71,585,B,66.89904636830252,37.907854964841604,3.344952318415126,0.5954551933544687,B,1448,Correct
2,relearn,71,586,B,53.443629277789675,43.46424427530253,2.6721814638894834,0.6827347525456133,B,484,Correct
2,relearn,71,587,B,75.64007019499992,62.083603386640775,3.782003509749996,0.9752069615392653,B,3751,Correct
2,relearn,71,588,B,68.11221000464053,45.794257713522285,3.4056105002320267,0.7193345180469967,A,338,Correct
2,relearn,71,589,A,57.52816652477489,69.51914696028489,2.876408326238744,1.092004206871301,A,431,Incorrect
2,relearn,71,590,A,12.312287434152466,35.62309783422888,0.6156143717076233,0.5595663122706196,B,4835,Incorrect
2,relearn,71,591,A,30.193505817105255,39.65978965361316,1.5096752908552629,0.622974519093538,A,1949,Incorrect
2,relearn,71,592,A,50.641947456657554,59.1849117949817,2.5320973728328777,0.929674420492372,B,329,Correct
2,relearn,71,593,A,56.1655357051478,74.36696093196888,2.8082767852573904,1.168153490668363,A,107,Incorrect
2,relearn,71,594,A,42.82034145734046,74.84218120582916,2.1410170728670233,1.1756182332743448,107,811,Incorrect
2,relearn,71,595,A,23.461795131523647,53.45559774738423,1.1730897565761824,0.8396785658821669,A,3937,Correct
2,relearn,71,596,A,45.99140220203557,59.91425383482735,2.2995701101017785,0.9411308984640385,A,8764,Correct
2,relearn,71,597,B,65.05419815935633,48.91677517895305,3.252709907967817,0.7683829076975122,108,215,Incorrect
2,relearn,71,598,B,42.36602307686756,32.00017076250984,2.1183011538433782,0.502657506905599,A,58,Correct
2,relearn,71,599,A,39.47654430765546,72.4564015279839,1.9738272153827727,1.1381424937293323,107,606,Incorrect
2,relearn,71,600,B,62.4487107455688,43.342819589265844,3.1224355372784403,0.6808274180375268,A,298,Incorrect
2,relearn,71,601,A,20.561976400708055,41.70974493608521,1.0280988200354029,0.6551751413715469,A,726,Correct
2,relearn,71,602,B,44.61315266105122,19.19104316351895,2.230657633052561,0.30145220108617876,A,806,Incorrect
2,relearn,71,603,B,52.2675762170815,40.943040781574695,2.613378810854075,0.6431317806751118,A,725,Incorrect
2,relearn,71,604,A,58.64445799950358,67.97820294235471,2.932222899975179,1.0677991148396881,A,659,Correct
2,relearn,71,605,B,69.86577815862964,53.38930352562351,3.4932889079314817,0.8386372186818724,A,742,Incorrect
2,relearn,71,606,B,66.30507587311504,33.48112782648613,3.315253793655752,0.5259203260679481,A,739,Incorrect
2,relearn,71,607,B,40.39405889714594,21.781767902443434,2.019702944857297,0.34214721012257127,A,997,Incorrect
2,relearn,71,608,A,38.049473622125426,60.19253353652416,1.9024736811062712,0.9455021057965077,B,584,Incorrect
2,relearn,71,609,A,48.26575920972013,57.46296544410777,2.4132879604860067,0.9026261504634656,A,808,Correct
2,relearn,71,610,A,52.78756358264299,81.63735981628034,2.6393781791321493,1.2823566492864644,B,1479,Incorrect
2,relearn,71,611,A,22.50031856088487,37.702789410142586,1.1250159280442436,0.5922340311537351,A,507,Correct
2,relearn,71,612,A,46.72637221641108,54.17809596288765,2.336318610820554,0.8510275413124534,B,6945,Incorrect
2,relearn,71,613,A,62.60087801895524,74.93080381130214,3.1300439009477623,1.1770103139058243,A,449,Correct
2,relearn,71,614,A,48.06860351252002,65.50674450685709,2.403430175626001,1.028977536516629,B,1330,Incorrect
2,relearn,71,615,B,43.9489619046484,25.046173712047494,2.19744809523242,0.3934243766715111,B,3625,Correct
2,relearn,71,616,A,33.95151375204244,50.136237295804726,1.697575687602122,0.7875381738356737,A,345,Correct
2,relearn,71,617,B,84.17671984680918,68.34775020769817,4.208835992340459,1.0736039497094743,B,8268,Correct
2,relearn,71,618,B,51.446981884506386,20.59235105907902,2.572349094225319,0.32346389403672327,B,5881,Correct
2,relearn,71,619,A,23.77352171276992,43.188458049057104,1.188676085638496,0.6784027126339439,B,516,Incorrect
2,relearn,71,620,B,40.12973634539914,29.398135633789543,2.006486817269957,0.4617848346817478,B,368,Correct
2,relearn,71,621,A,35.72377860065497,58.49328976133953,1.7861889300327483,0.9188104469926167,B,5533,Incorrect
2,relearn,71,622,B,68.2227274355711,51.53937474556935,3.411136371778555,0.80957860535646,B,10137,Correct
2,relearn,71,623,A,37.0518558217588,63.77058552316165,1.85259279108794,1.0017060149734212,A,191,Correct
2,relearn,71,624,A,33.45714323022852,59.90765187774809,1.672857161511426,0.9410271951647409,B,72378,Incorrect
2,relearn,71,625,A,41.171188914495055,64.85678730243451,2.0585594457247525,1.0187680326238202,B,469,Incorrect
2,relearn,71,626,B,69.20877026847685,44.0799131318292,3.460438513423843,0.6924056563291543,A,627,Incorrect
2,relearn,71,627,A,16.626512934307485,44.84605715409024,0.8313256467153742,0.7044402184887895,B,289,Incorrect
2,relearn,71,628,B,77.2460058316113,53.172398838045744,3.862300291580565,0.8352300878167548,A,580,Incorrect
2,relearn,71,629,A,60.54894265406402,78.7627183115346,3.0274471327032013,1.237201886121397,A,2649,Correct
2,relearn,71,630,A,23.49890548995041,36.92309063107737,1.1749452744975204,0.579986551372114,A,441,Correct
2,relearn,71,631,B,72.68924048038343,47.040715464065094,3.6344620240191716,0.7389138306075733,A,1631,Incorrect
2,relearn,71,632,B,55.804005145597024,36.41254396486187,2.790200257279851,0.5719669030926271,A,1972,Incorrect
2,relearn,71,633,A,47.54634804528726,69.50032117528906,2.377317402264363,1.091708492132096,B,36347,Incorrect
2,relearn,71,634,A,26.829655756820134,56.26156548502599,1.3414827878410067,0.8837546040360935,B,4255,Incorrect
2,relearn,71,635,B,46.35259441176679,36.46705821878164,2.3176297205883394,0.5728232109907784,107,1775,Correct
2,relearn,71,636,A,20.07092314162115,36.642656292751,1.0035461570810575,0.5755814990866117,B,775,Incorrect
2,relearn,71,637,A,33.637721344808185,47.75518740681913,1.6818860672404095,0.750136729640334,A,261,Correct
2,relearn,71,638,A,62.71297885384179,75.84104278266398,3.1356489426920895,1.1913083142330316,A,341,Correct
2,relearn,71,639,B,58.44860183437812,40.314505173871936,2.922430091718906,0.6332587664367189,B,625,Correct
2,relearn,71,640,B,53.82824873801326,45.706817032584404,2.691412436900663,0.7179610030426998,A,377,Incorrect
2,relearn,71,641,B,85.34764923687317,57.29672856880745,4.267382461843658,0.9000149077324696,A,2597,Incorrect
2,relearn,71,642,B,69.36141852303268,38.7089325620978,3.468070926151634,0.6080384908269458,B,5152,Correct
2,relearn,71,643,A,41.29371634508942,66.09457165242893,2.064685817254471,1.0382111037271744,B,5061,Incorrect
2,relearn,71,644,B,69.53618106849662,53.67372346515123,3.4768090534248306,0.843104876644646,B,2255,Correct
2,relearn,71,645,A,25.081359306175628,53.50841124637696,1.2540679653087814,0.8405081583843966,B,29154,Incorrect
2,relearn,71,646,A,44.642133537746254,60.93342419723097,2.232106676887313,0.9571399890804568,A,657,Correct
2,relearn,71,647,A,69.49771862350673,84.83400597922244,3.4748859311753364,1.332569449794589,B,605,Incorrect
2,relearn,71,648,A,45.27346774116491,59.9769546803467,2.2636733870582453,0.9421158010423257,B,10694,Incorrect
2,relearn,71,649,A,17.724309834665497,42.48361037597252,0.8862154917332749,0.6673309912756319,B,667,Incorrect
2,relearn,71,650,A,33.125024683347576,47.37521896993397,1.656251234167379,0.7441681993907618,A,345,Correct
2,relearn,71,651,B,66.97192011257125,43.289144274075475,3.3485960056285626,0.6799842881581208,A,688,Incorrect
2,relearn,71,652,A,32.703586354684774,45.14999267876489,1.6351793177342386,0.7092144265462036,A,37,Correct
2,relearn,71,653,B,52.176014545926805,41.50880804098291,2.6088007272963405,0.6520188320041043,A,583,Incorrect
2,relearn,71,654,B,47.46414568276175,22.2823417252711,2.3732072841380876,0.350010205344445,A,536,Incorrect
2,relearn,71,655,A,43.29042610142739,69.77433967219201,2.1645213050713696,1.0960127646161866,B,428,Incorrect
2,relearn,71,656,A,59.238771774560355,85.81424509749573,2.961938588728018,1.3479670098582326,A,538,Correct
2,relearn,71,657,B,84.80679133874241,60.689826773746404,4.240339566937121,0.9533135697001943,A,396,Incorrect
2,relearn,71,658,A,56.986764882801666,82.51173380010418,2.849338244140083,1.2960912837068197,B,605,Incorrect
2,relearn,71,659,B,50.28901493179213,26.202739228416185,2.5144507465896067,0.4115916653196068,100,841,Incorrect
2,relearn,71,660,A,52.670263437329496,75.09635715781324,2.6335131718664746,1.1796108197917068,A,349,Correct
2,relearn,71,661,A,13.896964647265882,38.360129729859835,0.6948482323632942,0.6025595087503954,A,303,Correct
2,relearn,71,662,A,21.458110821688475,39.289039985194094,1.0729055410844237,0.617150796920407,A,460,Correct
2,relearn,71,663,A,34.575010031773324,63.040617945756985,1.7287505015886664,0.9902397110807551,A,413,Correct
2,relearn,71,664,A,40.986198351826296,70.45891082758101,2.0493099175913145,1.106765983179334,A,1158,Correct
2,relearn,71,665,B,46.37807236887764,35.5832099656987,2.318903618443882,0.5589397550969107,A,620,Incorrect
2,relearn,71,666,B,81.11985349116988,49.734162458580656,4.055992674558493,0.7812223970615914,B,264,Correct
2,relearn,71,667,A,10.393115789340644,33.563504417728694,0.5196557894670322,0.5272142945373252,A,231,Correct
2,relearn,71,668,B,65.10293065858116,39.546581924583386,3.255146532929058,0.6211962562442903,A,248,Incorrect
2,relearn,71,669,B,61.54533708368245,32.27480736295907,3.0772668541841224,0.50697148853749,B,356,Correct
2,relearn,71,670,B,47.070216515084105,33.9033598690812,2.353510825754205,0.5325527314835826,B,264,Correct
2,relearn,71,671,A,50.86743141181318,72.4443979059411,2.543371570590659,1.1379539412752018,B,258,Incorrect
2,relearn,71,672,A,18.824346229050896,31.750972184975026,0.9412173114525447,0.49874310480325695,A,155,Correct
2,relearn,71,673,A,13.958403174479724,35.081487115980366,0.6979201587239863,0.5510587110028445,B,197,Incorrect
2,relearn,71,674,A,28.865652976761922,58.446607013287775,1.4432826488380959,0.9180771561009728,A,236,Correct
2,relearn,71,675,B,61.626133548037835,52.884391451946556,3.0813066774018916,0.8307060783750108,B,91,Correct
2,relearn,71,676,A,37.33673443817191,67.41688907526911,1.8668367219085953,1.058982017233717,B,289,Incorrect
2,relearn,71,677,B,44.023825559707824,22.604710228757487,2.2011912779853913,0.35507395795595287,A,483,Incorrect
2,relearn,71,678,B,70.44203858560961,40.07409819841782,3.5221019292804807,0.629482462496927,A,247,Incorrect
2,relearn,71,679,B,72.70994192090959,55.538275176090046,3.6354970960454795,0.8723931864312642,B,308,Correct
2,relearn,71,680,B,45.20013516440365,22.46524337278525,2.2600067582201824,0.3528832177052446,A,317,Incorrect
2,relearn,71,681,B,45.32009347155265,22.344255314518602,2.2660046735776325,0.3509827417301316,B,213,Correct
2,relearn,71,682,A,55.32924746705524,64.78344480443921,2.766462373352762,1.0176159713593305,B,146,Incorrect
2,relearn,71,683,B,80.93049566183637,65.5152422525276,4.046524783091819,1.0291110187934815,A,227,Incorrect
2,relearn,71,684,B,82.8081325844987,63.137139650944995,4.140406629224935,0.9917558704804081,B,188,Correct
2,relearn,71,685,B,74.63081178917591,60.61788152862292,3.731540589458796,0.952183456432491,A,344,Incorrect
2,relearn,71,686,A,42.44308388611218,63.22975262637853,2.1221541943056086,0.9932106316966535,B,316,Incorrect
2,relearn,71,687,A,23.957553627956933,40.532941460212285,1.1978776813978467,0.6366899555989403,B,175,Incorrect
2,relearn,71,688,B,59.85054134679777,33.99829794071928,2.9925270673398883,0.5340440152256035,A,68,Incorrect
2,relearn,71,689,A,54.41201660190925,72.71403739841075,2.7206008300954623,1.1421894285185035,B,223,Incorrect
2,relearn,71,690,B,82.19862321500636,52.769041097205175,4.109931160750318,0.8288941592397883,A,313,Incorrect
2,relearn,71,691,A,31.593066154578366,50.93586051370318,1.5796533077289183,0.8000986259706215,B,256,Incorrect
2,relearn,71,692,A,55.73382222039228,74.92952202251809,2.7866911110196138,1.176990179614687,A,405,Correct
2,relearn,71,693,A,52.34165341847961,69.54986596036329,2.6170826709239803,1.0924867397961608,A,306,Correct
2,relearn,71,694,B,57.62126208252118,25.86104989639092,2.8810631041260586,0.40622442184310403,B,253,Correct
2,relearn,71,695,B,74.91557566878093,63.53636744620296,3.7457787834390466,0.9980269260238644,A,259,Incorrect
2,relearn,71,696,B,67.85378082320128,45.42666879416324,3.392689041160064,0.7135604448039997,B,228,Correct
2,relearn,71,697,A,52.431079164334975,65.71506270102884,2.6215539582167486,1.0322497910587243,B,285,Incorrect
2,relearn,71,698,B,80.35431226120147,55.93105574100391,4.017715613060074,0.8785629691172956,A,285,Incorrect
2,relearn,71,699,A,12.458591300751475,31.2072149362694,0.6229295650375738,0.49020178591390806,B,325,Incorrect
2,relearn,71,700,B,57.83679302368767,47.62834469880801,2.8918396511843834,0.748144289042088,A,549,Incorrect
2,relearn,71,701,A,21.40085696055938,49.40948017737185,1.0700428480279691,0.7761222997146096,B,584,Incorrect
2,relearn,71,702,A,15.26439595145981,42.74158280092872,0.7632197975729906,0.6713832126509875,A,335,Correct
2,relearn,71,703,A,56.20556877247547,85.01515775326628,2.810278438623774,1.3354149752071935,A,331,Correct
2,relearn,71,704,B,80.68897561546527,50.687201213482986,4.034448780773263,0.796192694816529,A,362,Incorrect
2,relearn,71,705,B,59.69504315791821,49.629263617147046,2.9847521578959104,0.7795746499135019,B,314,Correct
2,relearn,71,706,A,30.335639346832508,57.56048503732417,1.5167819673416256,0.9041579846516141,B,638,Incorrect
2,relearn,71,707,B,36.22648590180361,26.166850773291408,1.8113242950901807,0.4110279307847634,A,338,Incorrect
2,relearn,71,708,A,44.582665866855194,58.717581618288165,2.22913329334276,0.922333615242866,B,241,Incorrect
2,relearn,71,709,B,79.04741866745337,50.230018505035886,3.9523709333726686,0.7890112856255005,A,323,Incorrect
2,relearn,71,710,B,66.88904682481414,38.98578369137461,3.3444523412407072,0.6123872581963161,B,257,Correct
2,relearn,71,711,B,42.758296893392924,32.96908434123567,2.137914844669646,0.5178771658100414,107,3,Correct
2,relearn,71,712,A,18.538578106438468,41.034024651516674,0.9269289053219234,0.6445609519621363,A,291,Correct
2,relearn,71,713,A,55.73804033719743,76.20305681796336,2.7869020168598717,1.1969948174019964,B,188,Incorrect
2,relearn,71,714,B,79.28045714457946,50.21635394218527,3.964022857228973,0.7887966431741704,A,223,Incorrect
2,relearn,71,715,A,23.79955017957916,53.96145592579526,1.189977508978958,0.8476245675674392,B,258,Incorrect
2,relearn,71,716,A,59.47211131450719,67.97611597819777,2.973605565725359,1.0677663328833693,A,308,Correct
2,relearn,71,717,B,34.144495177873154,10.123325675759027,1.7072247588936578,0.15901682786430746,B,255,Correct
2,relearn,71,718,B,70.4341797088967,57.31712413569683,3.5217089854448353,0.9003352805479969,A,394,Incorrect
2,relearn,71,719,B,89.54970367495832,65.32120636501139,4.477485183747916,1.026063110199713,B,388,Correct
2,relearn,71,720,A,29.892465209491387,39.45074506688184,1.4946232604745695,0.6196908544037987,B,297,Incorrect
2,relearn,71,721,A,29.76436509978953,57.4710060659639,1.4882182549894765,0.9027524522562331,A,288,Correct
2,relearn,71,722,A,25.780830049261205,43.113715791896084,1.2890415024630602,0.6772286640038949,A,377,Correct
2,relearn,71,723,A,61.63414533327084,86.12228465897284,3.081707266663542,1.35280568397499,B,67,Incorrect
2,relearn,71,724,B,79.69644562394652,52.17316874607303,3.9848222811973257,0.8195342182358183,A,251,Incorrect
2,relearn,71,725,B,55.97020340150159,41.42761320289126,2.7985101700750796,0.6507434264698135,B,273,Correct
2,relearn,71,726,A,41.76563546634321,65.33247264231173,2.088281773317161,1.0262400804697134,A,284,Correct
2,relearn,71,727,B,69.42740362895104,57.21123535100891,3.471370181447552,0.8986719834076314,B,158,Correct
2,relearn,71,728,A,58.673966493668246,74.70019737725676,2.933698324683412,1.1733879565104868,B,454,Incorrect
2,relearn,71,729,B,83.08779421506975,68.99598821880846,4.154389710753487,1.0837864485768829,A,319,Incorrect
2,relearn,71,730,A,55.11623994886365,81.0324428036912,2.7558119974431827,1.2728546350725567,B,262,Incorrect
2,relearn,71,731,B,74.57221818550238,43.34746968089729,3.728610909275119,0.6809004615060662,A,231,Incorrect
2,relearn,71,732,B,64.04718428299532,35.91700121660002,3.202359214149766,0.5641829358052314,B,272,Correct
2,relearn,71,733,A,29.409156593715814,50.13385890727585,1.4704578296857906,0.7875008141960251,B,276,Incorrect
2,relearn,71,734,B,44.81558665653014,18.909366757527767,2.240779332826507,0.2970276384474214,A,288,Incorrect
2,relearn,71,735,B,66.79973758646003,50.746617079224535,3.339986879323001,0.7971259970531307,107,95,Correct
2,relearn,71,736,B,42.029043811969004,14.419143356414342,2.1014521905984505,0.2264953741978468,A,561,Incorrect
2,relearn,71,737,A,54.658443594533395,79.766066359495,2.73292217972667,1.252962440403727,B,558,Incorrect
2,relearn,71,738,B,45.7493864322396,22.87653240642571,2.28746932161198,0.35934373073817916,A,404,Incorrect
2,relearn,71,739,B,57.33140835428028,28.137632994202782,2.866570417714014,0.4419849055199661,A,457,Incorrect
2,relearn,71,740,B,72.70873646466924,44.93875574791713,3.635436823233462,0.7058963245956128,B,414,Correct
2,relearn,71,741,B,86.23348246448035,64.29670001461574,4.311674123224018,1.0099702020799177,B,245,Correct
2,relearn,71,742,A,37.57567304667427,47.573525381654825,1.8787836523337134,0.7472831892218719,B,287,Incorrect
2,relearn,71,743,B,59.3857825779719,35.97467355734122,2.969289128898595,0.5650888508151708,A,267,Incorrect
2,relearn,71,744,B,78.08524443543502,52.66626672831278,3.904262221771751,0.8272797832283398,B,298,Correct
2,relearn,71,745,B,35.127337130377846,12.763861141767485,1.7563668565188921,0.20049426197208484,B,284,Correct
2,relearn,71,746,B,54.48797514379207,45.62745293872416,2.724398757189604,0.7167143547715492,A,262,Incorrect
2,relearn,71,747,B,83.62383564101543,61.75267470517504,4.181191782050772,0.9700087459664909,B,252,Correct
2,relearn,71,748,B,69.46358617705505,36.25029955258547,3.4731793088527523,0.5694183738241594,B,338,Correct
2,relearn,71,749,B,49.34550133887823,39.96861150927008,2.467275066943911,0.6278254814585367,A,400,Incorrect
2,relearn,71,750,A,28.246334214129,46.34671553522806,1.41231671070645,0.7280125052174422,B,238,Incorrect
2,relearn,71,751,B,55.336610934908066,47.088114274686674,2.7668305467454037,0.7396583693837616,A,320,Incorrect
2,relearn,71,752,A,43.22606323297594,68.94327447826711,2.161303161648797,1.082958423076743,B,411,Incorrect
2,relearn,71,753,B,48.87209990904721,41.83813920588381,2.4436049954523607,0.6571919538453583,A,275,Incorrect
2,relearn,71,754,A,38.26272470820131,46.8982367251594,1.9131362354100656,0.7366757798103791,B,273,Incorrect
2,relearn,71,755,A,48.20729546745011,78.55210004077959,2.4103647733725055,1.2338935020608182,A,563,Correct
2,relearn,71,756,A,51.772762050324694,69.28922298786016,2.5886381025162346,1.0883925695580323,A,284,Correct
2,relearn,71,757,A,62.170394245710874,78.17926955931512,3.1085197122855437,1.2280370945528025,B,239,Incorrect
2,relearn,71,758,B,57.07567566164075,28.152941464052375,2.853783783082038,0.4422253704020521,A,225,Incorrect
2,relearn,71,759,A,31.779121131955634,48.69698151085899,1.5889560565977816,0.7649303968325629,B,240,Incorrect
2,relearn,71,760,B,69.07426347652707,42.85126436312178,3.453713173826353,0.6731060866010874,A,289,Incorrect
2,relearn,71,761,A,36.239322821954005,53.847502605136555,1.8119661410977002,0.8458345929922712,B,374,Incorrect
2,relearn,71,762,B,33.516239618805606,13.551117680628579,1.6758119809402803,0.21286045876696746,A,263,Incorrect
2,relearn,71,763,A,22.587768411830417,43.79451505174087,1.1293884205915208,0.6879226337703837,B,317,Incorrect
2,relearn,71,764,B,67.85330598608743,59.394561553083854,3.3926652993043716,0.932967591191775,B,214,Correct
2,relearn,71,765,B,50.53873382916089,41.46678500333494,2.5269366914580447,0.6513587356723223,A,299,Incorrect
2,relearn,71,766,B,58.342733310721975,25.74842388556939,2.917136665536099,0.4044552966021038,107,271,Correct
2,relearn,71,767,B,84.21100614043458,58.14427555728424,4.2105503070217285,0.9133281446953235,100,144,Incorrect
2,relearn,71,768,B,64.21950456711707,38.22532965837121,3.2109752283558533,0.6004420741789351,B,255,Correct
2,relearn,71,769,A,14.782090685309988,31.723991543661697,0.7391045342654994,0.4983192938805615,A,328,Correct
2,relearn,71,770,B,69.41267067802515,57.6573257238413,3.4706335339012577,0.9056791545982681,B,251,Correct
2,relearn,71,771,B,65.7147417577676,32.3073934882262,3.28573708788838,0.5074833501962307,A,401,Incorrect
2,relearn,71,772,B,86.27888153348893,64.67033787457454,4.313944076674447,1.0158392918596657,B,309,Correct
2,relearn,71,773,B,67.74579295941368,53.87204511007737,3.3872896479706838,0.8462201057583851,B,295,Correct
2,relearn,71,774,B,30.672187339770957,11.015334660547786,1.533609366988548,0.17302847223204973,B,253,Correct
2,relearn,71,775,B,66.69434093352656,41.710148364538306,3.334717046676328,0.6551814784108694,B,297,Correct
2,relearn,71,776,B,70.83482257270947,58.321819437911195,3.5417411286354734,0.9161169974506611,A,260,Incorrect
2,relearn,71,777,B,54.858301377724224,47.31472388386055,2.7429150688862114,0.7432179448008293,B,55,Correct
2,relearn,71,778,A,28.12668235905447,53.406771562464876,1.4063341179527236,0.8389116059629397,B,220,Incorrect
2,relearn,71,779,B,45.099182137831804,20.744483710405433,2.25495910689159,0.3258535881356142,B,288,Correct
2,relearn,71,780,B,77.58111081121105,45.83922520763266,3.879055540560552,0.7200408657927341,B,310,Correct
2,relearn,71,781,A,20.75643861099641,42.35498254914528,1.0378219305498204,0.6653105100965934,B,56,Incorrect
2,relearn,71,782,A,28.688081010311087,60.039389391567276,1.4344040505155544,0.9430965231928236,A,250,Correct
2,relearn,71,783,B,57.16100984341706,38.743100011335926,2.858050492170853,0.6085751918645379,B,97,Correct
2,relearn,71,784,B,62.56157577246931,39.88333164851505,3.1280787886234656,0.626485908538301,A,172,Incorrect
2,relearn,71,785,B,38.232557103025584,27.213504727835044,1.9116278551512793,0.42746873265698837,B,9,Correct
2,relearn,71,786,B,81.82706297882237,68.43936889553171,4.091353148941119,1.075043092692621,B,235,Correct
2,relearn,71,787,B,63.29588784491558,40.02242877219474,3.164794392245779,0.6286708410477388,A,277,Incorrect
2,relearn,71,788,B,41.06492730083052,24.462902536787624,2.0532463650415256,0.3842623744752756,A,241,Incorrect
2,relearn,71,789,A,37.186561422818514,49.356915304903424,1.8593280711409255,0.7752966126286912,B,214,Incorrect
2,relearn,71,790,A,66.98676107170886,85.82847931900864,3.349338053585443,1.3481906004869049,B,299,Incorrect
2,relearn,71,791,A,53.92976444330064,72.12211115096123,2.696488222165032,1.1328914727662314,A,468,Correct
2,relearn,71,792,B,80.91759712814672,50.07786800595856,4.045879856407336,0.7866213111747937,B,120,Correct
2,relearn,71,793,A,36.78724742091761,53.09388821546128,1.8393623710458804,0.8339968458410542,A,240,Correct
2,relearn,71,794,B,64.72533022962325,36.75308316872275,3.2362665114811624,0.5773160803981704,A,331,Incorrect
2,relearn,71,795,B,35.422935878826905,13.685237750260598,1.7711467939413452,0.214967211894242,B,3,Correct
2,relearn,71,796,A,41.39995700904615,54.97005333656739,2.0699978504523076,0.863467578647996,A,73,Correct
2,relearn,71,797,B,58.04261202809285,39.54789065116076,2.902130601404642,0.6212168136732956,B,200,Correct
2,relearn,71,798,A,27.287857951640483,50.1720226178847,1.3643928975820243,0.7881002883604377,A,255,Correct
2,relearn,71,799,B,59.11739613690115,48.08344686177975,2.9558698068450577,0.7552930171012122,B,210,Correct
2,relearn,71,800,A,55.15126452030563,67.3570708057197,2.7575632260152814,1.0580423940528827,A,203,Correct
2,relearn,71,801,A,13.680142397532851,38.28082913091423,0.6840071198766425,0.6013138578550314,B,228,Incorrect
2,relearn,71,802,A,33.98973091971205,65.3814120221804,1.6994865459856028,1.0270088184510466,A,197,Correct
2,relearn,71,803,A,32.95156896449916,44.65218657988311,1.647578448224958,0.7013949066304076,B,220,Incorrect
2,relearn,71,804,A,53.648901877865725,71.47083967425954,2.6824450938932864,1.1226613243327384,A,28,Correct
2,relearn,71,805,B,34.34266640646547,16.567993093420444,1.7171333203232735,0.2602494269350805,A,146,Incorrect
2,relearn,71,806,A,25.212135332298438,56.66135166249109,1.2606067666149219,0.8900344306267491,B,261,Incorrect
2,relearn,71,807,B,52.47775356469514,36.975758626186,2.623887678234757,0.5808138583046768,A,261,Incorrect
2,relearn,71,808,A,47.36738866874667,66.42242389617289,2.3683694334373335,1.0433609947292195,B,339,Incorrect
2,relearn,71,809,A,18.129308322991882,37.45177229742283,0.9064654161495941,0.5882910635675064,A,424,Correct
2,relearn,71,810,A,16.41803031363682,32.06260856501308,0.820901515681841,0.5036382776138513,B,656,Incorrect
2,relearn,71,811,A,37.62788957128933,45.84720870871856,1.8813944785644665,0.7201662703345411,A,118,Correct
2,relearn,71,812,B,87.14729416283089,61.147818255643955,4.357364708141545,0.9605076830748743,B,186,Correct
2,relearn,71,813,A,23.349671536643616,46.9274247652681,1.1674835768321807,0.7371342644722699,119,322,Correct
2,relearn,71,814,A,21.42639552645247,41.74922226883328,1.0713197763226234,0.6557952498642702,B,161,Incorrect
2,relearn,71,815,B,39.73075189191889,19.631948847749754,1.9865375945959445,0.30837793137870617,A,371,Incorrect
2,relearn,71,816,A,54.82850716243574,80.59754822259536,2.7414253581217873,1.2660233269672736,B,175,Incorrect
2,relearn,71,817,B,56.239991557984204,28.054811339024248,2.8119995778992104,0.44068394600263106,A,299,Incorrect
2,relearn,71,818,B,82.63834897364798,54.52634224731526,4.131917448682398,0.8564977811564418,B,14,Correct
2,relearn,71,819,B,77.85175458026866,60.036135847771746,3.8925877290134334,0.9430454166463927,A,267,Incorrect
2,relearn,71,820,A,14.712403750456527,40.388353007750254,0.7356201875228264,0.634418765498697,B,109,Incorrect
2,relearn,71,821,A,52.36575718095379,77.74239219990933,2.6182878590476895,1.221174641038658,A,225,Correct
2,relearn,71,822,A,46.96382318223836,54.30994104751724,2.348191159111918,0.8530985590588747,A,301,Correct
2,relearn,71,823,A,22.408752843393835,33.70624676711613,1.1204376421696918,0.5294564861182837,B,466,Incorrect
2,relearn,71,824,B,56.64080042573421,37.018856458898505,2.8320400212867103,0.581490837477853,A,286,Incorrect
2,relearn,71,825,B,82.00458928853973,68.27591818780067,4.100229464426986,1.0724756149794616,A,411,Incorrect
2,relearn,71,826,A,59.10109378862761,85.13075466347645,2.9550546894313805,1.3372307672266632,B,482,Incorrect
2,relearn,71,827,A,43.97710643585353,51.76157122251071,2.1988553217926765,0.8130688594545226,A,424,Correct
2,relearn,71,828,B,39.59933359870057,29.83016022330058,1.9799666799350286,0.46857106106463786,B,248,Correct
2,relearn,71,829,A,57.535955099853894,77.77161404312477,2.8767977549926944,1.2216336566785078,B,251,Incorrect
2,relearn,71,830,B,71.54316564864642,53.7679732266171,3.5771582824323214,0.8445853484357649,A,69,Incorrect
2,relearn,71,831,A,44.52492859901578,56.83456933899945,2.226246429950789,0.892755327526702,B,216,Incorrect
2,relearn,71,832,A,52.64059020105891,66.34622515647891,2.6320295100529454,1.0421640677250423,A,233,Correct
2,relearn,71,833,B,83.32421484610484,61.71396425972754,4.166210742305242,0.9694006837113154,A,237,Incorrect
2,relearn,71,834,B,31.66998617037535,14.39521535509775,1.5834993085187674,0.22611951403209038,B,465,Correct
2,relearn,71,835,A,59.74342026117436,74.16891225629092,2.9871710130587177,1.1650425493455476,A,308,Correct
2,relearn,71,836,B,55.3594717883808,26.23058392652986,2.7679735894190403,0.4120290488147836,B,263,Correct
2,relearn,71,837,B,59.68884661549738,50.526527108173326,2.984442330774869,0.7936688318722143,A,237,Incorrect
2,relearn,71,838,A,64.2706218170988,79.46054088692354,3.21353109085494,1.248163257503152,107,310,Incorrect
2,relearn,71,839,A,43.53656740650774,65.61562918649638,2.1768283703253872,1.030687893064845,A,431,Correct
2,relearn,71,840,B,86.42118103930837,64.72353644866568,4.321059051965418,1.0166749331073965,B,373,Correct
2,relearn,71,841,B,83.25688374164955,67.00341636517199,4.162844187082477,1.0524872030912122,A,300,Incorrect
2,relearn,71,842,B,73.5369202642259,59.64069622982164,3.676846013211295,0.9368338656529408,B,440,Correct
2,relearn,71,843,B,67.2359189584353,49.157038758301525,3.3617959479217654,0.7721569591765439,A,575,Incorrect
2,relearn,71,844,B,54.32550538386397,44.535503756476274,2.7162752691931984,0.6995620571263325,B,255,Correct
2,relearn,71,845,B,53.001343881075876,41.915844868245735,2.650067194053794,0.6584125515354512,A,316,Incorrect
2,relearn,71,846,A,31.997372531396422,52.557555422972584,1.5998686265698212,0.8255721500372453,B,358,Incorrect
2,relearn,71,847,B,65.76412102218752,55.27024922744879,3.288206051109376,0.8681830446751502,A,354,Incorrect
2,relearn,71,848,B,59.85495684138642,32.87428669602609,2.992747842069321,0.5163880878812012,B,232,Correct
2,relearn,71,849,B,62.36277087244152,37.304091314403124,3.1181385436220763,0.5859712961108583,B,314,Correct
2,relearn,71,850,B,71.08797880672022,50.8617346920776,3.554398940336011,0.7989342602873205,A,337,Incorrect
2,relearn,71,851,A,14.279831168697502,36.43146176005169,0.713991558434875,0.5722640631245793,B,240,Incorrect
2,relearn,71,852,A,45.014021529087266,65.6420689417207,2.2507010764543636,1.031103207768722,A,331,Correct
2,relearn,71,853,B,63.92165886270186,33.09644177276508,3.1960829431350932,0.5198776916664056,B,298,Correct
2,relearn,71,854,A,53.687816963743934,63.62685980277252,2.6843908481871965,0.9994483766368892,A,306,Correct
2,relearn,71,855,B,60.12468981754641,31.021931296862146,3.0062344908773206,0.48729135731194706,B,270,Correct
2,relearn,71,856,A,59.297057857253776,83.2586532525352,2.9648528928626887,1.3078238670297226,A,260,Correct
2,relearn,71,857,B,73.61994963689486,47.96996734160816,3.680997481844743,0.7535104849666924,A,117,Incorrect
2,relearn,71,858,B,54.81827426116223,46.73313078045071,2.7409137130581116,0.734082301695575,B,287,Correct
2,relearn,71,859,A,56.00175207916921,83.50085753386874,2.80008760395846,1.3116284029842498,B,870,Incorrect
2,relearn,71,860,B,64.6112186014772,42.79970821617774,3.2305609300738602,0.6722962445386536,B,1290,Correct
2,relearn,71,861,A,54.03188972232657,63.919423573684576,2.7015944861163286,1.0040439576039084,B,592,Incorrect
2,relearn,71,862,A,52.3801239347209,74.77487217221724,2.6190061967360454,1.1745609454467678,A,1906,Correct
2,relearn,71,863,A,20.56885344008021,35.83847687436716,1.0284426720040105,0.5629494783217978,A,792,Correct
2,relearn,71,864,A,27.543760245133406,46.29486459316719,1.3771880122566702,0.7271980325241414,B,373,Incorrect
2,relearn,71,865,B,57.35132173209756,31.339107957559456,2.867566086604878,0.49227355664763106,A,323,Incorrect
2,relearn,71,866,B,64.76482521543605,43.46879025218894,3.2382412607718027,0.682806160583562,A,281,Incorrect
2,relearn,71,867,B,33.172246555615274,18.390592917305167,1.6586123277807638,0.28887875802083196,B,102,Correct
2,relearn,71,868,B,61.645764752133964,44.64199100728589,3.082288237606698,0.7012347549505549,B,321,Correct
2,relearn,71,869,B,74.30856603545959,43.70409595275508,3.7154283017729797,0.6865023338847939,B,324,Correct
2,relearn,71,870,B,58.82759898743814,50.47625907504418,2.941379949371907,0.7928792234542696,A,251,Incorrect
2,relearn,71,871,B,43.377641159834425,14.45662284498469,2.168882057991721,0.2270841006276114,B,309,Correct
2,relearn,71,872,B,77.53944163266075,54.69765426677998,3.876972081633038,0.8591887440655518,B,218,Correct
2,relearn,71,873,A,31.35542228825117,53.91073001494573,1.5677711144125583,0.8468277668230811,B,174,Incorrect
2,relearn,71,874,A,31.605080606842897,48.91582907935635,1.5802540303421448,0.7683680463997995,A,378,Correct
2,relearn,71,875,B,73.36317214202734,58.72629344986702,3.668158607101367,0.922470460373303,A,33,Incorrect
2,relearn,71,876,A,43.9178453150743,75.32567158930178,2.195892265753715,1.1832128824583392,A,384,Correct
2,relearn,71,877,A,18.234329132999125,39.07019795442713,0.9117164566499563,0.6137132343396361,A,192,Correct
2,relearn,71,878,B,69.69295320007224,49.7269862055686,3.4846476600036116,0.7811096727428767,A,364,Incorrect
2,relearn,71,879,B,56.48499796543519,40.7854410084269,2.8242498982717597,0.6406562092274691,A,254,Incorrect
2,relearn,71,880,A,40.12809534370232,54.312211136088656,2.0064047671851157,0.8531342175267694,A,293,Correct
2,relearn,71,881,A,28.599932717522574,39.872264954204866,1.4299966358761287,0.6263120733105789,A,319,Correct
2,relearn,71,882,A,55.35609944413931,74.4881812701747,2.7678049722069655,1.1700576152882283,A,306,Correct
2,relearn,71,883,B,59.83087940344371,38.80979708677667,2.9915439701721858,0.6096228670756407,A,320,Incorrect
2,relearn,71,884,B,50.26966701820598,27.420749993731913,2.513483350910299,0.43072413368115275,A,343,Incorrect
2,relearn,71,885,B,72.15013195264115,49.50788845539586,3.607506597632057,0.7776680933310728,B,140,Correct
2,relearn,71,886,A,27.664652908390366,53.13356847999447,1.3832326454195183,0.8346201419788041,B,156,Incorrect
2,relearn,71,887,B,69.54688132669231,58.04565392280299,3.4773440663346156,0.9117789996834672,A,20314,Incorrect
2,relearn,71,888,A,52.87875944341948,63.8482958622859,2.643937972170974,1.002926686125925,B,530,Incorrect
2,relearn,71,889,B,52.55472464533859,37.1584415913721,2.6277362322669298,0.5836834356115,A,394,Incorrect
2,relearn,71,890,B,46.087878937335795,23.47693575828586,2.30439394686679,0.3687748445351519,B,972,Correct
2,relearn,71,891,A,46.84145237187323,67.61388872140498,2.3420726185936616,1.0620764804390181,A,1153,Correct
2,relearn,71,892,B,64.40181223506094,41.68155880494328,3.2200906117530472,0.6547323946589039,B,411,Correct
2,relearn,71,893,B,52.39876128772066,39.42973387180151,2.6199380643860333,0.6193608113232613,A,257,Incorrect
2,relearn,71,894,A,34.16339195439123,59.87816240641566,1.7081695977195614,0.9405639756322598,B,473,Incorrect
2,relearn,71,895,A,20.19857604691055,40.584808995797545,1.0099288023455275,0.6375046889427126,A,410,Correct
2,relearn,71,896,A,23.32487797717658,44.08394357104481,1.166243898858829,0.6924689663203069,B,313,Incorrect
2,relearn,71,897,B,56.22618665106038,35.700338534719364,2.811309332553019,0.5607796063567148,B,276,Correct
2,relearn,71,898,B,34.56644558629114,15.624269295742764,1.728322279314557,0.24542544818607018,A,417,Incorrect
