experiment,condition,subject,trial,cat,x,y,xt,yt,resp,rt,fb
2,relearn,53,0,A,58.02607101460475,70.86124466991086,2.901303550730238,1.1130858283961043,B,439,Incorrect
2,relearn,53,1,B,49.64299833488198,24.53932761539492,2.482149916744099,0.3854628568027891,B,1000,Correct
2,relearn,53,2,B,46.360042298803236,31.03224992707221,2.318002114940162,0.4874534419762622,B,591,Correct
2,relearn,53,3,A,30.762192521740047,46.642251627622834,1.5381096260870024,0.7326547753011323,A,894,Correct
2,relearn,53,4,A,55.872216161200186,69.77362668979292,2.7936108080600093,1.0960015651148507,A,1112,Correct
2,relearn,53,5,B,67.17282540639674,37.807140182763135,3.3586412703198367,0.5938731692570407,B,471,Correct
2,relearn,53,6,A,58.129573432473485,69.14302602360561,2.9064786716236743,1.0860961130136364,A,404,Correct
2,relearn,53,7,A,52.51170236932573,77.41411859427289,2.6255851184662866,1.2160181312994838,A,719,Correct
2,relearn,53,8,B,71.33228355007982,60.1915006410072,3.566614177503991,0.9454858811116678,A,1079,Incorrect
2,relearn,53,9,B,39.51974199160257,24.553671366278454,1.9759870995801287,0.38568816791479227,B,1045,Correct
2,relearn,53,10,A,52.388704613691196,78.16683206976452,2.61943523068456,1.2278417269237965,A,787,Correct
2,relearn,53,11,B,86.36820488066367,67.77199166177365,4.318410244033183,1.064559955618884,B,858,Correct
2,relearn,53,12,A,56.10025442401131,83.24749626187224,2.8050127212005656,1.3076486134302079,A,728,Correct
2,relearn,53,13,A,10.957908887973275,31.32620571578591,0.5478954443986638,0.49207088870777804,B,585,Incorrect
2,relearn,53,14,A,43.03967356783852,63.47259010584233,2.151983678391926,0.9970251139041523,A,1166,Correct
2,relearn,53,15,A,10.774564338215715,35.61546186173379,0.5387282169107857,0.5594463666951517,A,1013,Correct
2,relearn,53,16,B,69.26113781532537,39.43386973591639,3.463056890766268,0.619425777324859,B,676,Correct
2,relearn,53,17,A,67.86766813516742,89.08764888068359,3.393383406758371,1.3993855162457125,A,628,Correct
2,relearn,53,18,B,46.927251892079006,39.333118463581165,2.34636259460395,0.6178431800398182,B,586,Correct
2,relearn,53,19,A,64.90263375977948,84.4089472710581,3.2451316879889736,1.3258926432200218,A,502,Correct
2,relearn,53,20,B,52.10417880059603,24.72423326572971,2.6052089400298017,0.38836734796628414,B,499,Correct
2,relearn,53,21,A,36.26922523171594,50.496990515487234,1.8134612615857972,0.7932048721592407,A,497,Correct
2,relearn,53,22,B,61.61875344788906,40.65413245179937,3.080937672394453,0.6385936192431966,B,464,Correct
2,relearn,53,23,B,33.22756093169917,11.521808023239373,1.6613780465849586,0.1809841372094038,A,750,Incorrect
2,relearn,53,24,A,50.001050400521706,63.12270010674239,2.5000525200260855,0.9915290546504678,A,714,Correct
2,relearn,53,25,B,33.12288060999374,13.107766469902561,1.656144030499687,0.20589631423408253,B,461,Correct
2,relearn,53,26,A,53.537024464299854,64.02752197045405,2.6768512232149924,1.0057419632496876,A,437,Correct
2,relearn,53,27,B,37.564824906002805,27.213981675121694,1.8782412453001402,0.4274762245274478,B,311,Correct
2,relearn,53,28,B,72.48423239492315,61.65802729831496,3.6242116197461574,0.9685220279761262,A,356,Incorrect
2,relearn,53,29,A,58.64258041020773,73.78078151242775,2.9321290205103865,1.158945805877783,B,940,Incorrect
2,relearn,53,30,A,33.31744483719962,61.814895564161866,1.6658722418599812,0.9709861089339559,A,991,Correct
2,relearn,53,31,B,52.212035290373905,29.43617157547439,2.6106017645186954,0.4623823018565951,B,664,Correct
2,relearn,53,32,B,63.727049069133166,54.020459126003004,3.1863524534566583,0.8485513876689937,B,691,Correct
2,relearn,53,33,A,45.012665445918486,73.78043245648647,2.250633272295924,1.1589403229198791,B,779,Incorrect
2,relearn,53,34,A,45.46923467208626,65.43242209600085,2.273461733604313,1.0278100828169137,A,555,Correct
2,relearn,53,35,A,26.385878737799437,51.25575302968088,1.3192939368899719,0.805123485861291,A,933,Correct
2,relearn,53,36,B,68.92255174317101,54.91421588628174,3.446127587158551,0.862590486029933,B,460,Correct
2,relearn,53,37,B,55.43687244725095,24.492552368123988,2.7718436223625473,0.38472811293680803,B,1593,Correct
2,relearn,53,38,B,83.101180506948,53.58476358062556,4.1550590253474,0.8417074980461957,B,758,Correct
2,relearn,53,39,B,86.15163539959394,60.58935790908961,4.307581769979697,0.9517354084645927,B,426,Correct
2,relearn,53,40,A,20.6630344430516,48.47293600671199,1.03315172215258,0.7614110982830726,A,529,Correct
2,relearn,53,41,A,16.84832584326225,35.804206118783796,0.8424162921631124,0.5624111545519295,A,1003,Correct
2,relearn,53,42,A,65.14141185010774,85.47146040148193,3.257070592505387,1.3425825604444328,B,429,Incorrect
2,relearn,53,43,A,47.37818067038835,71.9096637286895,2.368909033519418,1.1295543564608166,A,845,Correct
2,relearn,53,44,A,42.57703075435869,58.67747451405573,2.1288515377179347,0.9217036143227989,A,1087,Correct
2,relearn,53,45,B,64.40318914698774,40.75356246829657,3.2201594573493875,0.6401554622900661,B,2086,Correct
2,relearn,53,46,B,68.57560625296331,57.12169010786629,3.4287803126481657,0.8972654100175275,B,550,Correct
2,relearn,53,47,A,21.365207533732224,38.6209348256119,1.0682603766866112,0.6066562256145627,A,706,Correct
2,relearn,53,48,B,68.42304683841124,44.76289723217013,3.421152341920562,0.7031339454899028,B,847,Correct
2,relearn,53,49,A,22.190980820003368,44.54483606682567,1.1095490410001685,0.6997086487145059,A,762,Correct
2,relearn,53,50,B,38.09128174254492,23.19604372350522,1.9045640871272462,0.36436260277055815,B,689,Correct
2,relearn,53,51,B,75.74738090103742,48.77430180619119,3.787369045051871,0.766144941191508,B,609,Correct
2,relearn,53,52,A,63.62719504257586,86.82151581418636,3.181359752128793,1.3637891812768894,B,580,Incorrect
2,relearn,53,53,B,37.73781726048364,15.501525488716478,1.8868908630241819,0.24349739297393308,B,1167,Correct
2,relearn,53,54,A,31.359745797335613,40.31276477083246,1.5679872898667808,0.6332314282497034,A,1596,Correct
2,relearn,53,55,B,54.02421491512295,43.906634715783696,2.701210745756147,0.6896838053347831,B,2361,Correct
2,relearn,53,56,B,72.82752303236981,56.34229947604919,3.6413761516184904,0.885022770601561,B,678,Correct
2,relearn,53,57,B,59.86185766638519,45.28674798909319,2.9930928833192594,0.7113625739375374,B,1015,Correct
2,relearn,53,58,A,18.69426797406345,33.58300103452987,0.9347133987031725,0.5275205466778874,A,657,Correct
2,relearn,53,59,A,51.90184667202107,80.8244032305195,2.5950923336010536,1.269586757098896,B,512,Incorrect
2,relearn,53,60,B,81.95932827924025,54.37041526799756,4.097966413962013,0.8540484858928372,B,506,Correct
2,relearn,53,61,A,24.158141654219463,47.153485848179784,1.2079070827109732,0.7406852236589594,A,471,Correct
2,relearn,53,62,A,60.67928400025566,73.47896936754157,3.0339642000127833,1.1542049517920903,A,1410,Correct
2,relearn,53,63,A,50.50326539820282,69.96418129406436,2.525163269910141,1.0989947898392851,A,939,Correct
2,relearn,53,64,B,66.43116813094171,37.77156329552858,3.321558406547086,0.5933143288191723,B,720,Correct
2,relearn,53,65,B,87.47763794106369,68.9785088957814,4.3738818970531845,1.0835118840128253,B,517,Correct
2,relearn,53,66,A,46.93799831491061,62.985319437851956,2.34689991574553,0.9893710841498103,A,987,Correct
2,relearn,53,67,A,27.878896482036538,47.88525274493858,1.3939448241018269,0.7521797911939476,A,544,Correct
2,relearn,53,68,A,53.99686065315528,68.556884384452,2.699843032657764,1.0768890216759959,B,350,Incorrect
2,relearn,53,69,B,56.62559116939261,35.39326272155483,2.83127955846963,0.5559560707630506,B,1120,Correct
2,relearn,53,70,A,27.505478139225893,42.81357458265215,1.3752739069612945,0.6725140569138934,A,643,Correct
2,relearn,53,71,A,29.88346947981171,39.12479286729791,1.4941734739905854,0.6145708092256273,A,452,Correct
2,relearn,53,72,B,51.131370483271645,39.854499466377646,2.5565685241635823,0.6260330136803518,A,590,Incorrect
2,relearn,53,73,A,41.514530890053656,61.48122501967097,2.075726544502683,0.9657448242774964,A,920,Correct
2,relearn,53,74,B,75.32346874579012,44.10351941842727,3.766173437289506,0.6927764630119295,B,590,Correct
2,relearn,53,75,A,38.47420482492392,58.492315843542634,1.9237102412461962,0.918795148727637,A,1127,Correct
2,relearn,53,76,B,54.87064363765801,25.278201100816084,2.7435321818829004,0.39706905437144613,B,517,Correct
2,relearn,53,77,B,56.355071132444465,25.76681291795399,2.817753556622223,0.40474415084733417,B,601,Correct
2,relearn,53,78,B,74.05289897769437,55.36629810585228,3.7026449488847186,0.86969177692904,B,610,Correct
2,relearn,53,79,A,36.10129020127358,46.03641282366469,1.8050645100636789,0.7231382816222597,A,1084,Correct
2,relearn,53,80,B,32.45624388035751,19.567189094990823,1.6228121940178755,0.3073606875611274,A,536,Incorrect
2,relearn,53,81,A,19.29378038903012,39.45232548815393,0.9646890194515059,0.6197156796030887,A,1024,Correct
2,relearn,53,82,B,82.65224411914582,66.32454862244889,4.132612205957291,1.0418235735247223,B,677,Correct
2,relearn,53,83,A,38.06749322433885,56.032287144499485,1.9033746612169424,0.880153108284967,A,631,Correct
2,relearn,53,84,A,22.16538561876661,42.26952964115199,1.1082692809383305,0.6639682189566954,B,376,Incorrect
2,relearn,53,85,A,57.97492844729237,68.48842355114422,2.8987464223646184,1.0758136414211044,B,517,Incorrect
2,relearn,53,86,A,64.84636564694652,78.95847857837597,3.2423182823473264,1.240276881202265,A,1725,Correct
2,relearn,53,87,B,78.80575678264618,59.13394432028129,3.9402878391323095,0.9288738252719179,B,992,Correct
2,relearn,53,88,A,22.83717908554744,41.601670936661925,1.1418589542773718,0.6534775189583857,A,490,Correct
2,relearn,53,89,B,54.235274264760875,37.81143843372729,2.7117637132380437,0.593940686025302,B,472,Correct
2,relearn,53,90,B,68.78264241107144,47.1094644064985,3.439132120553572,0.7399937364700276,B,418,Correct
2,relearn,53,91,A,32.26615060045889,46.32133612107981,1.6133075300229447,0.7276138463122394,A,717,Correct
2,relearn,53,92,A,26.453504562907,51.26065375824851,1.32267522814535,0.8052004663256178,A,667,Correct
2,relearn,53,93,A,64.00741028720066,78.62891967415355,3.2003705143600327,1.2351001820401137,B,503,Incorrect
2,relearn,53,94,B,54.93574318979952,29.792746995772703,2.7467871594899758,0.4679833754608945,B,890,Correct
2,relearn,53,95,A,66.78388392342103,86.11263478506464,3.339194196171052,1.3526541041100997,A,1153,Correct
2,relearn,53,96,B,76.83712864054222,62.46164421842086,3.841856432027111,0.9811452130386518,A,1243,Incorrect
2,relearn,53,97,B,58.06913665629224,32.09148658119581,2.9034568328146118,0.5040918924313009,B,881,Correct
2,relearn,53,98,B,63.84418757178292,46.118182883706915,3.192209378589146,0.724422722721821,B,606,Correct
2,relearn,53,99,B,73.8909176423386,51.936141161360524,3.6945458821169295,0.8158109976416635,B,740,Correct
2,relearn,53,100,B,55.21064871786601,31.187596287994424,2.7605324358933,0.489893616907438,B,497,Correct
2,relearn,53,101,A,46.530461110515255,69.61894038881317,2.326523055525763,1.093571758381006,A,784,Correct
2,relearn,53,102,A,62.237771112665314,82.19338116287265,3.1118885556332656,1.2910906121749322,A,648,Correct
2,relearn,53,103,B,49.60790408892697,38.835091941127295,2.4803952044463484,0.6100201977186485,B,562,Correct
2,relearn,53,104,B,62.230477271996726,38.38942134946116,3.111523863599836,0.6030196204351518,B,850,Correct
2,relearn,53,105,A,59.155759609583264,78.54124648312303,2.9577879804791634,1.2337230147758227,B,511,Incorrect
2,relearn,53,106,A,22.81304532737497,44.07518068567164,1.1406522663687484,0.6923313192387438,A,714,Correct
2,relearn,53,107,B,41.299150158009475,22.33200755982181,2.064957507900474,0.3507903544492396,B,944,Correct
2,relearn,53,108,B,48.86236116335987,32.191396483875536,2.4431180581679937,0.5056612735126984,B,501,Correct
2,relearn,53,109,B,49.68039816392249,23.85191801405607,2.4840199081961245,0.374665052034923,B,607,Correct
2,relearn,53,110,B,51.90138752092192,28.324223412176124,2.595069376046096,0.4449158609516427,B,462,Correct
2,relearn,53,111,B,34.743396511269324,12.064406388338728,1.7371698255634664,0.18950725239763358,B,511,Correct
2,relearn,53,112,A,38.893557184734476,50.790600056741894,1.9446778592367238,0.7978168800483884,107,392,Incorrect
2,relearn,53,113,A,15.128844103113948,40.06383434238202,0.7564422051556974,0.6293212382233291,A,686,Correct
2,relearn,53,114,A,44.07303875321317,76.15074720393032,2.2036519376606583,1.196173139906205,A,557,Correct
2,relearn,53,115,B,57.53092471412432,47.35277139439549,2.876546235706216,0.7438155936987488,B,601,Correct
2,relearn,53,116,B,83.73824782488296,63.318853866250265,4.186912391244148,0.9946102306996876,B,613,Correct
2,relearn,53,117,A,46.25634151657882,75.68706413276527,2.3128170758289412,1.1888896232563744,A,1145,Correct
2,relearn,53,118,B,60.819787411341984,39.47425757524443,3.0409893705670994,0.6200601880214958,B,792,Correct
2,relearn,53,119,B,85.31823044673386,59.614341620810976,4.265911522336693,0.9364198884226601,B,1273,Correct
2,relearn,53,120,B,58.14250025525815,46.379909941944845,2.907125012762908,0.7285339217388507,B,503,Correct
2,relearn,53,121,A,58.42192003900229,84.49183586453167,2.9210960019501147,1.3271946542016366,A,964,Correct
2,relearn,53,122,A,51.88539701074234,62.824319072101936,2.594269850537117,0.9868420963184829,B,305,Incorrect
2,relearn,53,123,B,79.9161613235186,48.409138067769334,3.99580806617593,0.7604089626015907,B,629,Correct
2,relearn,53,124,B,35.21598490443617,19.401125836698068,1.7607992452218084,0.30475217199970894,A,681,Incorrect
2,relearn,53,125,A,36.704742748459594,66.97441228719515,1.8352371374229797,1.0520316080997314,B,920,Incorrect
2,relearn,53,126,A,57.79529634020184,82.94717559942595,2.8897648170100916,1.3029311874958955,A,619,Correct
2,relearn,53,127,A,52.8443084121018,73.92333491679662,2.64221542060509,1.1611850295173305,A,484,Correct
2,relearn,53,128,B,34.33167669613447,11.135710758941578,1.7165838348067237,0.17491933556395842,B,547,Correct
2,relearn,53,129,B,61.32042433052827,36.878225140082705,3.066021216526414,0.5792818058875712,A,914,Incorrect
2,relearn,53,130,B,31.783322192407468,13.278810672710861,1.5891661096203733,0.2085830702889909,B,456,Correct
2,relearn,53,131,A,47.72004358872326,59.296635338185084,2.3860021794361628,0.9314293698051759,A,489,Correct
2,relearn,53,132,B,41.00935899739267,22.538617391426342,2.0504679498696334,0.3540357740948808,B,514,Correct
2,relearn,53,133,B,58.68738542087841,51.2756474971077,2.9343692710439204,0.805435987424867,B,960,Correct
2,relearn,53,134,B,79.88757506916247,64.51436827639574,3.9943787534581237,1.0133893271405563,B,1371,Correct
2,relearn,53,135,B,48.25389527108663,26.623250840611703,2.4126947635543314,0.41819704627772003,A,675,Incorrect
2,relearn,53,136,B,78.91772839701052,57.59497265948984,3.945886419850526,0.9046997149537912,B,754,Correct
2,relearn,53,137,A,16.082111010367672,40.43994467654613,0.8041055505183836,0.635229165537075,A,922,Correct
2,relearn,53,138,B,81.83233059790243,56.577565846904236,4.091616529895122,0.8887183261131356,B,592,Correct
2,relearn,53,139,A,36.65598549305077,57.43505560207966,1.8327992746525386,0.9021877436900736,A,1006,Correct
2,relearn,53,140,A,28.247234283414254,40.46221794295448,1.4123617141707125,0.6355790331876746,B,623,Incorrect
2,relearn,53,141,A,18.69043202773424,37.34439503781602,0.9345216013867119,0.5866043855177897,A,631,Correct
2,relearn,53,142,B,79.76408524472151,48.46448154655677,3.9882042622360756,0.7612782959335042,B,470,Correct
2,relearn,53,143,B,36.6195285545745,25.20966101936922,1.8309764277287253,0.3959924292896966,A,378,Incorrect
2,relearn,53,144,B,47.39856531609196,26.512120669306665,2.3699282658045977,0.41645141762889964,B,501,Correct
2,relearn,53,145,A,33.045512486368324,51.94038026364049,1.6522756243184162,0.8158775853045662,A,1061,Correct
2,relearn,53,146,A,23.15072846081706,39.63788150288224,1.1575364230408531,0.6226303866665879,B,625,Incorrect
2,relearn,53,147,B,49.20151078329722,39.43349810355121,2.4600755391648614,0.6194199397373176,B,754,Correct
2,relearn,53,148,A,47.45719629129887,66.8432722181253,2.3728598145649435,1.049971664711826,A,1047,Correct
2,relearn,53,149,A,20.447891023903424,38.342137815749076,1.022394551195171,0.6022768924244235,B,1022,Incorrect
2,relearn,53,150,A,41.99812277680229,68.9524877625513,2.0999061388401143,1.0831031450078563,A,678,Correct
2,relearn,53,151,B,64.08951255356845,41.828462104778154,3.2044756276784225,0.6570399462966505,B,545,Correct
2,relearn,53,152,A,22.3872487530219,39.80929669291135,1.119362437651095,0.6253229701751337,A,1200,Correct
2,relearn,53,153,A,30.717133378469317,54.14899566438122,1.5358566689234658,0.850570434892428,A,727,Correct
2,relearn,53,154,A,36.94956359975814,47.42339372858396,1.847478179987907,0.7449249267300782,A,612,Correct
2,relearn,53,155,B,70.72977411723299,48.05084569779605,3.5364887058616494,0.754780919214864,B,609,Correct
2,relearn,53,156,A,35.82100057159787,56.13385465118249,1.7910500285798934,0.8817485269491608,A,676,Correct
2,relearn,53,157,B,51.855445704793645,27.569105510406388,2.592772285239682,0.43305449668767293,B,474,Correct
2,relearn,53,158,A,21.497646293620488,39.867032211103094,1.0748823146810245,0.6262298775741456,A,621,Correct
2,relearn,53,159,B,53.87746589258398,31.759879324018346,2.693873294629199,0.498883017816172,B,553,Correct
2,relearn,53,160,A,61.85393956444879,85.18295940039184,3.092696978222439,1.3380507973165432,A,619,Correct
2,relearn,53,161,A,29.780751732662488,51.86893382805158,1.4890375866331242,0.8147553073187097,A,1142,Correct
2,relearn,53,162,A,63.8016449887139,81.85258643770813,3.1900822494356955,1.2857374211501371,A,615,Correct
2,relearn,53,163,A,62.2298825842486,81.59148818441358,3.1114941292124296,1.2816360993780607,A,565,Correct
2,relearn,53,164,B,62.54180910387173,44.956240697379044,3.1270904551935867,0.7061709775395023,B,682,Correct
2,relearn,53,165,A,48.7120772985001,75.57782551598868,2.435603864925005,1.1871737070766064,A,490,Correct
2,relearn,53,166,A,49.30518362260487,71.15789231689195,2.465259181130244,1.1177455587384066,A,693,Correct
2,relearn,53,167,B,68.79715116767183,42.8086664501102,3.4398575583835913,0.6724369601482103,B,469,Correct
2,relearn,53,168,A,12.568190918385103,40.37784763946547,0.6284095459192551,0.6342537475595635,A,493,Correct
2,relearn,53,169,B,57.69595382455871,28.617361861364408,2.884797691227935,0.44952046894391573,B,483,Correct
2,relearn,53,170,B,54.792135963024066,34.07149338424702,2.739606798151203,0.5351937665639184,A,386,Incorrect
2,relearn,53,171,B,87.7128043714606,69.5991709402156,4.38564021857303,1.0932612206086079,B,437,Correct
2,relearn,53,172,A,39.47651105894938,48.59788382652266,1.9738255529474689,0.7633737740470691,B,339,Incorrect
2,relearn,53,173,B,64.80783621987545,46.14663572863361,3.240391810993773,0.7248696589647982,B,512,Correct
2,relearn,53,174,A,61.74410770399187,72.60723502984148,3.0872053851995935,1.1405117808360874,A,947,Correct
2,relearn,53,175,B,62.844012256989004,38.29299174553066,3.14220061284945,0.6015049077586685,B,390,Correct
2,relearn,53,176,B,40.22283661307283,16.63002351842078,2.0111418306536417,0.26122379857248107,B,772,Correct
2,relearn,53,177,A,27.700069569694406,56.817662668937295,1.3850034784847203,0.8924897581743823,A,747,Correct
2,relearn,53,178,B,43.55825337791417,29.882108651015848,2.1779126688957087,0.469387065059017,B,1151,Correct
2,relearn,53,179,B,58.67070761925508,30.676909665380663,2.9335353809627542,0.48187177019798805,B,702,Correct
2,relearn,53,180,A,14.241670545325753,35.91610020871062,0.7120835272662877,0.5641687828064006,B,683,Incorrect
2,relearn,53,181,B,57.7140234100192,50.39122132563314,2.88570117050096,0.7915434536101319,B,574,Correct
2,relearn,53,182,B,54.78921625443908,23.902205128289815,2.7394608127219544,0.3754549601781578,B,1116,Correct
2,relearn,53,183,A,48.81088353248461,73.06418169521726,2.4405441766242304,1.147689482271222,A,865,Correct
2,relearn,53,184,B,35.581583857975374,12.293193768078911,1.7790791928987688,0.19310103615476268,A,786,Incorrect
2,relearn,53,185,A,38.38536743716263,45.97682503939562,1.9192683718581316,0.7222022788957425,A,1234,Correct
2,relearn,53,186,A,20.14197251089915,32.79529013255583,1.0070986255449577,0.5151472127639162,A,2329,Correct
2,relearn,53,187,B,68.11423669346205,40.48118619519887,3.4057118346731023,0.6358769857971868,B,2950,Correct
2,relearn,53,188,A,38.895417472810266,46.21209519106833,1.9447708736405134,0.7258978937962624,A,651,Correct
2,relearn,53,189,B,80.79115212051326,55.305986618321135,4.039557606025664,0.8687444062982654,B,685,Correct
2,relearn,53,190,A,59.80768024541379,71.65527837527597,2.9903840122706895,1.1255584806734926,A,758,Correct
2,relearn,53,191,A,59.96714354974742,68.48260838329756,2.9983571774873714,1.075722296978172,A,842,Correct
2,relearn,53,192,B,41.44870777795168,21.122360845916223,2.072435388897584,0.3317892683000155,A,1191,Incorrect
2,relearn,53,193,A,51.05255219055557,78.26536819324144,2.5526276095277787,1.2293895287319379,A,783,Correct
2,relearn,53,194,A,49.93065911711259,64.78841786776403,2.4965329558556295,1.0176940880553658,A,709,Correct
2,relearn,53,195,B,33.94922903260923,19.79129920468383,1.6974614516304616,0.31088100093216114,B,493,Correct
2,relearn,53,196,A,51.04481746472631,64.37717717791716,2.552240873236315,1.0112343344049652,A,564,Correct
2,relearn,53,197,B,71.30783931119134,44.18175887386657,3.5653919655595674,0.6940054455040744,B,610,Correct
2,relearn,53,198,A,46.84419505626196,69.17002404616781,2.342209752813098,1.0865201969603506,A,971,Correct
2,relearn,53,199,B,62.33834237732338,48.13875627980104,3.116917118866169,0.7561618154078624,B,757,Correct
2,relearn,53,200,A,33.15779390405707,65.42305168314822,1.6578896952028537,1.027662892716019,A,786,Correct
2,relearn,53,201,B,46.96474689474957,31.238939936057058,2.3482373447374782,0.49070012104524824,B,768,Correct
2,relearn,53,202,A,38.42065059160686,57.83212177655758,1.921032529580343,0.9084248445737179,A,574,Correct
2,relearn,53,203,A,40.884288060096765,71.02847189449754,2.044214403004838,1.1157126274973128,A,615,Correct
2,relearn,53,204,B,45.142731645879145,27.223102188929506,2.257136582293957,0.4276194892233258,B,504,Correct
2,relearn,53,205,A,30.451444366640487,46.19564058865368,1.5225722183320243,0.7256394255059444,A,497,Correct
2,relearn,53,206,A,63.6083222376553,74.15311869041446,3.1804161118827654,1.1647944645928903,A,1223,Correct
2,relearn,53,207,B,75.57180514104198,48.69362702175155,3.778590257052099,0.7648777046408806,B,799,Correct
2,relearn,53,208,A,41.407586464326364,63.08371603010895,2.070379323216318,0.9909166942066748,A,1107,Correct
2,relearn,53,209,A,22.601020546993308,36.62597144259411,1.1300510273496653,0.5753194140732161,B,875,Incorrect
2,relearn,53,210,B,61.83109226020827,32.406525343259695,3.091554613010414,0.5090405097337806,B,1287,Correct
2,relearn,53,211,A,23.733872350709028,39.8343604089445,1.1866936175354512,0.6257166701059408,A,781,Correct
2,relearn,53,212,B,72.97243542355346,60.16466697271356,3.648621771177673,0.945064378835767,A,650,Incorrect
2,relearn,53,213,B,82.71711312253785,52.971055793900675,4.135855656126893,0.8320673986750668,B,627,Correct
2,relearn,53,214,A,58.41128594715609,76.11040259489647,2.9205642973578048,1.1955394082694415,A,799,Correct
2,relearn,53,215,B,40.00855971501739,20.711180045073867,2.0004279857508696,0.32533045538389793,B,1249,Correct
2,relearn,53,216,A,12.348817974018203,37.65219086351251,0.6174408987009101,0.5914392310418581,A,676,Correct
2,relearn,53,217,B,84.10064472194281,57.6051675557252,4.20503223609714,0.904859856009377,B,1055,Correct
2,relearn,53,218,A,28.82257863809293,48.73283300451618,1.4411289319046465,0.7654935507780312,A,1637,Correct
2,relearn,53,219,B,70.87504631568086,53.515518094144944,3.543752315784043,0.8406197924880869,B,643,Correct
2,relearn,53,220,B,57.45573806778089,29.050939133998376,2.872786903389045,0.4563310848162676,B,553,Correct
2,relearn,53,221,B,83.86875026805377,68.12016013752745,4.193437513402689,1.0700289732470825,B,686,Correct
2,relearn,53,222,A,38.7122978913171,60.86931580095051,1.935614894565855,0.9561329767465161,A,1876,Correct
2,relearn,53,223,B,76.8271938958112,57.90059857258647,3.8413596947905604,0.9095004755704466,B,823,Correct
2,relearn,53,224,A,59.053899573808,83.26400268859264,2.9526949786904004,1.3079078957748171,A,967,Correct
2,relearn,53,225,A,28.682916392597832,52.004777693444275,1.4341458196298915,0.8168891377664745,A,616,Correct
2,relearn,53,226,B,47.953683197501135,17.607309660098377,2.3976841598750567,0.2765749733882283,B,649,Correct
2,relearn,53,227,B,60.34536490334047,32.30346397256315,3.017268245167023,0.5074216255085348,A,598,Incorrect
2,relearn,53,228,B,36.9245393167852,19.422352318597834,1.84622696583926,0.3050855967976982,B,650,Correct
2,relearn,53,229,A,19.477857943193776,43.35830204529408,0.9738928971596889,0.6810706158881159,B,603,Incorrect
2,relearn,53,230,A,23.632240845514083,41.197010223327965,1.1816120422757042,0.6471211233373537,A,649,Correct
2,relearn,53,231,B,54.02475037890681,35.863912242016966,2.7012375189453404,0.5633490161425476,B,705,Correct
2,relearn,53,232,B,48.370131177144096,23.92311747464252,2.418506558857205,0.37578345054651274,B,640,Correct
2,relearn,53,233,A,58.82595809601225,86.01934330535252,2.9412979048006127,1.3511886849735693,A,895,Correct
2,relearn,53,234,B,58.16799888912469,40.2812357963643,2.9083999444562347,0.6327361722768814,B,1253,Correct
2,relearn,53,235,A,17.131798087737923,33.43074213100002,0.8565899043868961,0.5251288694140223,A,592,Correct
2,relearn,53,236,B,50.46851957403558,20.252412630047637,2.523425978701779,0.31812415368013397,B,844,Correct
2,relearn,53,237,A,47.04443051615108,79.03203952064459,2.352221525807554,1.2414323737813762,A,851,Correct
2,relearn,53,238,B,63.584540564338454,32.51145947712715,3.1792270282169226,0.5106888112541245,B,580,Correct
2,relearn,53,239,A,47.7677655465681,60.397426807837874,2.388388277328405,0.9487205617761535,A,593,Correct
2,relearn,53,240,B,51.69873156504595,36.21552976160356,2.584936578252297,0.5688722112245813,B,400,Correct
2,relearn,53,241,A,48.66867245628434,62.25072653493596,2.433433622814217,0.97783212581391,A,466,Correct
2,relearn,53,242,B,48.64305564433535,40.0087573036594,2.4321527822167672,0.6284560901221667,B,318,Correct
2,relearn,53,243,B,70.30316851540354,51.88012839125951,3.515158425770177,0.8149311511063808,B,1097,Correct
2,relearn,53,244,A,53.80297033452288,75.27330345777145,2.6901485167261443,1.1823902857718498,B,630,Incorrect
2,relearn,53,245,B,71.5504580494449,51.7334850554368,3.577522902472245,0.8126276829737881,B,564,Correct
2,relearn,53,246,B,58.38516923771775,30.40124442727948,2.919258461885887,0.4775416307636443,B,506,Correct
2,relearn,53,247,A,52.86568799359242,80.82486161217103,2.643284399679621,1.269593957341041,A,605,Correct
2,relearn,53,248,A,34.52016272972908,43.41821301552318,1.726008136486454,0.6820116952078218,B,1803,Incorrect
2,relearn,53,249,B,58.648729876279674,38.7994896389543,2.9324364938139835,0.6094609580638606,B,709,Correct
2,relearn,53,250,B,71.49374977974055,42.04708685493274,3.5746874889870277,0.6604740958415434,B,561,Correct
2,relearn,53,251,A,39.12657795807561,62.48327755100405,1.9563288979037805,0.9814850286322317,B,709,Incorrect
2,relearn,53,252,B,58.7657535674303,45.80083077854263,2.9382876783715153,0.7194377675108942,B,375,Correct
2,relearn,53,253,B,54.688767787114394,37.11431232830562,2.73443838935572,0.5829902547682101,B,1011,Correct
2,relearn,53,254,A,19.975243813070264,44.96778780625705,0.9987621906535132,0.7063523591016091,A,694,Correct
2,relearn,53,255,A,64.23022985200207,74.21078686022126,3.2115114926001036,1.1657003140859452,B,613,Incorrect
2,relearn,53,256,A,56.39444482107761,74.33516627181766,2.819722241053881,1.1676540613145907,A,654,Correct
2,relearn,53,257,A,30.010545992403788,57.03268374769873,1.5005272996201893,0.8958673013814015,A,589,Correct
2,relearn,53,258,A,12.658640498378258,32.34400986432699,0.632932024918913,0.5080585188870275,B,767,Incorrect
2,relearn,53,259,A,66.17753368613727,89.57857673928054,3.3088766843068633,1.4070969930157662,A,666,Correct
2,relearn,53,260,A,50.27210070789752,61.5548983846809,2.513605035394876,0.9669020827888987,A,742,Correct
2,relearn,53,261,A,50.46753257507102,74.9700497127867,2.523376628753551,1.1776267870847614,A,556,Correct
2,relearn,53,262,B,72.20292664355891,53.702549830131375,3.6101463321779454,0.8435576801269025,B,744,Correct
2,relearn,53,263,B,58.178698799850565,34.21189278796117,2.908934939992528,0.5373991552403022,B,560,Correct
2,relearn,53,264,A,27.59587280348427,43.76267345932539,1.3797936401742135,0.6874224672063284,A,846,Correct
2,relearn,53,265,A,51.19729560945603,79.89649931822314,2.5598647804728016,1.2550112765283585,A,893,Correct
2,relearn,53,266,A,65.88038504779672,87.71695544307404,3.294019252389836,1.377854714076123,A,595,Correct
2,relearn,53,267,A,25.11526659123398,51.741809016004524,1.255763329561699,0.8127584354406296,A,1041,Correct
2,relearn,53,268,B,37.848834218216275,22.130495249291485,1.8924417109108136,0.34762500647738975,B,789,Correct
2,relearn,53,269,A,53.63251990728137,79.53827582369821,2.6816259953640684,1.2493843150346446,B,1103,Incorrect
2,relearn,53,270,B,62.235068742499465,46.454781030870556,3.1117534371249733,0.7297099940535271,B,3883,Correct
2,relearn,53,271,A,50.36760850418575,76.65322084763889,2.5183804252092874,1.2040659774446916,A,2639,Correct
2,relearn,53,272,A,25.008557713589568,54.07174275956505,1.2504278856794784,0.8493569491012333,A,810,Correct
2,relearn,53,273,B,47.03517297939682,26.715390191131817,2.3517586489698408,0.41964436781122266,B,819,Correct
2,relearn,53,274,B,70.36355068910838,60.21969133411897,3.5181775344554187,0.9459286994835655,B,603,Correct
2,relearn,53,275,B,36.69700521854272,13.570376262616186,1.8348502609271362,0.2131629718654216,A,586,Incorrect
2,relearn,53,276,B,80.85819048633735,67.64193161091424,4.042909524316867,1.062516977117357,B,1423,Correct
2,relearn,53,277,B,76.013205299642,48.97424842607283,3.8006602649820995,0.7692856953521595,B,580,Correct
2,relearn,53,278,A,25.53978100514293,54.583487398633494,1.2769890502571466,0.8573954150942902,A,1000,Correct
2,relearn,53,279,A,53.98399856192051,72.38026124314914,2.6991999280960255,1.1369464849319368,B,667,Incorrect
2,relearn,53,280,B,72.20060942155584,57.73654477563851,3.610030471077792,0.9069235245540204,B,579,Correct
2,relearn,53,281,A,48.77887105914702,55.6828680045028,2.438943552957351,0.8746644452687806,A,1350,Correct
2,relearn,53,282,A,61.90325270573369,77.4149900272194,3.0951626352866843,1.216031819736198,B,1654,Incorrect
2,relearn,53,283,B,68.85150332036048,56.72178124754119,3.4425751660180244,0.8909836563290134,B,611,Correct
2,relearn,53,284,A,22.86065437182462,48.2381648699338,1.143032718591231,0.7577233218901862,A,601,Correct
2,relearn,53,285,B,68.78924801051036,58.02084214208851,3.4394624005255183,0.9113892571433916,B,717,Correct
2,relearn,53,286,A,40.06943099429459,58.940192905810584,2.0034715497147295,0.9258303851702989,A,597,Correct
2,relearn,53,287,B,47.923845684503725,36.919815290640265,2.396192284225186,0.5799351024448379,B,743,Correct
2,relearn,53,288,A,44.08059827673988,51.73285449991333,2.204029913836994,0.8126177782307867,B,1339,Incorrect
2,relearn,53,289,B,55.800180642722005,25.07461419454191,2.7900090321361,0.39387111872585606,B,582,Correct
2,relearn,53,290,B,87.09558537703796,67.96694433486691,4.354779268851899,1.0676222650468217,A,1480,Incorrect
2,relearn,53,291,B,62.26697861986693,52.47985766916594,3.113348930993346,0.8243516765744483,B,514,Correct
2,relearn,53,292,A,34.04631313718876,47.91067883573051,1.702315656859438,0.7525791832941545,A,647,Correct
2,relearn,53,293,B,80.02212477525391,53.6634274108227,4.001106238762696,0.8429431466014485,B,618,Correct
2,relearn,53,294,B,80.89790342230376,57.29371596761136,4.044895171115188,0.8999675859035403,B,1042,Correct
2,relearn,53,295,B,60.85439096383535,29.272068404036474,3.0427195481917675,0.4598045752674944,B,1326,Correct
2,relearn,53,296,B,75.39029645864771,53.18603189041122,3.7695148229323854,0.8354442353025417,B,848,Correct
2,relearn,53,297,A,27.21802364217762,42.7716624179159,1.360901182108881,0.6718557021697361,B,915,Incorrect
2,relearn,53,298,A,57.41790438477868,76.02080208775459,2.870895219238934,1.194131966794467,B,562,Incorrect
2,relearn,53,299,A,47.421861294981355,68.51941760725178,2.3710930647490676,1.0763004949159667,A,962,Correct
2,relearn,53,300,B,53.53874993630243,25.903795695974345,2.6769374968151216,0.40689587129281957,B,614,Incorrect
2,relearn,53,301,A,23.02857047551721,52.41491381598333,1.1514285237758606,0.823331540914177,A,542,Correct
2,relearn,53,302,A,60.03270315070771,68.92118329394881,3.0016351575353855,1.082611415564926,A,680,Correct
2,relearn,53,303,A,47.49392943135778,76.19539198097112,2.374696471567889,1.1968744184240676,A,408,Correct
2,relearn,53,304,B,44.862120155958266,19.895515335310606,2.2431060077979135,0.31251802408397433,B,676,Correct
2,relearn,53,305,B,68.51630105863968,47.35145905758837,3.425815052931984,0.7437949795603875,B,694,Correct
2,relearn,53,306,A,23.96270589627136,38.7125384929607,1.198135294813568,0.6080951326564871,B,1022,Correct
2,relearn,53,307,B,42.15597259194962,18.85347707090034,2.107798629597481,0.2961497253028206,A,745,Correct
2,relearn,53,308,B,56.38537571534114,25.02492485279968,2.819268785767057,0.3930906003709605,A,851,Correct
2,relearn,53,309,B,80.54994535503016,55.74184275028664,4.027497267751508,0.87559081840929,A,1365,Incorrect
2,relearn,53,310,A,34.894403241012014,57.36468980729416,1.7447201620506008,0.9010824403702631,A,507,Incorrect
2,relearn,53,311,B,79.13735638449639,64.28229958910083,3.9568678192248194,1.0097440007248868,B,1647,Correct
2,relearn,53,312,A,47.74738389808101,74.5602866208441,2.3873691949040508,1.1711902434879657,A,871,Correct
2,relearn,53,313,A,51.35679899378185,61.0087144891454,2.567839949689093,0.9583226462202817,B,644,Correct
2,relearn,53,314,A,43.82838835954006,67.41286598475361,2.1914194179770026,1.0589188226756758,A,1019,Incorrect
2,relearn,53,315,B,78.11306035569245,51.74910805999052,3.905653017784623,0.8128730885554529,B,867,Incorrect
2,relearn,53,316,A,39.084835143074216,52.427547883441626,1.9542417571537107,0.8235299963817367,A,757,Incorrect
2,relearn,53,317,A,37.304263547845096,46.8671161107144,1.865213177392255,0.7361869383418009,B,1046,Incorrect
2,relearn,53,318,A,69.78004001028098,87.75138339899239,3.489002000514049,1.3783955071430793,A,724,Correct
2,relearn,53,319,B,81.08141276648138,64.80104490144157,4.0540706383240686,1.0178924330365557,B,1212,Correct
2,relearn,53,320,B,62.80640696845664,38.926708802271996,3.1403203484228324,0.6114593120082341,B,775,Correct
2,relearn,53,321,A,36.367462310444225,49.6742157284341,1.8183731155222114,0.7802807560264154,A,1013,Incorrect
2,relearn,53,322,A,59.81789049202584,70.37500852620536,2.990894524601292,1.105448048911229,A,591,Correct
2,relearn,53,323,A,39.73709562809052,65.76482762606076,1.986854781404526,1.0330314966731577,A,595,Correct
2,relearn,53,324,A,44.45414893407793,65.93929231734855,2.2227074467038963,1.0357719816354605,A,528,Incorrect
2,relearn,53,325,A,36.11977500575251,51.40838449204141,1.8059887502876253,0.8075210152655837,A,584,Correct
2,relearn,53,326,A,35.48278445046726,62.68784260192988,1.7741392225233628,0.9846983289380808,A,766,Correct
2,relearn,53,327,B,41.57073916003673,18.132823575985732,2.0785369580018367,0.2848297266757829,B,573,Correct
2,relearn,53,328,B,35.28776026396025,17.38925283654911,1.7643880131980125,0.2731497448135908,B,539,Incorrect
2,relearn,53,329,A,33.150101146736404,57.94161344864942,1.6575050573368202,0.9101447357370829,A,884,Correct
2,relearn,53,330,B,81.93401758672637,62.156386489616935,4.096700879336319,0.9763502358473422,B,694,Correct
2,relearn,53,331,A,34.30086925088589,61.625816610098504,1.7150434625442943,0.9680160636687867,A,855,Correct
2,relearn,53,332,B,54.4906552689343,36.54519267964632,2.724532763446715,0.5740505442320019,B,708,Correct
2,relearn,53,333,B,45.46594161744316,22.653474538947375,2.2732970808721578,0.3558399459492025,B,670,Correct
2,relearn,53,334,A,29.763988555151258,53.141283553869776,1.488199427757563,0.8347413300758469,A,869,Incorrect
2,relearn,53,335,A,48.86060364055089,57.70671745063644,2.4430301820275444,0.9064549980285068,B,902,Incorrect
2,relearn,53,336,A,28.022805414284882,56.41926926692231,1.401140270714244,0.8862318092493375,A,1310,Correct
2,relearn,53,337,A,31.030359099811406,43.43598704661959,1.5515179549905702,0.6822908890354076,A,580,Correct
2,relearn,53,338,B,57.76566312681588,35.94711740358159,2.888283156340794,0.5646559997641086,B,711,Incorrect
2,relearn,53,339,B,72.32186814958906,51.64356796181921,3.6160934074794535,0.8112152685700822,B,575,Correct
2,relearn,53,340,A,41.45032905862148,65.95080464572483,2.0725164529310742,1.0359528168667236,A,615,Correct
2,relearn,53,341,B,72.04992812343366,57.00847589204242,3.6024964061716833,0.8954870452739564,B,1562,Incorrect
2,relearn,53,342,A,27.148556380238354,59.889165349304015,1.3574278190119176,0.9407368094549895,A,600,Incorrect
2,relearn,53,343,A,39.43440128140692,67.44279434236526,1.9717200640703458,1.05938893621771,A,662,Incorrect
2,relearn,53,344,A,51.140718936986005,72.46011043697898,2.5570359468493002,1.1382007531355913,A,586,Incorrect
2,relearn,53,345,B,82.21557728227913,56.20344020553919,4.110778864113956,0.8828415742809756,B,692,Incorrect
2,relearn,53,346,B,44.090204853193015,20.599779877036607,2.204510242659651,0.3235805856363253,A,1036,Correct
2,relearn,53,347,A,47.356882167325026,56.58911251637947,2.367844108366251,0.8888997007731197,B,3558,Correct
2,relearn,53,348,B,64.55028904968307,34.099991475793445,3.227514452484154,0.5356414135391363,B,956,Incorrect
2,relearn,53,349,B,75.92289288170264,63.294144106089874,3.796144644085132,0.9942220906947282,B,937,Correct
2,relearn,53,350,B,85.34569277580187,65.75980365904641,4.267284638790093,1.032952580383837,B,676,Correct
2,relearn,53,351,A,48.57906348667302,75.19926864562149,2.428953174333651,1.1812273496620487,B,708,Incorrect
2,relearn,53,352,B,60.56352824209813,28.95296510808035,3.0281764121049064,0.45479211241593415,A,1372,Incorrect
2,relearn,53,353,B,77.37302792214905,51.37999808109052,3.8686513961074525,0.8070751225650581,B,922,Correct
2,relearn,53,354,B,44.0876301448838,32.97952900791168,2.2043815072441904,0.5180412302505341,B,1613,Correct
2,relearn,53,355,B,70.0909849375718,42.66537793502521,3.5045492468785904,0.6701861894165363,A,1227,Incorrect
2,relearn,53,356,A,43.46452099132405,61.81932582154024,2.1732260495662024,0.9710556992541232,B,1348,Incorrect
2,relearn,53,357,A,20.745814235047348,47.911080732548996,1.0372907117523673,0.7525854962746171,B,1106,Incorrect
2,relearn,53,358,A,14.063173170845001,35.79297812546757,0.7031586585422501,0.5622347856453455,B,1097,Incorrect
2,relearn,53,359,A,68.22868528358553,84.2249509165473,3.411434264179277,1.3230024352419294,B,2232,Incorrect
2,relearn,53,360,A,21.892040941995823,52.669056662005346,1.094602047099791,0.8273236074043028,A,936,Correct
2,relearn,53,361,B,41.940180298803014,18.650561584041792,2.0970090149401504,0.2929623362887485,B,1155,Incorrect
2,relearn,53,362,A,16.8144429077073,36.12393364730795,0.840722145385365,0.567433422825739,A,959,Correct
2,relearn,53,363,B,70.30348614156402,43.007546334535895,3.515174307078201,0.675560958067503,B,2032,Correct
2,relearn,53,364,B,70.85887275297794,44.2509788335892,3.5429436376488974,0.6950927500888062,B,1622,Correct
2,relearn,53,365,B,49.484376234474574,26.51013798720532,2.4742188117237287,0.4164202737312797,A,1394,Correct
2,relearn,53,366,B,82.13526583019676,65.45239986468229,4.106763291509838,1.0281238928735372,B,761,Correct
2,relearn,53,367,B,74.49129541878588,50.11899722830897,3.7245647709392937,0.7872673674887134,B,1256,Correct
2,relearn,53,368,B,80.35713544914086,54.81476291134712,4.017856772457042,0.8610282823527717,B,550,Correct
2,relearn,53,369,B,40.90397131913379,27.86117590038448,2.0451985659566896,0.4376423276451044,A,772,Correct
2,relearn,53,370,A,34.36070986884093,55.00357975137246,1.7180354934420463,0.8639942103402601,B,2467,Incorrect
2,relearn,53,371,B,88.67855720367709,62.00267852109185,4.4339278601838545,0.9739357967237592,B,728,Correct
2,relearn,53,372,A,40.29320952584823,73.13445465134636,2.0146604762924114,1.148793327284828,B,1455,Incorrect
2,relearn,53,373,A,28.79622511389929,56.71517024130898,1.4398112556949645,0.8908798108859538,A,1182,Incorrect
2,relearn,53,374,A,40.50014211813519,55.27521478929009,2.0250071059067594,0.8682610435381583,A,1476,Incorrect
2,relearn,53,375,B,80.12283430513516,52.96496745183753,4.006141715256757,0.8319717632215764,B,658,Correct
2,relearn,53,376,B,52.266575500462714,40.22523455298212,2.613328775023136,0.6318565068028746,A,648,Incorrect
2,relearn,53,377,A,30.448892881617013,60.52953879637496,1.5224446440808506,0.9507957720393498,A,955,Incorrect
2,relearn,53,378,B,51.23950667267721,32.97170990786057,2.56197533363386,0.5179184081141428,A,886,Incorrect
2,relearn,53,379,A,37.21105616525248,60.28850052564821,1.860552808262624,0.947009551736604,B,1633,Incorrect
2,relearn,53,380,A,36.59710586403059,58.185077804686884,1.8298552932015295,0.9139690648987743,B,1311,Correct
2,relearn,53,381,B,34.9640419932889,22.856683183722154,1.7482020996644452,0.3590319398770544,B,1397,Correct
2,relearn,53,382,A,64.4791553986809,85.03437499276934,3.2239577699340454,1.335716838899419,B,952,Correct
2,relearn,53,383,B,64.51606570152103,51.347174193593865,3.2258032850760516,0.8065595261459495,B,576,Correct
2,relearn,53,384,A,36.440998481114754,46.644403958025656,1.8220499240557375,0.7326885840280404,B,667,Incorrect
2,relearn,53,385,B,58.995316610039076,34.88244047011877,2.9497658305019536,0.5479320936010421,B,545,Correct
2,relearn,53,386,B,79.08424659631015,48.21373391841347,3.9542123298155074,0.7573395614011038,B,658,Incorrect
2,relearn,53,387,B,63.647446575681606,55.263928267604726,3.18237232878408,0.8680837552701015,B,909,Incorrect
2,relearn,53,388,B,42.65988880680118,34.7793052941259,2.1329944403400587,0.5463120500449126,B,976,Correct
2,relearn,53,389,B,50.77562963250285,39.611732052718295,2.538781481625142,0.6222196320639356,B,1139,Incorrect
2,relearn,53,390,A,17.943342262279355,41.97526130625933,0.8971671131139678,0.659345862761281,B,1102,Correct
2,relearn,53,391,B,77.84987899427865,65.70955933691944,3.8924939497139324,1.0321633444174436,A,684,Incorrect
2,relearn,53,392,B,77.52687569369958,51.60340136404734,3.876343784684979,0.8105843331276832,B,468,Correct
2,relearn,53,393,A,50.08872452709694,68.25783759663597,2.504436226354847,1.0721916057175838,B,562,Correct
2,relearn,53,394,A,39.44920458673594,51.40392365846127,1.9724602293367968,0.8074509446555623,B,518,Correct
2,relearn,53,395,B,60.86292887361764,52.267840301169976,3.043146443680882,0.8210213155458005,B,427,Incorrect
2,relearn,53,396,A,48.5243512739043,72.8371645515001,2.4262175636952152,1.144123505316518,A,826,Correct
2,relearn,53,397,A,28.081925209084346,52.62629590071176,1.4040962604542173,0.8266519229365935,B,488,Incorrect
2,relearn,53,398,B,77.64369169981097,46.68416719239546,3.8821845849905485,0.7333131834529361,B,553,Correct
2,relearn,53,399,B,83.92087783615436,65.249524611559,4.196043891807718,1.0249371358495007,B,703,Incorrect
2,relearn,53,400,B,51.745708901592316,41.51437887026502,2.587285445079616,0.6521063383858395,B,614,Incorrect
2,relearn,53,401,A,39.365491679948825,61.55303241834348,1.9682745839974414,0.9668727722582113,A,849,Correct
2,relearn,53,402,B,37.84247921901246,27.445463667909607,1.892123960950623,0.43111233516735203,A,1525,Incorrect
2,relearn,53,403,B,45.91484180692762,17.883614684167146,2.295742090346381,0.2809151625570503,B,1445,Correct
2,relearn,53,404,B,51.31264268543699,44.25607648664449,2.5656321342718496,0.6951728238357515,B,856,Incorrect
2,relearn,53,405,A,17.678205574045794,44.00672922451486,0.8839102787022897,0.6912560862012557,A,787,Incorrect
2,relearn,53,406,A,30.76979795983418,56.18939647289878,1.538489897991709,0.8826209758445152,B,861,Incorrect
2,relearn,53,407,A,65.38667835435291,85.40218257499559,3.2693339177176455,1.341494346890702,B,1048,Incorrect
2,relearn,53,408,B,73.1682190458678,42.92477734142597,3.65841095229339,0.6742608257640074,B,1163,Incorrect
2,relearn,53,409,A,40.09877349512312,59.36480013361439,2.004938674756156,0.9325000999079467,A,844,Correct
2,relearn,53,410,B,41.68870157790221,14.182593511763717,2.0844350788951105,0.2227796579270358,B,729,Incorrect
2,relearn,53,411,A,43.57490965467663,54.22879264890008,2.1787454827338313,0.8518238829941434,A,795,Correct
2,relearn,53,412,B,63.52791721272814,49.58490935697128,3.176395860636407,0.7788779348238839,A,483,Incorrect
2,relearn,53,413,A,53.47852166588785,81.09205323010386,2.673926083294392,1.2737909934610336,A,806,Correct
2,relearn,53,414,A,25.965740329987177,38.095395554295564,1.2982870164993587,0.5984010740448611,B,953,Incorrect
2,relearn,53,415,B,46.97227484372556,24.135742629307117,2.348613742186278,0.3791233586658262,B,1753,Incorrect
2,relearn,53,416,A,22.774853274524887,44.47848531361399,1.1387426637262443,0.6986664135202559,A,995,Correct
2,relearn,53,417,A,57.810419078151114,69.09017997101817,2.8905209539075556,1.085266009160737,A,953,Correct
2,relearn,53,418,B,59.55764263992784,44.217518451218865,2.9778821319963917,0.6945671556316015,B,920,Correct
2,relearn,53,419,A,44.93669529581746,72.81169476854957,2.246834764790873,1.1437234269014886,A,666,Correct
2,relearn,53,420,A,22.16407484138164,50.14126608786897,1.1082037420690822,0.787617165916701,B,667,Incorrect
2,relearn,53,421,B,72.63205595287931,60.03788356743222,3.631602797643966,0.9430728697626221,B,612,Correct
2,relearn,53,422,A,45.196292596776836,56.8102618678038,2.2598146298388415,0.8923735066620239,A,656,Correct
2,relearn,53,423,A,48.53808724481338,71.15866628092263,2.426904362240669,1.1177577161369714,B,632,Correct
2,relearn,53,424,B,47.95828464346362,27.538604675393373,2.3979142321731812,0.4325753906916468,A,810,Incorrect
2,relearn,53,425,B,77.54446717140618,54.074144563741434,3.877223358570309,0.8493946765530127,B,549,Correct
2,relearn,53,426,A,24.414397171210112,41.004976199200044,1.2207198585605057,0.6441046599401559,A,618,Incorrect
2,relearn,53,427,B,64.71134723048539,47.916788145241476,3.2355673615242693,0.7526751481035455,B,533,Incorrect
2,relearn,53,428,A,33.89981984920197,53.22248785015969,1.6949909924600985,0.8360168841791684,A,588,Correct
2,relearn,53,429,B,69.36207703946391,56.78572726570883,3.4681038519731953,0.8919881180335223,B,489,Incorrect
2,relearn,53,430,A,59.670099628991764,80.68114692992171,2.983504981449588,1.2673364923912038,A,1326,Correct
2,relearn,53,431,B,56.69820496766905,44.21537428576413,2.8349102483834527,0.6945334751593981,B,642,Correct
2,relearn,53,432,A,40.00870850097853,49.40048964700745,2.0004354250489262,0.7759810767938861,A,1597,Correct
2,relearn,53,433,B,46.51624608980534,26.695753846727207,2.325812304490267,0.4193359208345982,B,821,Correct
2,relearn,53,434,A,20.38562682209876,51.39837447977891,1.019281341104938,0.8073637783606525,A,897,Incorrect
2,relearn,53,435,B,42.691553049050114,16.85864576653523,2.134577652452506,0.26481498844809875,B,1731,Incorrect
2,relearn,53,436,B,58.71424057486938,36.34383805232046,2.935712028743469,0.5708876731421355,A,1245,Incorrect
2,relearn,53,437,A,59.25771646864146,77.66163060624133,2.9628858234320727,1.21990604089186,A,1034,Correct
2,relearn,53,438,B,52.00773592141161,21.588556212209614,2.6003867960705804,0.33911224798944006,A,1722,Incorrect
2,relearn,53,439,B,36.44570468810194,15.617014846677545,1.8222852344050973,0.24531149556662454,B,942,Incorrect
2,relearn,53,440,A,40.332235097302586,69.42279447907148,2.0166117548651297,1.090490705635625,B,1212,Correct
2,relearn,53,441,A,45.58427569756993,68.93283488685408,2.2792137848784964,1.0827944383582948,B,824,Correct
2,relearn,53,442,B,73.12278599936076,60.103499458126755,3.656139299968038,0.9441035617634457,B,556,Correct
2,relearn,53,443,A,60.51796173509795,79.6511424039385,3.0258980867548972,1.2511572191312381,A,526,Incorrect
2,relearn,53,444,B,52.4599318734162,31.74807382915667,2.62299659367081,0.4986975775365248,B,981,Correct
2,relearn,53,445,B,50.05441949208042,30.18989673486189,2.502720974604021,0.47422178897438294,B,1223,Incorrect
2,relearn,53,446,A,31.039314323289332,55.20502748012165,1.5519657161644664,0.8671585438638643,B,2523,Incorrect
2,relearn,53,447,A,39.33023735681447,59.9521776138039,1.9665118678407236,0.9417266037911839,A,1376,Incorrect
2,relearn,53,448,B,77.17692772916803,58.32830194857922,3.8588463864584015,0.9162188244901185,B,984,Correct
2,relearn,53,449,B,65.586054007955,54.98590519613625,3.27930270039775,0.8637165790758325,B,814,Incorrect
2,relearn,53,450,B,84.58529239159944,66.52876038329882,4.229264619579972,1.0450313243630363,B,1885,Incorrect
2,relearn,53,451,B,48.55314472678901,25.805088313249,2.4276572363394506,0.4053453793506945,A,1448,Correct
2,relearn,53,452,B,45.761125786234444,17.1489405590771,2.2880562893117222,0.2693749283862233,A,911,Incorrect
2,relearn,53,453,B,68.03204805671476,55.56122462301951,3.4016024028357377,0.8727536755006521,B,939,Correct
2,relearn,53,454,B,72.35628568220666,51.51610246616724,3.6178142841103327,0.8092130452464502,B,755,Incorrect
2,relearn,53,455,A,45.70422778602217,77.73324835515443,2.2852113893011086,1.2210310098611203,A,682,Incorrect
2,relearn,53,456,A,44.06112564334592,71.18116856767088,2.203056282167296,1.1181111812306577,A,812,Correct
2,relearn,53,457,A,49.69015357850043,69.87314400178819,2.4845076789250213,1.0975647793961976,A,677,Incorrect
2,relearn,53,458,A,41.18351180776479,57.41334694446846,2.0591755903882394,0.9018467448937206,A,462,Correct
2,relearn,53,459,A,61.09317106078716,77.25272275582017,3.0546585530393577,1.2134829313974684,B,388,Incorrect
2,relearn,53,460,B,41.2254777331214,13.35331259437303,2.0612738866560703,0.20975334373785187,B,930,Incorrect
2,relearn,53,461,A,53.18081701000632,67.7306611209848,2.659040850500316,1.0639107370023286,A,742,Incorrect
2,relearn,53,462,A,23.96157648748264,48.112176727877184,1.1980788243741318,0.755744304782564,B,698,Correct
2,relearn,53,463,B,81.30356665929651,59.47624673805267,4.065178332964825,0.9342506990768007,A,464,Incorrect
2,relearn,53,464,A,59.75907743179155,78.02848125623471,2.9879538715895775,1.2256685174267794,B,390,Incorrect
2,relearn,53,465,A,42.56561405087956,65.84416441091153,2.128280702543978,1.0342777159753909,A,539,Incorrect
2,relearn,53,466,A,34.150695953626006,50.46417903047496,1.7075347976813005,0.7926894705579012,B,541,Incorrect
2,relearn,53,467,B,68.0973898934131,42.51029782323875,3.404869494670655,0.6677501967170052,A,644,Incorrect
2,relearn,53,468,A,64.527794090429,79.56794758596271,3.22638970452145,1.2498503979863906,A,294,Incorrect
2,relearn,53,469,A,25.159515690401783,39.69882182242182,1.257975784520089,0.6235876349674527,A,932,Correct
2,relearn,53,470,B,80.87646588783068,65.95872607142849,4.043823294391534,1.0360772463307064,B,700,Correct
2,relearn,53,471,A,17.51135215515892,47.899091601973794,0.875567607757946,0.7523971714519271,A,736,Incorrect
2,relearn,53,472,B,43.19533989196586,24.76285540438974,2.159766994598293,0.38897402310168555,A,783,Correct
2,relearn,53,473,A,29.026047425975882,43.42270637314616,1.4513023712987942,0.6820822767043134,A,869,Correct
2,relearn,53,474,A,37.32015240238554,58.433401394816855,1.8660076201192768,0.917869722731101,B,625,Incorrect
2,relearn,53,475,B,57.79288322980923,26.77789557585177,2.8896441614904615,0.42062620009845275,A,633,Correct
2,relearn,53,476,A,30.455850830789064,55.2908913785608,1.5227925415394532,0.8685072908265892,A,587,Correct
2,relearn,53,477,A,50.96308875710119,71.40034958696155,2.5481544378550596,1.121554068630707,A,818,Correct
2,relearn,53,478,B,49.26846759334514,28.937070566021205,2.4634233796672573,0.4545424415331083,B,590,Incorrect
2,relearn,53,479,B,77.2175394124818,57.36079122362473,3.86087697062409,0.9010212015611866,A,617,Correct
2,relearn,53,480,A,60.76789506334145,72.79997758886898,3.0383947531670725,1.143539373873462,A,215,Incorrect
2,relearn,53,481,B,55.0149622179815,37.41200115149536,2.750748110899075,0.5876663398681535,A,258,Correct
2,relearn,53,482,A,32.67856809442283,43.186532152059556,1.6339284047211413,0.6783724607146485,A,233,Incorrect
2,relearn,53,483,A,30.78617373522387,63.80513512204129,1.5393086867611936,1.0022487188035452,A,769,Correct
2,relearn,53,484,B,63.677637314618295,50.335636405885246,3.183881865730915,0.7906703277324802,B,473,Correct
2,relearn,53,485,A,32.2161050850891,57.224842085451655,1.610805254254455,0.8988857174924546,A,616,Correct
2,relearn,53,486,A,56.4839643851879,83.42817944627102,2.824198219259395,1.31048677825388,A,626,Correct
2,relearn,53,487,A,63.370848012980645,77.59893563351335,3.1685424006490326,1.2189212305631638,A,461,Correct
2,relearn,53,488,A,30.262432084673648,40.71125251288944,1.5131216042336826,0.6394908590646622,B,660,Incorrect
2,relearn,53,489,A,52.8824306198172,75.49871650924216,2.6441215309908603,1.185931065704468,A,804,Correct
2,relearn,53,490,A,53.251367204120534,64.7683159885376,2.662568360206027,1.0173783284748603,A,857,Correct
2,relearn,53,491,B,46.448752840298326,36.541703020928864,2.322437642014916,0.5739957288010503,A,531,Correct
2,relearn,53,492,B,83.50718330751697,60.38406257687953,4.175359165375848,0.9485106369271554,B,722,Correct
2,relearn,53,493,B,54.73150242356425,28.666422781296504,2.736575121178213,0.4502911160721009,A,690,Incorrect
2,relearn,53,494,A,33.615747314021746,50.97161568183389,1.6807873657010872,0.8006602668382582,B,824,Incorrect
2,relearn,53,495,A,51.74584067591192,61.932779964458604,2.5872920337955962,0.9728378327636815,A,856,Correct
2,relearn,53,496,B,54.17494669330574,40.87376251805594,2.7087473346652873,0.6420435602564919,A,1079,Incorrect
2,relearn,53,497,A,30.85223735606359,47.36368768073197,1.5426118678031795,0.7439870663235447,A,3455,Incorrect
2,relearn,53,498,A,52.999826411498134,79.2646391699944,2.6499913205749066,1.2450860405295008,B,1902,Correct
2,relearn,53,499,A,48.292980731330175,57.821809439161676,2.4146490365665088,0.9082628587566964,B,1143,Incorrect
2,relearn,53,500,B,57.643903901655804,29.486933720733454,2.88219519508279,0.46317967176972685,A,1212,Correct
2,relearn,53,501,A,57.19903577117605,67.8062623236472,2.8599517885588024,1.0650982779167621,B,1099,Incorrect
2,relearn,53,502,B,54.42386746744505,34.56029688085525,2.7211933733722526,0.5428718739338854,A,1270,Correct
2,relearn,53,503,B,60.45427286824442,49.73582255272994,3.0227136434122213,0.7812484737595098,A,1402,Incorrect
2,relearn,53,504,A,68.46975189323238,85.94666117270502,3.4234875946616192,1.3500469967037059,A,879,Correct
2,relearn,53,505,B,47.282354563275454,31.956158676640502,2.3641177281637726,0.5019661666774177,A,979,Incorrect
2,relearn,53,506,A,65.51798163661053,85.68907788561941,3.2758990818305267,1.3460008878917278,B,2023,Incorrect
2,relearn,53,507,B,39.20893392185428,17.878062402798534,1.960446696092714,0.2808279475252588,B,1431,Correct
2,relearn,53,508,A,30.12158242189483,55.51843346506953,1.5060791210947415,0.8720815135633807,A,1040,Correct
2,relearn,53,509,B,34.653594207279006,19.913475790626514,1.7326797103639504,0.3128001462563523,B,2459,Correct
2,relearn,53,510,A,42.274217098195095,52.23870770717346,2.1137108549097547,0.8205637018294032,A,1466,Correct
2,relearn,53,511,B,75.68633399770415,52.09514453396802,3.7843166998852076,0.818308616778062,A,1476,Incorrect
2,relearn,53,512,A,38.7407293543434,68.73010212540018,1.9370364677171699,1.0796099195881672,A,1514,Correct
2,relearn,53,513,B,81.78768394034675,60.59438044076951,4.0893841970173375,0.9518143022077327,B,731,Correct
2,relearn,53,514,B,47.55132007089226,27.365099908510558,2.377566003544613,0.42984998418663745,A,1893,Incorrect
2,relearn,53,515,B,67.76756375614765,55.986807830976836,3.3883781878073824,0.8794387208987017,A,1342,Incorrect
2,relearn,53,516,B,82.02323036179938,57.49657060119419,4.101161518089969,0.9031540190365928,B,1103,Correct
2,relearn,53,517,A,59.71898157711551,79.29721923540961,2.9859490788557754,1.2455978070003104,A,1267,Correct
2,relearn,53,518,B,79.54049644249443,52.9153349539937,3.9770248221247213,0.831192137768549,B,553,Incorrect
2,relearn,53,519,B,35.61012506620176,12.751829078190053,1.780506253310088,0.20030526275937288,B,1423,Correct
2,relearn,53,520,B,58.80264563977687,26.24112520794412,2.9401322819888436,0.412194630876036,A,2034,Incorrect
2,relearn,53,521,B,82.21675045937346,60.609408821349966,4.110837522968673,0.9520503674578674,B,1552,Incorrect
2,relearn,53,522,A,44.89601728429946,54.118289254745555,2.244800864214973,0.8500880997377804,A,844,Correct
2,relearn,53,523,B,46.69681968111347,34.71790651745239,2.3348409840556736,0.5453476003162282,B,507,Incorrect
2,relearn,53,524,A,16.696786485734236,31.97327223481438,0.8348393242867118,0.5022349858205968,A,665,Incorrect
2,relearn,53,525,A,61.11207003705613,80.60166999334456,3.0556035018528065,1.2660880715908007,B,439,Correct
2,relearn,53,526,A,56.84489920215321,75.23953939275674,2.84224496010766,1.181859921078822,A,720,Correct
2,relearn,53,527,A,43.25679529785481,63.58239972358047,2.16283976489274,0.9987499993460505,B,1281,Incorrect
2,relearn,53,528,A,41.17311647384357,58.87850761215379,2.058655823692179,0.9248614348433652,A,719,Correct
2,relearn,53,529,A,31.763535047499907,41.312587355848024,1.5881767523749954,0.6489366046895937,A,500,Incorrect
2,relearn,53,530,B,77.96314503022117,49.934463611628814,3.898157251511059,0.7843687202161997,A,1235,Incorrect
2,relearn,53,531,A,26.539644664602356,51.63824227840922,1.3269822332301178,0.8111316129307014,A,967,Correct
2,relearn,53,532,B,83.53651903934937,55.38913509070072,4.176825951967469,0.87005049944819,B,1235,Incorrect
2,relearn,53,533,A,26.65575494115933,42.54218507768337,1.3327877470579665,0.6682510805385371,A,1319,Incorrect
2,relearn,53,534,A,49.80169119015613,59.26285416203062,2.4900845595078063,0.9308987363309935,B,1025,Correct
2,relearn,53,535,B,40.95602971020136,26.332950609589517,2.0478014855100684,0.4136370209121465,B,387,Incorrect
2,relearn,53,536,A,18.02868774908302,39.37424468410555,0.9014343874541509,0.6184891892011648,A,1412,Incorrect
2,relearn,53,537,A,30.941701675417097,60.596304322778835,1.5470850837708547,0.9518445224756671,A,1161,Incorrect
2,relearn,53,538,B,73.4810305494205,52.73525347629157,3.6740515274710246,0.828363424531566,A,1044,Correct
2,relearn,53,539,B,54.6691328595743,25.28340626340828,2.733456642978715,0.39715081687424814,B,4052,Correct
2,relearn,53,540,A,64.28413378735598,87.06920864421286,3.214206689367799,1.3676799311526802,A,2537,Correct
2,relearn,53,541,B,60.80244660273317,42.09164050211291,3.0401223301366587,0.6611739428949026,A,739,Correct
2,relearn,53,542,B,51.8301953082983,25.44187016917519,2.591509765414915,0.3996399620853304,B,1784,Correct
2,relearn,53,543,A,42.49864076759215,63.25220157125262,2.1249320383796073,0.9935632588981401,B,1055,Incorrect
2,relearn,53,544,B,39.08648556462444,14.386703781815815,1.954324278231222,0.2259858145516253,B,1072,Incorrect
2,relearn,53,545,A,49.168422078288444,56.20604916636046,2.4584211039144224,0.8828825557417237,A,1039,Incorrect
2,relearn,53,546,B,62.97691915833549,42.5821346105581,3.1488459579167745,0.6688786063335049,B,801,Correct
2,relearn,53,547,B,81.84354098615668,58.69317291866275,4.092177049307834,0.9219502042857315,A,1528,Correct
2,relearn,53,548,A,61.01021935940837,85.45548183963422,3.0505109679704185,1.3423315697818543,A,666,Incorrect
2,relearn,53,549,B,35.9852479939302,14.261535194951296,1.7992623996965103,0.22401967098685635,B,1449,Incorrect
2,relearn,53,550,A,36.658724146786,45.13176178581215,1.8329362073393,0.7089280563493602,A,1251,Incorrect
2,relearn,53,551,B,84.25167546932767,68.92525990916131,4.212583773466383,1.0826754508869414,A,2341,Incorrect
2,relearn,53,552,A,21.159464556163716,47.174789589530135,1.0579732278081857,0.7410198620455606,A,696,Incorrect
2,relearn,53,553,A,42.47472768901783,68.74658926553593,2.1237363844508916,1.079868898979813,B,497,Incorrect
2,relearn,53,554,A,20.259265516302825,47.54779254867831,1.0129632758151415,0.7468789788266965,A,763,Incorrect
2,relearn,53,555,B,80.61615879041078,49.83337743865447,4.030807939520539,0.7827808623242214,B,698,Correct
2,relearn,53,556,A,33.50247962862829,63.28014378291516,1.6751239814314147,0.9940021741325605,A,983,Incorrect
2,relearn,53,557,B,79.3752628511055,49.17801391424668,3.968763142555275,0.7724864361556699,B,474,Correct
2,relearn,53,558,B,34.8048605716683,13.925081224825451,1.7402430285834152,0.21873466438276395,B,830,Correct
2,relearn,53,559,A,40.28354526403668,64.16018233728227,2.014177263201834,1.0078257874189378,A,435,Correct
2,relearn,53,560,A,61.02250202303967,83.01602361245074,3.0511251011519835,1.3040126495555602,A,670,Incorrect
2,relearn,53,561,B,46.43681064462123,31.774140392210033,2.321840532231062,0.4991070301514888,B,778,Correct
2,relearn,53,562,A,35.75519365400615,44.15602991737359,1.7877596827003075,0.69360129600056,A,790,Incorrect
2,relearn,53,563,B,72.36676264493371,50.612639186863916,3.6183381322466857,0.7950214772412127,B,684,Correct
2,relearn,53,564,B,39.16968788486811,15.753716627691752,1.9584843942434054,0.24745880212145888,A,609,Incorrect
2,relearn,53,565,A,26.259933622822047,43.92927425668671,1.3129966811411022,0.690039426411691,A,716,Correct
2,relearn,53,566,B,30.159039145897403,13.019096484911273,1.50795195729487,0.20450348936686982,A,653,Incorrect
2,relearn,53,567,A,27.031004606319804,51.950525406712444,1.3515502303159903,0.8160369448392887,A,622,Correct
2,relearn,53,568,B,68.86019618475197,50.10345646271286,3.4430098092375987,0.7870232537135737,B,520,Correct
2,relearn,53,569,A,32.0741466748788,40.96822362022462,1.6037073337439398,0.6435273517796075,B,801,Correct
2,relearn,53,570,B,62.92297715068537,54.83450738963812,3.1461488575342687,0.8613384278925117,B,1027,Incorrect
2,relearn,53,571,B,65.96028605118903,52.80353108120593,3.2980143025594515,0.8294359266415844,A,1394,Incorrect
2,relearn,53,572,B,71.02821462081403,39.295436338695744,3.5514107310407015,0.6172512706062596,B,921,Incorrect
2,relearn,53,573,B,62.740748189492805,31.698167157992646,3.1370374094746403,0.49791364537905475,A,718,Incorrect
2,relearn,53,574,A,19.227323514558616,50.287110996320635,0.9613661757279308,0.7899080923814771,A,634,Correct
2,relearn,53,575,A,47.76341246183326,77.03749268981466,2.3881706230916633,1.2101021054264955,B,638,Incorrect
2,relearn,53,576,A,60.27966626258302,87.7584414178248,3.013983313129151,1.378506374243643,A,620,Correct
2,relearn,53,577,B,55.428236974386174,28.516868810924283,2.7714118487193087,0.44794192779891817,B,840,Correct
2,relearn,53,578,B,41.76350865410318,22.189119247908675,2.088175432705159,0.3485458700942888,B,1813,Correct
2,relearn,53,579,B,78.8543798372874,61.748982283664986,3.94271899186437,0.9699507455450411,A,891,Correct
2,relearn,53,580,B,50.66351247864904,37.61627962532925,2.533175623932452,0.5908751386315689,A,2522,Correct
2,relearn,53,581,A,48.042905690440364,59.87650527094235,2.4021452845220184,0.940537945409115,A,724,Correct
2,relearn,53,582,A,16.388780681775405,44.87423867559062,0.8194390340887702,0.7048828927933523,B,581,Incorrect
2,relearn,53,583,A,46.93387909349084,72.78741503411753,2.346693954674542,1.1433420417248745,A,506,Correct
2,relearn,53,584,B,74.19567197632622,59.16287294951654,3.7097835988163115,0.9293282351173373,A,1495,Incorrect
2,relearn,53,585,B,66.90630482971441,54.615603508906204,3.345315241485721,0.8578998937747632,A,1294,Correct
2,relearn,53,586,B,61.2039381123922,38.26947627452914,3.06019690561961,0.6011355276039481,B,1284,Correct
2,relearn,53,587,A,57.25656048979056,72.94228342435866,2.862828024489528,1.1457747087101484,A,685,Incorrect
2,relearn,53,588,A,39.91899465369364,70.57761276878921,1.9959497326846818,1.1086305489116668,A,706,Correct
2,relearn,53,589,B,76.29890612916859,48.840619079902034,3.814945306458429,0.7671866504909884,A,671,Correct
2,relearn,53,590,A,33.93105689575885,45.27209445992393,1.6965528447879423,0.7111323968396009,B,675,Incorrect
2,relearn,53,591,B,81.71552947169185,60.09206309127434,4.085776473584593,0.9439239197330093,A,476,Correct
2,relearn,53,592,B,74.66371245900281,50.56655778939396,3.73318562295014,0.7942976323424189,A,564,Correct
2,relearn,53,593,B,87.26676555071816,69.90483331554958,4.363338277535908,1.098062553972748,A,650,Incorrect
2,relearn,53,594,B,57.7708437972035,50.45748818101693,2.888542189860175,0.7925843709403829,A,539,Incorrect
2,relearn,53,595,A,58.577212087857205,77.16032445977717,2.9288606043928604,1.212031542357204,B,623,Correct
2,relearn,53,596,B,77.28175737756504,58.4515510115652,3.864087868878252,0.9181548162443114,A,684,Incorrect
2,relearn,53,597,B,83.3537426919809,62.31376404503047,4.167687134599045,0.9788223167069775,B,765,Correct
2,relearn,53,598,B,67.5528922712242,40.87552167180634,3.37764461356121,0.642071192978986,A,691,Incorrect
2,relearn,53,599,A,26.658366521537626,44.99930732525346,1.3329183260768813,0.7068474665482282,B,533,Incorrect
2,relearn,53,600,A,44.465098585557456,63.11100664966544,2.2232549292778727,0.9913453742562276,B,342,Incorrect
2,relearn,53,601,B,84.60401301199512,54.92102304738566,4.230200650599756,0.8626974126665125,B,1028,Correct
2,relearn,53,602,B,45.825441852206644,31.583051071000334,2.291272092610332,0.4961054061130295,B,2428,Correct
2,relearn,53,603,B,81.15937594790297,66.20345037755187,4.057968797395149,1.0399213667420668,A,570,Incorrect
2,relearn,53,604,A,22.4356437603417,36.08366182570022,1.121782188017085,0.5668008345311913,A,552,Correct
2,relearn,53,605,A,58.32288410951581,77.07892689793339,2.9161442054757907,1.210752952445661,B,442,Incorrect
2,relearn,53,606,B,62.9823155148911,30.875688111450682,3.1491157757445545,0.4849941747273158,A,892,Incorrect
2,relearn,53,607,A,54.492436324875676,72.72071426097583,2.724621816243784,1.142294308430421,A,1073,Correct
2,relearn,53,608,B,66.87837095365457,56.06315364750757,3.343918547682728,0.8806379581804281,B,1236,Correct
2,relearn,53,609,A,20.758117769531033,52.51330613844162,1.0379058884765515,0.8248770839011997,A,673,Correct
2,relearn,53,610,B,63.20533609112463,51.31893225763028,3.1602668045562314,0.8061159028532177,B,689,Correct
2,relearn,53,611,B,60.3699221215932,44.92295138532042,3.01849610607966,0.7056480702484702,B,894,Correct
2,relearn,53,612,B,68.87662070723451,54.205355956188036,3.4438310353617254,0.8514557402859002,B,732,Correct
2,relearn,53,613,A,38.945895952408314,53.98738216473622,1.9472947976204156,0.8480318159763996,A,875,Correct
2,relearn,53,614,B,40.8441980477901,18.006220603281857,2.042209902389505,0.2828410518309373,B,1719,Correct
2,relearn,53,615,B,79.55925533868937,55.84187531946799,3.977962766934468,0.8771621263315892,A,686,Incorrect
2,relearn,53,616,A,31.141903914089937,52.92754113662605,1.557095195704497,0.8313838720369798,A,1467,Correct
2,relearn,53,617,A,15.105943078878951,37.63580327852291,0.7552971539439476,0.5911818154587911,A,976,Correct
2,relearn,53,618,A,41.032757842896075,58.02003941793353,2.0516378921448037,0.9113766479818508,B,758,Incorrect
2,relearn,53,619,A,42.75065010052015,51.81251040300155,2.1375325050260074,0.8138690102305719,B,831,Incorrect
2,relearn,53,620,A,44.476287964348906,67.4858848731266,2.223814398217445,1.0600658006921053,A,660,Correct
2,relearn,53,621,A,23.773314686840735,50.609077387431334,1.1886657343420368,0.794965528626558,A,918,Correct
2,relearn,53,622,A,57.375570193764204,68.7626875805438,2.86877850968821,1.0801217707206325,A,898,Correct
2,relearn,53,623,B,89.56504825423809,64.93432059225552,4.478252412711905,1.0199859226923718,B,1041,Correct
2,relearn,53,624,A,27.31485789085722,57.79759621473996,1.365742894542861,0.9078825183168816,A,940,Correct
2,relearn,53,625,A,12.10067551871228,33.090861934487855,0.6050337759356139,0.5197900437717059,A,1288,Correct
2,relearn,53,626,A,59.268103304760814,79.37355529105255,2.963405165238041,1.2467968909583698,A,1070,Correct
2,relearn,53,627,B,81.25474225365215,51.100819243671225,4.0627371126826075,0.8026897916416871,B,872,Correct
2,relearn,53,628,A,41.94779181388462,73.6069402752456,2.097389590694231,1.1562151141096715,A,1071,Correct
2,relearn,53,629,B,44.9726697491898,33.41959837319598,2.24863348745949,0.5249538236757695,B,1069,Correct
2,relearn,53,630,A,46.315050555128124,75.4709638206515,2.3157525277564064,1.1854951274914993,A,956,Correct
2,relearn,53,631,B,44.479876945794494,28.08042428773691,2.2239938472897247,0.4410862732601934,B,992,Correct
2,relearn,53,632,A,42.034880985142756,60.585231676922064,2.101744049257138,0.9516705937612698,A,670,Correct
2,relearn,53,633,B,70.07924376359136,51.46385078066032,3.5039621881795684,0.808392277689819,B,638,Correct
2,relearn,53,634,A,34.862957332094055,54.695910232074894,1.7431478666047027,0.8591613488324665,A,636,Correct
2,relearn,53,635,A,36.533925072419045,54.31378687319347,1.8266962536209521,0.8531589691473318,B,578,Incorrect
2,relearn,53,636,A,40.944371824927686,73.11329655645886,2.0472185912463843,1.1484609767075153,A,414,Correct
2,relearn,53,637,B,36.16628554683567,19.830285044769152,1.8083142773417833,0.31149338907619156,B,554,Correct
2,relearn,53,638,B,37.16225551914764,11.777059300003344,1.8581127759573821,0.18499361488890925,B,766,Correct
2,relearn,53,639,B,77.23360304015712,61.67220386172286,3.861680152007856,0.9687447129134031,A,630,Incorrect
2,relearn,53,640,B,49.26370089145291,29.990469443460665,2.4631850445726458,0.47108919240642594,B,577,Correct
2,relearn,53,641,B,69.47341906311156,47.20435730479677,3.4736709531555783,0.741484310630886,A,1981,Incorrect
2,relearn,53,642,A,52.99321843769271,60.094000474792914,2.6496609218846356,0.9439543520821547,A,777,Correct
2,relearn,53,643,A,19.95534195714146,39.35091368231852,0.997767097857073,0.6181227066820897,B,549,Incorrect
2,relearn,53,644,A,62.512906207354334,75.1804651912092,3.1256453103677164,1.18093198569083,A,1156,Correct
2,relearn,53,645,B,60.52447488261249,41.67416141153871,3.0262237441306246,0.6546161966750264,B,575,Correct
2,relearn,53,646,B,60.18238692414903,40.36820991554677,3.0091193462074513,0.634102358546262,B,636,Correct
2,relearn,53,647,A,55.620946007552355,73.2014091590039,2.781047300377618,1.1498450462317364,A,509,Correct
2,relearn,53,648,B,87.25200583879831,69.51170630965656,4.362600291939915,1.0918873294045417,B,689,Correct
2,relearn,53,649,A,32.97869141898027,49.48146201206156,1.6489345709490135,0.7772529877298753,B,1431,Incorrect
2,relearn,53,650,B,70.2545340678669,55.19983359970938,3.5127267033933447,0.8670769585811301,B,685,Correct
2,relearn,53,651,B,38.53477071546891,18.57845944745706,1.9267385357734454,0.2918297585757349,B,684,Correct
2,relearn,53,652,B,41.363348386358865,29.234461866676618,2.0681674193179433,0.45921385316001107,B,731,Correct
2,relearn,53,653,A,53.573779267526525,69.0669861509921,2.6786889633763264,1.0849016814877237,A,740,Correct
2,relearn,53,654,A,59.7265845113629,86.69202051866748,2.986329225568145,1.3617550739315067,A,789,Correct
2,relearn,53,655,A,32.425266001846815,43.002266514477846,1.6212633000923407,0.6754780228479699,B,733,Incorrect
2,relearn,53,656,A,20.787327696121842,50.5241776717634,1.0393663848060921,0.7936319270113869,A,1170,Correct
2,relearn,53,657,A,36.822808786578925,65.12898485036402,1.841140439328946,1.0230437017083227,B,915,Incorrect
2,relearn,53,658,B,65.50859387283704,33.36431046144351,3.275429693641852,0.5240853631888001,B,836,Correct
2,relearn,53,659,B,79.82243295303212,65.90875917396032,3.9911216476516063,1.0352923681406632,A,779,Incorrect
2,relearn,53,660,B,62.3477759388609,36.118157093470714,3.117388796943045,0.5673426849302484,B,575,Correct
2,relearn,53,661,A,20.61796453907244,35.12335480343494,1.0308982269536218,0.551716367099495,B,712,Incorrect
2,relearn,53,662,A,26.364929945858908,48.115007373560786,1.3182464972929455,0.7557887684609865,A,825,Correct
2,relearn,53,663,A,48.81930128740617,68.78636524299378,2.4409650643703085,1.0804936985726679,A,696,Correct
2,relearn,53,664,B,65.42874601691187,38.34634957983607,3.2714373008455935,0.6023430506599953,B,457,Correct
2,relearn,53,665,A,40.35938832940778,59.571661287583375,2.0179694164703887,0.935749467316057,A,747,Correct
2,relearn,53,666,A,36.23801578541257,61.06143575020449,1.8119007892706287,0.959150789852438,B,684,Incorrect
2,relearn,53,667,B,47.51007569709928,27.892583520120546,2.3755037848549643,0.43813567738225223,A,516,Incorrect
2,relearn,53,668,A,39.86548346334665,58.671887055569414,1.9932741731673327,0.9216158467301349,A,636,Correct
2,relearn,53,669,B,46.52511264175141,31.126982647153312,2.3262556320875705,0.48894150006356907,B,746,Correct
2,relearn,53,670,A,25.37115175669856,51.80966692150125,1.268557587834928,0.8138243449276122,A,812,Correct
2,relearn,53,671,A,46.07139559626054,77.10078911691193,2.303569779813027,1.2110963633783318,A,907,Correct
2,relearn,53,672,B,43.48513312217655,33.992257935341705,2.1742566561088275,0.5339491390429942,B,770,Correct
2,relearn,53,673,B,68.04763313978555,57.84706163737178,3.4023816569892773,0.9086595193586156,A,455,Incorrect
2,relearn,53,674,A,57.5444974562847,68.61219909691552,2.877224872814235,1.0777579031475502,B,576,Incorrect
2,relearn,53,675,B,44.565991084347836,22.941424363814576,2.228299554217392,0.36036305122122886,B,682,Correct
2,relearn,53,676,B,50.495087702424634,23.76321895419913,2.5247543851212315,0.3732717704607885,B,551,Correct
2,relearn,53,677,A,52.088215599677014,62.96147689870772,2.604410779983851,0.9889965664207182,A,646,Correct
2,relearn,53,678,B,65.82384107216716,46.104223633186905,3.291192053608358,0.7242034513274045,B,788,Correct
2,relearn,53,679,B,47.76351172867847,37.930488789921625,2.3881755864339236,0.5958107246474388,B,947,Correct
2,relearn,53,680,A,52.96610998870128,67.3480787628217,2.648305499435064,1.057901147373337,B,1398,Incorrect
2,relearn,53,681,A,50.43932244448606,65.40939790284587,2.521966122224303,1.027448419636561,B,1027,Incorrect
2,relearn,53,682,B,58.770051663887166,34.57293416164647,2.9385025831943583,0.5430703798763606,A,463,Incorrect
2,relearn,53,683,B,75.7480696011597,63.36918535764421,3.787403480057985,0.9954008359177249,B,948,Correct
2,relearn,53,684,A,13.386370885481032,34.03594375467368,0.6693185442740516,0.5346353542883912,A,690,Correct
2,relearn,53,685,A,40.12120558925805,63.19477103815928,2.0060602794629023,0.9926611421938512,B,840,Incorrect
2,relearn,53,686,A,20.66310632769022,49.97649177991106,1.0331553163845109,0.7850288971397963,A,709,Correct
2,relearn,53,687,A,33.02183133902002,58.25681340030055,1.651091566951001,0.915095884999678,B,730,Incorrect
2,relearn,53,688,B,60.71256357473446,32.20290193700711,3.035628178736723,0.5058420007478703,B,964,Correct
2,relearn,53,689,A,38.29450259044129,54.33908081478374,1.9147251295220644,0.8535562854527334,A,744,Correct
2,relearn,53,690,B,69.62427345238444,57.54974531806637,3.481213672619222,0.9039892855360045,A,970,Incorrect
2,relearn,53,691,A,24.954847638105218,35.76627890291107,1.2477423819052609,0.561815395238145,B,686,Incorrect
2,relearn,53,692,B,71.46382255417083,61.33778234420179,3.573191127708542,0.9634916320001703,B,734,Correct
2,relearn,53,693,B,71.8052613434072,52.571362558573526,3.59026306717036,0.8257890320161004,B,657,Correct
2,relearn,53,694,A,57.84279931336551,73.01990629894952,2.892139965668276,1.1469940059729744,A,1222,Correct
2,relearn,53,695,A,31.534241190100943,62.792453970970975,1.5767120595050472,0.9863415604803882,A,745,Correct
2,relearn,53,696,B,48.412593770025126,20.531149786707232,2.4206296885012564,0.32250254669835543,B,551,Correct
2,relearn,53,697,B,44.283772294423535,26.28872753520821,2.2141886147211767,0.41294236648416915,B,714,Correct
2,relearn,53,698,A,28.12821658772276,40.33915813837227,1.4064108293861382,0.6336460142975362,B,825,Incorrect
2,relearn,53,699,B,43.5409009938582,30.56360587834763,2.17704504969291,0.48009199847315365,B,636,Correct
2,relearn,53,700,A,16.989540308815407,37.08235796528968,0.8494770154407704,0.5824883168077051,A,1225,Correct
2,relearn,53,701,B,38.28312518476962,14.416058028605509,1.9141562592384809,0.2264469099819561,B,642,Correct
2,relearn,53,702,B,45.53256567286954,33.70191124459286,2.276628283643477,0.5293883838897407,A,695,Incorrect
2,relearn,53,703,B,55.04201070775118,45.728714276389695,2.752100535387559,0.7183049641440628,B,593,Correct
2,relearn,53,704,B,44.59448200903558,34.06093269264488,2.229724100451779,0.5350278796081479,B,561,Correct
2,relearn,53,705,B,71.48802116653603,46.38858136910138,3.5744010583268016,0.7286701321981062,B,539,Correct
2,relearn,53,706,A,54.2304713568965,72.6887796204092,2.711523567844825,1.1417926802694252,A,892,Correct
2,relearn,53,707,A,60.509443434589656,76.78038650269662,3.0254721717294832,1.206063490883283,A,646,Correct
2,relearn,53,708,B,86.54890486049125,68.582211360899,4.327445243024562,1.0772868568917136,A,669,Incorrect
2,relearn,53,709,A,64.85031082371478,85.18477118412898,3.242515541185739,1.3380792567489357,B,521,Incorrect
2,relearn,53,710,B,71.95200862163011,52.84011362728973,3.5976004310815055,0.8300105639317167,B,563,Correct
2,relearn,53,711,A,66.75184033345829,78.44253599013311,3.3375920166729145,1.2321724739777755,A,947,Correct
2,relearn,53,712,A,55.984953463950575,70.42388004259682,2.7992476731975287,1.1062157208955552,B,642,Incorrect
2,relearn,53,713,B,74.14702140980624,44.44554220698348,3.7073510704903123,0.6981489444113721,B,804,Correct
2,relearn,53,714,A,45.724971240976686,61.82394936391913,2.286248562048834,0.9711283256879786,A,708,Correct
2,relearn,53,715,A,56.010970938593545,76.45939992879316,2.8005485469296776,1.2010214455709027,A,597,Correct
2,relearn,53,716,A,28.46036385484139,59.707082219780816,1.4230181927420693,0.9378766543447258,B,640,Incorrect
2,relearn,53,717,A,38.312412956050906,57.00273632038085,1.9156206478025453,0.8953968882931227,A,481,Correct
2,relearn,53,718,B,51.82847425615765,30.324450614381668,2.5914237128078823,0.47633535637143964,B,784,Correct
2,relearn,53,719,B,47.854647692042725,38.23521309010148,2.3927323846021364,0.6005973227615156,B,762,Correct
2,relearn,53,720,A,53.06090790515406,73.12706663293588,2.6530453952577027,1.1486772765630133,B,727,Incorrect
2,relearn,53,721,A,35.417269565768486,51.957341716481466,1.7708634782884243,0.8161440151827634,B,560,Incorrect
2,relearn,53,722,B,41.65280145948886,29.07645622298439,2.0826400729744434,0.4567319063127649,B,647,Correct
2,relearn,53,723,A,49.13121038846916,72.4224689031903,2.4565605194234577,1.1376094813054893,A,487,Correct
2,relearn,53,724,A,13.517893191067152,33.47058226871358,0.6758946595533576,0.5257546768338168,A,1068,Correct
2,relearn,53,725,A,59.760314844917154,85.08302285077394,2.9880157422458575,1.3364809976660195,B,525,Incorrect
2,relearn,53,726,A,19.6244792239274,42.55453301496955,0.9812239611963699,0.6684450414838632,A,1028,Correct
2,relearn,53,727,A,65.78390909109525,81.17064379876325,3.289195454554763,1.2750254912267425,A,450,Correct
2,relearn,53,728,A,56.868080339576686,69.67039635202163,2.843404016978834,1.0943800267610013,A,751,Correct
2,relearn,53,729,B,87.01759433759007,62.838333622748365,4.350879716879503,0.9870622363652539,B,469,Correct
2,relearn,53,730,A,68.22151978135179,83.99200273685013,3.4110759890675895,1.3193432937919107,A,1106,Correct
2,relearn,53,731,B,52.42180130036454,45.25252631866057,2.621090065018227,0.7108250211954141,B,1050,Correct
2,relearn,53,732,B,85.04393038273503,61.915608116131324,4.252196519136751,0.9725680980009137,B,928,Correct
2,relearn,53,733,A,52.707189626902576,61.40916707633866,2.6353594813451284,0.9646129407504687,A,1830,Correct
2,relearn,53,734,A,26.08525003323765,45.418788517792706,1.3042625016618825,0.71343666171223,B,681,Incorrect
2,relearn,53,735,A,44.11670042458241,55.814490142146276,2.2058350212291207,0.8767319609721335,A,1559,Correct
2,relearn,53,736,A,23.2252379414608,40.69380731974657,1.1612618970730402,0.6392168306115719,B,738,Incorrect
2,relearn,53,737,B,67.35008000943756,50.355616679633755,3.367504000471878,0.7909841771386054,B,625,Correct
2,relearn,53,738,A,36.074383395294745,53.12396475682369,1.8037191697647372,0.8344692870480018,A,804,Correct
2,relearn,53,739,A,32.31550771675388,46.599808965852866,1.6157753858376938,0.7319880875290556,A,636,Correct
2,relearn,53,740,B,72.65400965476583,46.455433912858226,3.632700482738292,0.7297202494998078,B,661,Correct
2,relearn,53,741,B,43.83297551303541,14.57854180721894,2.1916487756517706,0.22899919920805345,A,1007,Incorrect
2,relearn,53,742,A,42.21785597651903,57.031109048776784,2.110892798825952,0.8958425660685775,B,695,Incorrect
2,relearn,53,743,A,52.30142651558423,79.6056839859474,2.6150713257792115,1.2504431599712151,A,635,Correct
2,relearn,53,744,A,42.598915852565376,69.79123086349964,2.1299457926282686,1.0962780908287983,B,1654,Incorrect
2,relearn,53,745,B,78.336670621562,53.41726039011352,3.9168335310781,0.8390763640823684,B,650,Correct
2,relearn,53,746,A,49.10839909285957,77.09339748152749,2.4554199546429785,1.210980255841223,A,1510,Correct
2,relearn,53,747,A,26.819892877391638,53.850806623433634,1.3409946438695817,0.8458864923903184,B,578,Incorrect
2,relearn,53,748,B,65.6756762534872,52.15927594030657,3.28378381267436,0.8193159905531499,B,781,Correct
2,relearn,53,749,B,83.74224044765036,63.971855708242884,4.187112022382518,1.0048675596476107,B,552,Correct
2,relearn,53,750,A,59.661142629932066,79.39584164757122,2.9830571314966035,1.2471469642279414,A,760,Correct
2,relearn,53,751,B,74.15885636590792,61.64159138874244,3.707942818295396,0.9682638533122857,A,679,Incorrect
2,relearn,53,752,A,45.95981224273092,58.313329770481985,2.297990612136546,0.915983642066526,B,914,Incorrect
2,relearn,53,753,A,26.47700203353871,53.2144825220842,1.3238501016769357,0.8358911367798109,B,963,Incorrect
2,relearn,53,754,B,62.38514062886208,34.69444895660544,3.1192570314431043,0.5449791298120885,B,698,Correct
2,relearn,53,755,B,79.29307485600255,55.64942032464032,3.9646537428001274,0.8741390503421026,B,755,Correct
2,relearn,53,756,A,32.43702512270393,43.889058678712345,1.6218512561351963,0.6894077215900702,B,1178,Incorrect
2,relearn,53,757,A,61.86243024888303,88.24094949117813,3.093121512444151,1.386085593336366,A,603,Correct
2,relearn,53,758,B,40.6863368081589,23.89601652970448,2.034316840407945,0.37535774989889925,B,1031,Correct
2,relearn,53,759,B,49.47595770469211,28.998564417783328,2.4737978852346054,0.45550838469779237,B,886,Correct
2,relearn,53,760,B,63.378726309271954,52.547413487865114,3.1689363154635974,0.8254128408931112,B,693,Correct
2,relearn,53,761,B,76.0559980446133,57.99878089449663,3.8027999022306656,0.9110427198765734,B,858,Correct
2,relearn,53,762,A,22.892275539471072,40.360527220430924,1.1446137769735536,0.6339816790535833,A,1086,Correct
2,relearn,53,763,A,33.815141309816326,44.727843375260434,1.6907570654908164,0.7025833207931653,A,709,Correct
2,relearn,53,764,A,68.71159933004604,89.62594993051232,3.4355799665023024,1.407841129363521,A,447,Correct
2,relearn,53,765,B,61.32247315350846,28.332649407429464,3.066123657675423,0.4450482161755781,B,1066,Correct
2,relearn,53,766,A,50.08859720005394,68.9651397476731,2.5044298600026966,1.0833018819254163,A,646,Correct
2,relearn,53,767,B,80.4002579854772,51.07002169856403,4.02001289927386,0.8022060249344004,B,1311,Correct
2,relearn,53,768,B,56.716714652412016,32.075939130391845,2.835835732620601,0.503847673645162,B,722,Correct
2,relearn,53,769,A,40.22416230430192,55.67668502536925,2.011208115215096,0.8745673232596645,A,565,Correct
2,relearn,53,770,A,52.5886765579118,74.15633405726781,2.62943382789559,1.1648449714573157,A,678,Correct
2,relearn,53,771,A,10.693343049909426,35.38706062633398,0.5346671524954714,0.5558586484791372,A,711,Correct
2,relearn,53,772,A,59.427294036500285,82.97089177767137,2.971364701825014,1.3033037203526308,A,568,Correct
2,relearn,53,773,A,25.181374148085162,45.516301385816654,1.259068707404258,0.7149683902613027,B,670,Incorrect
2,relearn,53,774,B,56.79484895971664,29.28803990594264,2.8397424479858318,0.4600554550327705,B,511,Correct
2,relearn,53,775,A,48.26099110871179,59.872572998870766,2.4130495554355895,0.9404761774238549,A,603,Correct
2,relearn,53,776,B,65.61283881133001,35.656283789009784,3.2806419405665004,0.5600875960293299,B,683,Correct
2,relearn,53,777,A,29.16160886436365,49.275376930793996,1.4580804432181824,0.774015810843252,A,676,Correct
2,relearn,53,778,B,60.46139020554148,51.18085415374495,3.023069510277074,0.803946977069279,B,847,Correct
2,relearn,53,779,B,65.69814927290818,44.51254427258144,3.2849074636454088,0.6992014103966614,B,563,Correct
2,relearn,53,780,A,32.845153209178214,64.51958366520017,1.6422576604589108,1.0134712502763243,A,1223,Correct
2,relearn,53,781,B,38.44483567444957,22.79818918285177,1.9222417837224786,0.35811311825998704,B,954,Correct
2,relearn,53,782,A,53.092861618310145,63.84609646584016,2.6546430809155073,1.0028921380873435,A,1991,Correct
2,relearn,53,783,B,43.33019941764262,18.841403710898124,2.166509970882131,0.29596007740738506,B,681,Correct
2,relearn,53,784,B,50.7218409609491,21.64070773711903,2.536092048047455,0.3399314422270847,A,532,Incorrect
2,relearn,53,785,B,36.98299104683921,21.34563390593231,1.8491495523419603,0.3352964333254707,B,613,Correct
2,relearn,53,786,A,58.41911791446638,71.31465078010014,2.920955895723319,1.1202079149204212,A,649,Correct
2,relearn,53,787,B,86.32564935004095,68.07872965045027,4.316282467502048,1.069378184677901,B,491,Correct
2,relearn,53,788,A,66.4119150933088,85.3771785814135,3.3205957546654408,1.3411015850779624,A,451,Correct
2,relearn,53,789,B,89.93396615928535,67.24125233789673,4.496698307964267,1.0562231218145692,B,1164,Correct
2,relearn,53,790,A,55.47238041335293,81.0250269599025,2.7736190206676463,1.272738147270723,A,803,Correct
2,relearn,53,791,A,63.28183673711679,83.53715258264101,3.1640918368558397,1.312198524277173,A,677,Correct
2,relearn,53,792,B,74.5934841583354,41.996216593881556,3.72967420791677,0.6596750276495202,B,924,Correct
2,relearn,53,793,B,46.446278666256546,26.998470233877015,2.3223139333128273,0.4240909787245537,A,964,Incorrect
2,relearn,53,794,A,23.48569127126816,34.91634581195695,1.174284563563408,0.5484646774652234,A,845,Correct
2,relearn,53,795,B,37.933538897820284,24.845728308267976,1.8966769448910141,0.3902757876317132,B,1006,Correct
2,relearn,53,796,B,42.24273156113759,23.392454728122566,2.1121365780568793,0.3674478196165083,A,1231,Incorrect
2,relearn,53,797,B,73.64914642020287,51.68914310327702,3.6824573210101437,0.811931161218033,B,698,Correct
2,relearn,53,798,A,36.14745124263804,59.59565399675218,1.8073725621319021,0.9361263439103793,A,671,Correct
2,relearn,53,799,A,14.005067962755614,33.76486645772847,0.7002533981377808,0.530377282065201,A,647,Correct
2,relearn,53,800,B,88.67756342709914,69.54670024167712,4.433878171354957,1.0924370128033216,B,639,Correct
2,relearn,53,801,B,74.13502831585305,43.011467343919335,3.7067514157926524,0.6756225491388713,B,562,Correct
2,relearn,53,802,B,81.32143440497094,68.26423994341366,4.066071720248547,1.0722921735455964,A,817,Incorrect
2,relearn,53,803,A,20.652860533477632,38.649572757917824,1.0326430266738817,0.6071060692032941,A,631,Correct
2,relearn,53,804,B,86.68599428163094,68.90958105384145,4.334299714081547,1.0824291680034934,B,616,Correct
2,relearn,53,805,B,57.26652533748845,30.39853108174561,2.8633262668744224,0.477499009631665,B,573,Correct
2,relearn,53,806,A,49.08605437719441,57.91962820942875,2.4543027188597204,0.9097993924069674,A,631,Correct
2,relearn,53,807,A,26.682988868929982,47.54444891353505,1.334149443446499,0.7468264571286848,A,754,Correct
2,relearn,53,808,A,34.732742038211,52.19181310903498,1.73663710191055,0.8198270832043789,B,733,Incorrect
2,relearn,53,809,B,86.59703217026248,63.36631821528315,4.329851608513124,0.9953557989508333,B,761,Correct
2,relearn,53,810,B,33.430633162562145,20.31898806149783,1.6715316581281072,0.31916991811190143,B,720,Correct
2,relearn,53,811,B,69.97446971641634,54.34096556137429,3.498723485820817,0.853585890982947,B,904,Correct
2,relearn,53,812,A,42.529650925078485,55.4141607083941,2.1264825462539245,0.8704436009316753,A,787,Correct
2,relearn,53,813,A,48.87402739107807,70.29194097601307,2.443701369553904,1.10414322688405,A,946,Correct
2,relearn,53,814,A,17.232480166761988,44.379528469798004,0.8616240083380994,0.6971120030524824,A,831,Correct
2,relearn,53,815,B,40.34249565685664,23.810095918188328,2.0171247828428323,0.37400811208924384,B,690,Correct
2,relearn,53,816,B,68.97152725699075,50.79105127082628,3.4485763628495376,0.797823967702652,B,1388,Correct
2,relearn,53,817,B,69.82664959331952,59.24814650914647,3.491332479665976,0.9306677090597315,B,893,Correct
2,relearn,53,818,A,13.983685556028394,30.528171893390702,0.6991842778014197,0.4795354027390132,A,712,Correct
2,relearn,53,819,A,31.598458177220998,46.127418745796184,1.57992290886105,0.7245677993042672,A,1089,Correct
2,relearn,53,820,A,66.02070083930901,80.6805428259328,3.301035041965451,1.2673270031479358,B,941,Incorrect
2,relearn,53,821,B,51.44919882438935,29.449566179888006,2.5724599412194675,0.4625927038107129,B,733,Correct
2,relearn,53,822,B,65.68846190083039,45.55111725056687,3.2844230950415194,0.7155152765859409,B,762,Correct
2,relearn,53,823,B,74.56530335826746,47.80219265535344,3.7282651679133725,0.7508750863577117,B,678,Correct
2,relearn,53,824,A,22.19844506639101,43.416667585563886,1.1099222533195503,0.6819874196507881,A,916,Correct
2,relearn,53,825,B,64.18088182744549,33.99618337906776,3.2090440913722746,0.5340107997688536,B,514,Correct
2,relearn,53,826,B,59.19869998903441,34.57576998010464,2.9599349994517206,0.5431149248085363,B,515,Correct
2,relearn,53,827,B,45.60155073097781,23.11881694502156,2.2800775365488906,0.36314952737083483,B,582,Correct
2,relearn,53,828,A,25.854058969650985,47.015817027720146,1.2927029484825494,0.7385227268840375,A,1188,Correct
2,relearn,53,829,B,39.271273572548566,17.76208053502113,1.9635636786274284,0.2790061086064632,B,588,Correct
2,relearn,53,830,B,37.65109387306178,27.599152910754395,1.882554693653089,0.4335264801486368,B,453,Correct
2,relearn,53,831,B,40.84574526933828,31.562672787176766,2.042287263466914,0.495785304779265,B,430,Correct
2,relearn,53,832,A,27.31191683481284,59.24645356385301,1.3655958417406422,0.9306411163372472,A,1329,Correct
2,relearn,53,833,A,48.693705468278736,67.15065505422491,2.434685273413937,1.0548000230104766,B,561,Incorrect
2,relearn,53,834,B,42.5038616252198,29.106802439890878,2.12519308126099,0.4572085835732532,B,787,Correct
2,relearn,53,835,B,74.00879130718681,49.27002629360534,3.7004395653593405,0.7739317632308325,B,830,Correct
2,relearn,53,836,A,20.682182570229845,40.05966397498257,1.0341091285114923,0.6292557302454047,A,1000,Correct
2,relearn,53,837,A,40.65000880207412,65.73351011418985,2.032500440103706,1.0325395623470461,A,1555,Correct
2,relearn,53,838,A,38.91552249924639,61.21037463498668,1.9457761249623196,0.9614903163837659,A,650,Correct
2,relearn,53,839,A,26.653657201703034,39.65839374409947,1.3326828600851517,0.6229525921981716,A,502,Correct
2,relearn,53,840,A,33.60067729082219,65.23402983953362,1.6800338645411097,1.0246937445396809,A,665,Correct
2,relearn,53,841,B,47.80061373212841,18.65543544289871,2.3900306866064205,0.2930388946846462,B,1042,Correct
2,relearn,53,842,B,60.22933448770759,32.25361140709418,3.0114667243853797,0.5066385432413352,A,893,Incorrect
2,relearn,53,843,B,31.97698536911308,14.214832132382732,1.5988492684556541,0.22328606099552867,B,571,Correct
2,relearn,53,844,A,67.24725725712852,82.53148651782486,3.3623628628564264,1.2964015586712183,A,862,Correct
2,relearn,53,845,B,51.36764878690448,24.56108286005518,2.5683824393452244,0.3858045873867976,B,632,Correct
2,relearn,53,846,A,32.862840310879506,47.70589620300621,1.6431420155439753,0.7493624652214076,A,678,Correct
2,relearn,53,847,B,71.57049479360222,44.517438017504595,3.578524739680111,0.699278281162157,B,801,Correct
2,relearn,53,848,B,49.471189489487976,38.51920167400617,2.4735594744743987,0.6050582050060072,A,1125,Incorrect
2,relearn,53,849,A,27.476280430572334,45.66366440117389,1.3738140215286168,0.7172831630935883,B,612,Incorrect
2,relearn,53,850,B,84.0472598520743,60.67293969731914,4.202362992603716,0.9530483081239717,B,641,Correct
2,relearn,53,851,B,63.3325305289421,39.02981949167286,3.1666265264471054,0.6130789709298757,B,657,Correct
2,relearn,53,852,A,50.93745482697205,69.4153574629027,2.5468727413486025,1.0903738852588227,B,750,Incorrect
2,relearn,53,853,A,20.651665842793506,45.03922378311881,1.0325832921396754,0.7074744728021637,A,1124,Correct
2,relearn,53,854,B,89.43682533615632,65.36368956493948,4.471841266807815,1.0267304347436885,B,662,Correct
2,relearn,53,855,B,78.65591350593847,55.34236717118016,3.9327956752969238,0.8693158706862426,B,585,Correct
2,relearn,53,856,B,50.0374228232205,28.091827812306864,2.501871141161025,0.4412653994052634,B,1344,Correct
2,relearn,53,857,B,37.06323468104586,22.29035898881999,1.853161734052293,0.3501361402257804,B,573,Correct
2,relearn,53,858,A,21.797743950290602,43.12069457883821,1.0898871975145301,0.6773382865328367,A,1547,Correct
2,relearn,53,859,B,46.76735273364309,33.005830112710406,2.3383676366821544,0.5184543670386188,B,669,Correct
2,relearn,53,860,B,62.91914277866477,39.261080616502944,3.145957138933239,0.6167116121840114,B,739,Correct
2,relearn,53,861,A,27.879357603606472,58.552742918675484,1.3939678801803237,0.9197443350042136,B,668,Incorrect
2,relearn,53,862,B,51.8216868342563,26.92249828945716,2.591084341712815,0.4228976142122119,B,1142,Correct
2,relearn,53,863,A,22.72574372085215,52.710674192694974,1.1362871860426076,0.8279773340476781,A,1036,Correct
2,relearn,53,864,B,77.06024468473882,60.35939654675168,3.8530122342369406,0.9481231838319408,B,1561,Correct
2,relearn,53,865,A,42.65202251030649,71.33545112385437,2.1326011255153245,1.1205346459560732,A,609,Correct
2,relearn,53,866,B,70.82747950654385,59.058309712980304,3.5413739753271924,0.9276857596386482,B,609,Correct
2,relearn,53,867,B,47.866761276812476,25.579246897247202,2.393338063840624,0.4017978706837566,B,574,Correct
2,relearn,53,868,B,54.391797817358466,35.17381529731656,2.719589890867923,0.5525089986838699,A,312,Incorrect
2,relearn,53,869,A,24.811591798897766,35.609040424224766,1.2405795899448884,0.5593454989906325,A,814,Correct
2,relearn,53,870,A,14.241456744078526,32.56601230445519,0.7120728372039263,0.5115457250619562,A,739,Correct
2,relearn,53,871,A,23.03735468244924,39.63352290634787,1.151867734122462,0.6225619219923263,A,742,Correct
2,relearn,53,872,B,48.87568887841654,19.684478717680136,2.443784443920827,0.30920306864604274,B,517,Correct
2,relearn,53,873,B,61.37552888256588,50.80519906176265,3.068776444128294,0.7980462006830028,B,701,Correct
2,relearn,53,874,B,79.4506414738366,64.47732522639865,3.9725320736918297,1.0128074562718692,A,572,Incorrect
2,relearn,53,875,B,79.84575018875687,66.83998067438766,3.9922875094378436,1.0499199612637,B,1128,Correct
2,relearn,53,876,B,68.24464642638848,40.05872952787438,3.4122323213194243,0.6292410519845534,B,725,Correct
2,relearn,53,877,B,42.47204419613347,21.394377682775453,2.1236022098066734,0.3360620987816639,A,755,Incorrect
2,relearn,53,878,A,11.106756872369584,31.443526305069252,0.5553378436184793,0.49391375621481487,A,630,Correct
2,relearn,53,879,A,51.77916785096387,81.34297319797363,2.5889583925481934,1.2777324350995272,B,955,Incorrect
2,relearn,53,880,B,59.03591763662015,43.50691558932023,2.9517958818310075,0.6834050319787984,B,567,Correct
2,relearn,53,881,B,58.10841199310804,37.594354875371316,2.905420599655402,0.5905307454645707,B,2092,Correct
2,relearn,53,882,A,25.509433122931746,48.956737908339576,1.2754716561465873,0.7690106407828029,A,875,Correct
2,relearn,53,883,B,64.02177621155792,39.46670480326376,3.2010888105778963,0.6199415493566521,B,699,Correct
2,relearn,53,884,A,52.58147665685709,69.26040456935793,2.6290738328428547,1.087939890898759,A,712,Correct
2,relearn,53,885,B,80.7959359767202,57.165194311352224,4.039796798836011,0.897948772447886,B,643,Correct
2,relearn,53,886,A,44.71586276598066,70.98130955778922,2.235793138299033,1.1149718032446678,A,549,Correct
2,relearn,53,887,B,61.95532484158928,47.69233201811917,3.097766242079464,0.7491493995034421,B,702,Correct
2,relearn,53,888,B,42.85578209523299,18.629235873023198,2.1427891047616496,0.29262735280340557,A,617,Incorrect
2,relearn,53,889,B,78.88427035728651,49.73036053907675,3.944213517864325,0.7811626766496763,B,516,Correct
2,relearn,53,890,A,64.98418796782033,80.39890825705285,3.2492093983910166,1.262903097684985,A,773,Correct
2,relearn,53,891,B,72.39838770009146,57.53017892173716,3.619919385004573,0.9036819373011792,B,727,Correct
2,relearn,53,892,B,50.823467310757565,40.71007410151054,2.5411733655378783,0.6394723486220081,B,690,Correct
2,relearn,53,893,B,48.584244328786205,19.829028978903946,2.42921221643931,0.3114736588397188,B,783,Correct
2,relearn,53,894,A,49.467386589665026,65.72940256048898,2.4733693294832513,1.0324750410443917,A,915,Correct
2,relearn,53,895,B,44.514896583429675,28.93665896550289,2.2257448291714836,0.4545359761272855,B,402,Correct
2,relearn,53,896,A,35.24661547357443,66.32748862332807,1.7623307736787215,1.0418697549505402,A,584,Correct
2,relearn,53,897,B,83.10176066960172,63.95839360518417,4.155088033480086,1.004656097427255,B,693,Correct
2,relearn,53,898,B,63.20544061169495,31.951248952872845,3.1602720305847476,0.5018890449168195,B,597,Correct
