experiment,condition,subject,trial,cat,x,y,xt,yt,resp,rt,fb
2,new_learn,72,0,A,19.608033426100985,46.1826748817365,0.9804016713050493,0.7254357606579462,B,3626,Incorrect
2,new_learn,72,1,B,35.15014786178163,22.05228869688421,1.7575073930890819,0.3463965408248634,A,1648,Incorrect
2,new_learn,72,2,B,31.50678575208748,14.322969775517471,1.575339287604374,0.22498468312177167,B,2267,Correct
2,new_learn,72,3,B,59.238337434232946,48.03003985646142,2.9619168717116473,0.7544541018234209,A,1667,Incorrect
2,new_learn,72,4,B,56.34309034463147,34.4623567431032,2.8171545172315735,0.5413334338476185,B,1577,Correct
2,new_learn,72,5,B,46.63945382783884,16.665215018563266,2.3319726913919423,0.26177658536406323,B,1093,Correct
2,new_learn,72,6,A,25.58608691004379,41.362018854558926,1.2793043455021895,0.6497130728556242,A,869,Correct
2,new_learn,72,7,A,19.817916298584986,50.22194668505893,0.9908958149292494,0.7888844937737971,A,812,Correct
2,new_learn,72,8,A,40.076021491567964,69.5667259641424,2.0038010745783983,1.0927515761162205,B,483,Incorrect
2,new_learn,72,9,A,37.658462432069555,63.31712852945108,1.8829231216034776,0.994583129172621,A,2450,Correct
2,new_learn,72,10,A,41.20103603869721,58.55630483282045,2.060051801934861,0.9198002854207661,A,1038,Correct
2,new_learn,72,11,A,54.132196739837866,74.71968686435252,2.7066098369918934,1.1736940966578981,B,994,Incorrect
2,new_learn,72,12,A,25.096870930583776,47.46724140725634,1.2548435465291887,0.7456136844560488,A,2079,Correct
2,new_learn,72,13,A,62.87280037713917,84.88284063754642,3.1436400188569587,1.333336542813745,B,2500,Incorrect
2,new_learn,72,14,B,42.518720800690055,34.442144537492624,2.1259360400345026,0.5410159412643233,A,1759,Incorrect
2,new_learn,72,15,B,64.66027257491004,44.21041900608037,3.233013628745502,0.6944556378081432,B,787,Correct
2,new_learn,72,16,B,36.24742371006012,26.11406880184264,1.8123711855030058,0.41019883351603625,B,728,Correct
2,new_learn,72,17,B,78.54375538407103,57.25145615362482,3.9271877692035515,0.8993037702977296,A,728,Incorrect
2,new_learn,72,18,B,73.25706580347274,61.55311591984264,3.6628532901736373,0.9668740838966929,B,1211,Correct
2,new_learn,72,19,A,39.37222693895365,61.419933892144634,1.9686113469476825,0.9647820654976615,A,772,Correct
2,new_learn,72,20,B,68.81342664555528,38.685371435811795,3.4406713322777644,0.6076683935206938,B,4660,Correct
2,new_learn,72,21,B,74.04300327416723,44.62803026160868,3.7021501637083616,0.7010154600702639,B,694,Correct
2,new_learn,72,22,B,56.95588813375613,27.128167533175727,2.847794406687807,0.42612825913789004,A,909,Incorrect
2,new_learn,72,23,B,49.675061110231866,32.33987433562394,2.483753055511593,0.5079935581540664,B,578,Correct
2,new_learn,72,24,A,17.8581864963924,34.234506299034074,0.8929093248196199,0.5377543674415947,A,681,Correct
2,new_learn,72,25,A,21.989420697631566,41.093374060281484,1.0994710348815784,0.6454932102949884,A,736,Correct
2,new_learn,72,26,B,83.67576268832455,64.65223062733872,4.183788134416227,1.0155548638852019,B,561,Correct
2,new_learn,72,27,B,63.97141342866577,47.09184203063795,3.198570671433288,0.7397169248373162,B,587,Correct
2,new_learn,72,28,A,56.17328403594857,75.5921451044436,2.8086642017974284,1.1873986386460682,A,756,Correct
2,new_learn,72,29,B,78.16978342030907,51.72414803045409,3.9084891710154532,0.8124810173283277,B,639,Correct
2,new_learn,72,30,A,32.70709066449732,43.971078883706795,1.635354533224866,0.6906960919573528,A,535,Correct
2,new_learn,72,31,B,64.44804813225318,42.771428798413396,3.222402406612659,0.6718520324831722,B,580,Correct
2,new_learn,72,32,B,45.06954044247068,25.362697487655964,2.253477022123534,0.3983963205122014,B,642,Correct
2,new_learn,72,33,B,37.86232981756537,23.70556682950603,1.8931164908782683,0.3723661730037902,B,683,Correct
2,new_learn,72,34,A,27.094971509522956,48.54270269249022,1.354748575476148,0.7625069908206037,A,625,Correct
2,new_learn,72,35,A,53.56307008986017,74.51961060153381,2.6781535044930087,1.1705513060707535,B,978,Incorrect
2,new_learn,72,36,A,52.41951763943569,78.70383746467785,2.620975881971784,1.2362769879417852,B,855,Incorrect
2,new_learn,72,37,B,71.88302012324195,57.40347895584337,3.5941510061620976,0.9016917388908691,B,737,Correct
2,new_learn,72,38,A,35.07786702908525,47.60622657948063,1.7538933514542623,0.7477968584361374,A,655,Correct
2,new_learn,72,39,A,68.78087113064262,82.59447871596683,3.439043556532131,1.2973910378057998,B,575,Incorrect
2,new_learn,72,40,B,46.680918596578536,31.752851916461694,2.3340459298289264,0.4987726315564032,B,2176,Correct
2,new_learn,72,41,B,64.01944278467987,52.215769870727364,3.2009721392339934,0.8202033951370615,A,956,Incorrect
2,new_learn,72,42,A,31.878438753009867,52.04816925376968,1.5939219376504934,0.8175707308022049,A,928,Correct
2,new_learn,72,43,A,41.74982774235875,71.63431174871269,2.0874913871179372,1.1252291376735841,B,914,Incorrect
2,new_learn,72,44,A,43.90274184219029,52.87596887909075,2.1951370921095146,0.8305737769099701,A,1983,Correct
2,new_learn,72,45,A,65.66200828244179,85.79201544148478,3.283100414122089,1.3476178272381534,B,1659,Incorrect
2,new_learn,72,46,B,70.96899421679602,60.00541296612779,3.548449710839801,0.942562822750044,A,1784,Incorrect
2,new_learn,72,47,A,33.93846143943618,63.9016584696195,1.6969230719718091,1.0037649040018028,A,698,Correct
2,new_learn,72,48,B,74.67330758122704,50.79718690694289,3.733665379061352,0.7979203460493969,B,703,Correct
2,new_learn,72,49,B,33.88919871885413,13.457864422872824,1.6944599359427064,0.21139564001952352,A,2153,Incorrect
2,new_learn,72,50,B,44.72614630954008,34.491040105551264,2.2363073154770037,0.5417839910513538,A,856,Incorrect
2,new_learn,72,51,A,39.42060963712831,53.74616222854429,1.9710304818564155,0.8442427420791998,B,567,Incorrect
2,new_learn,72,52,A,59.930740114793196,76.59616048781717,2.99653700573966,1.2031696754085561,B,1312,Incorrect
2,new_learn,72,53,B,64.49609455553399,41.9025820413135,3.2248047277766996,0.6582042195371705,A,1883,Incorrect
2,new_learn,72,54,A,45.88682610568442,65.51956431487606,2.2943413052842208,1.029178909590093,B,711,Incorrect
2,new_learn,72,55,B,47.886924921074765,25.48511842406068,2.394346246053738,0.4003193040844745,A,919,Incorrect
2,new_learn,72,56,B,36.82595162565511,19.789691705242355,1.8412975812827554,0.31085575038998126,A,1753,Incorrect
2,new_learn,72,57,B,50.46124043406706,27.295659815821985,2.523062021703353,0.4287592217613624,B,1052,Correct
2,new_learn,72,58,A,34.18994731668428,63.138871752974815,1.709497365834214,0.9917830782754689,A,728,Correct
2,new_learn,72,59,B,31.837926693642903,10.770369358406722,1.591896334682145,0.16918056626409583,B,566,Correct
2,new_learn,72,60,B,37.31584857188029,15.041690896052664,1.8657924285940144,0.23627432808303764,B,742,Correct
2,new_learn,72,61,A,64.50337119408763,87.90145842105626,3.225168559704382,1.380752880077095,A,575,Correct
2,new_learn,72,62,A,31.488278412717143,62.99077003928141,1.5744139206358572,0.9894567019968525,B,667,Incorrect
2,new_learn,72,63,B,54.96184798792894,41.876022383740406,2.7480923993964472,0.657787021411603,A,826,Incorrect
2,new_learn,72,64,B,43.89551655637959,22.669466978602486,2.1947758278189795,0.3560911546038698,B,710,Correct
2,new_learn,72,65,A,19.030466900016048,46.82068975486826,0.9515233450008025,0.7354576748495051,A,640,Correct
2,new_learn,72,66,B,83.32656080398615,53.597478623029495,4.166328040199307,0.8419072254652271,B,1514,Correct
2,new_learn,72,67,B,65.32305468501595,32.84390495060054,3.2661527342507974,0.5159108525400404,B,578,Correct
2,new_learn,72,68,B,88.76992235616493,68.97317476737305,4.438496117808246,1.0834280957197204,B,557,Correct
2,new_learn,72,69,B,47.03707355799263,34.02976586840253,2.3518536778996317,0.5345383122777704,B,3452,Correct
2,new_learn,72,70,B,65.74414577657674,49.412511795858606,3.287207288828837,0.776169920266442,B,697,Correct
2,new_learn,72,71,A,60.50440642313805,72.04207396923861,3.0252203211569024,1.1316342516556626,B,573,Incorrect
2,new_learn,72,72,B,59.59849946318008,46.18260738642199,2.9799249731590045,0.7254347004440252,A,718,Incorrect
2,new_learn,72,73,B,67.53975733498092,35.069150974619966,3.3769878667490456,0.550864935347487,B,649,Correct
2,new_learn,72,74,B,68.61033043282849,43.96850399297348,3.4305165216414246,0.6906556456682948,B,560,Correct
2,new_learn,72,75,B,51.17020047892282,20.764776871715576,2.558510023946141,0.32617235236806447,B,942,Correct
2,new_learn,72,76,B,38.94228222059452,19.419772409930744,1.9471141110297259,0.30504507168712086,B,967,Correct
2,new_learn,72,77,B,82.86144875487813,53.92994778251591,4.143072437743906,0.8471296388101659,A,570,Incorrect
2,new_learn,72,78,B,51.93036021371823,29.896391012248998,2.596518010685912,0.46961141186464683,B,883,Correct
2,new_learn,72,79,B,42.80195865577049,32.12915238293997,2.1400979327885246,0.5046835454615561,B,1103,Correct
2,new_learn,72,80,B,70.71691625647102,40.44217126456721,3.535845812823551,0.6352641406999228,B,865,Correct
2,new_learn,72,81,B,51.90399624187115,28.453948036252896,2.5951998120935578,0.4469535705815891,B,933,Correct
2,new_learn,72,82,B,52.89090885539952,32.98664035933282,2.644545442769976,0.5181529350974428,B,1641,Correct
2,new_learn,72,83,A,57.17572813394378,84.74505187722085,2.858786406697189,1.3311721620278145,A,1159,Correct
2,new_learn,72,84,A,23.614424922454216,41.942363268302344,1.1807212461227108,0.6588291015894652,A,734,Correct
2,new_learn,72,85,A,61.97014161024511,74.99194450797803,3.098507080512255,1.177970709723386,B,669,Incorrect
2,new_learn,72,86,B,63.3094254116532,37.71411645369267,3.1654712705826604,0.5924119559377541,B,786,Correct
2,new_learn,72,87,A,60.733995211107825,74.26831839293969,3.036699760555391,1.1666040172886352,A,614,Correct
2,new_learn,72,88,B,39.474473411392935,19.14656735588439,1.9737236705696466,0.3007535767335427,A,1311,Incorrect
2,new_learn,72,89,A,52.58524051413846,76.72692842676257,2.6292620257069235,1.2052237733901359,A,1525,Correct
2,new_learn,72,90,B,40.63843858073139,26.522095767635463,2.0319219290365695,0.4166081061070426,B,603,Correct
2,new_learn,72,91,A,19.20198000462741,44.00188604489684,0.9600990002313705,0.6911800097137157,A,773,Correct
2,new_learn,72,92,B,34.7606129245192,18.98405894685684,1.73803064622596,0.29820090061380516,B,1000,Correct
2,new_learn,72,93,A,32.41273732696322,55.65043671890137,1.620636866348161,0.874155015825821,B,533,Incorrect
2,new_learn,72,94,A,46.63904311069792,68.26358533214638,2.331952155534896,1.0722818909358551,B,706,Incorrect
2,new_learn,72,95,B,67.3832010025829,56.00274315075531,3.3691600501291448,0.8796890323164449,B,825,Correct
2,new_learn,72,96,B,82.9354937362304,53.41704072261386,4.14677468681152,0.8390729135533527,B,761,Correct
2,new_learn,72,97,A,55.105641502953105,70.80115928141981,2.7552820751476554,1.1121420093207466,A,548,Correct
2,new_learn,72,98,A,47.34720423931382,79.10216475658638,2.367360211965691,1.2425338984117058,A,1234,Correct
2,new_learn,72,99,A,27.542712315036834,39.567674613387894,1.3771356157518417,0.6215275794252538,A,789,Correct
2,new_learn,72,100,A,44.80931504847857,62.287226953422646,2.2404657524239284,0.9784054730467637,B,979,Incorrect
2,new_learn,72,101,A,41.80780735342571,62.49715682824994,2.0903903676712856,0.9817030438093959,A,1200,Correct
2,new_learn,72,102,A,24.509630124505854,38.00155089588372,1.2254815062252928,0.5969269655976345,A,617,Correct
2,new_learn,72,103,A,28.115920443665537,50.01265067125277,1.405796022183277,0.7855968796768017,A,503,Correct
2,new_learn,72,104,B,58.51767984758261,50.06445484496942,2.9258839923791307,0.7864106177346694,B,728,Correct
2,new_learn,72,105,A,19.953724803524103,37.48645547703366,0.9976862401762051,0.5888358656788489,A,595,Correct
2,new_learn,72,106,B,72.77072996634399,57.796116921855464,3.6385364983171997,0.9078592816385893,B,500,Correct
2,new_learn,72,107,A,41.826379096546226,49.727700425908864,2.0913189548273112,0.7811208916897466,B,1026,Incorrect
2,new_learn,72,108,B,52.283380500099526,37.39860397574755,2.614169025004976,0.5874558975236127,B,678,Correct
2,new_learn,72,109,B,55.26542366514566,23.743251451585564,2.7632711832572827,0.372958121663182,B,867,Correct
2,new_learn,72,110,B,41.864955810071166,25.21904396005418,2.0932477905035585,0.39613981617732125,B,819,Correct
2,new_learn,72,111,B,75.29789980334397,58.557661077096,3.7648949901671984,0.919821589256029,B,1947,Correct
2,new_learn,72,112,A,21.84958984223768,52.91696176564996,1.0924794921118839,0.8312176916662896,A,592,Correct
2,new_learn,72,113,A,29.246502071847328,47.951553861578006,1.4623251035923663,0.7532212466987436,A,591,Correct
2,new_learn,72,114,A,35.64686327217211,50.91810625939711,1.7823431636086056,0.7998197427961322,A,564,Correct
2,new_learn,72,115,A,50.304040060884866,64.78386481828069,2.515202003044243,1.0176225689213245,B,707,Incorrect
2,new_learn,72,116,B,80.18881347227621,64.00352965784897,4.009440673613811,1.0053650928845739,B,500,Correct
2,new_learn,72,117,B,69.04350296253396,43.66748558869359,3.4521751481266985,0.6859272596308896,B,607,Correct
2,new_learn,72,118,A,57.00868729767175,84.2350493291712,2.8504343648835873,1.3231610607364903,A,816,Correct
2,new_learn,72,119,B,52.08497536101725,25.667870095902423,2.604248768050862,0.40318996063292095,B,665,Correct
2,new_learn,72,120,A,66.93098151477896,87.838317458349,3.3465490757389484,1.3797610641541864,A,642,Correct
2,new_learn,72,121,A,56.33783477478349,82.63337787027237,2.8168917387391743,1.2980020642927852,A,811,Correct
2,new_learn,72,122,A,37.30376177176108,61.5345021690809,1.865188088588054,0.9665816997834488,B,1200,Incorrect
2,new_learn,72,123,A,63.07323178019013,85.38622453599626,3.153661589009506,1.341243678600272,A,789,Correct
2,new_learn,72,124,A,45.929612931841355,70.96324782833786,2.2964806465920677,1.1146880902618903,A,750,Correct
2,new_learn,72,125,A,19.947204585917216,36.674717024114656,0.9973602292958609,0.5760851078772156,A,690,Correct
2,new_learn,72,126,A,41.54977843683423,56.1303679699004,2.0774889218417116,0.8816937582876546,B,806,Incorrect
2,new_learn,72,127,B,59.80219082057562,34.083021074856454,2.990109541028781,0.5353748431045756,B,773,Correct
2,new_learn,72,128,B,62.5616340141649,53.28655794198511,3.128081700708245,0.8370232948281363,B,458,Correct
2,new_learn,72,129,B,76.52998965890077,48.03575831505062,3.8264994829450387,0.7545439271608892,B,606,Correct
2,new_learn,72,130,B,49.12027966418769,21.96873208292823,2.4560139832093846,0.34508403660204856,A,1244,Incorrect
2,new_learn,72,131,B,50.34711615358941,18.98428012109142,2.5173558076794706,0.2982043748105578,B,729,Correct
2,new_learn,72,132,A,45.490039517017706,58.58776137064441,2.2745019758508853,0.9202944035614418,B,1051,Incorrect
2,new_learn,72,133,A,38.83697788092237,59.41611264486686,1.9418488940461185,0.9333061149498867,B,1805,Incorrect
2,new_learn,72,134,B,58.84177655953093,46.47792554139775,2.942088827976546,0.7300735471747428,B,788,Correct
2,new_learn,72,135,B,74.21352753523774,42.650608990505134,3.7106763767618873,0.6699541993785085,B,936,Correct
2,new_learn,72,136,B,87.4774928839262,67.35219241281175,4.3738746441963094,1.0579657644362779,B,607,Correct
2,new_learn,72,137,B,69.9518315346624,56.47840634015829,3.4975915767331203,0.8871607322235023,B,694,Correct
2,new_learn,72,138,A,27.156121563624687,43.86103003228161,1.3578060781812342,0.6889674486414861,A,700,Correct
2,new_learn,72,139,A,29.402862010675307,48.25625577630604,1.4701431005337653,0.7580074931829653,A,414,Correct
2,new_learn,72,140,B,80.92806631663103,65.56730422325984,4.046403315831552,1.0299288063174006,B,555,Correct
2,new_learn,72,141,A,61.78839373257625,78.16910808161663,3.089419686628813,1.2278774784343667,A,729,Correct
2,new_learn,72,142,B,65.20561491368059,47.78771680852952,3.26028074568403,0.7506477002875289,B,697,Correct
2,new_learn,72,143,B,74.55195375938663,42.582332174444474,3.7275976879693316,0.6688817096597751,B,589,Correct
2,new_learn,72,144,A,33.870710693337784,44.32930510944555,1.6935355346668894,0.696323096352873,A,692,Correct
2,new_learn,72,145,A,29.486579372470075,58.71309694773394,1.474328968623504,0.9222631702025313,A,857,Correct
2,new_learn,72,146,A,19.54179744268158,49.487744051898375,0.977089872134079,0.7773516657808796,A,600,Correct
2,new_learn,72,147,B,64.51942437388341,40.23521188237757,3.2259712186941703,0.6320132303265306,B,762,Correct
2,new_learn,72,148,A,27.072265913086333,51.741313143692864,1.3536132956543168,0.8127506462965725,A,571,Correct
2,new_learn,72,149,B,50.5197338878051,24.675536307947112,2.525986694390255,0.3876024179421743,B,712,Correct
2,new_learn,72,150,B,44.357003876265935,23.728857648553152,2.217850193813297,0.3727320243338629,B,779,Correct
2,new_learn,72,151,A,58.69433274404783,80.76443094698874,2.934716637202391,1.2686447146720998,A,779,Correct
2,new_learn,72,152,A,39.60470825702615,58.09609408777566,1.9802354128513073,0.9125713119420872,B,628,Incorrect
2,new_learn,72,153,B,85.39811102452643,56.34245846353782,4.269905551226321,0.8850252679711924,B,3325,Correct
2,new_learn,72,154,A,35.35955609928733,66.91861274112395,1.7679778049643664,1.0511551108796766,A,510,Correct
2,new_learn,72,155,B,79.57140174824637,58.56447597958363,3.9785700874123187,0.9199286374939791,B,584,Correct
2,new_learn,72,156,A,39.19911903873611,64.62769426137477,1.9599559519368055,1.0151694475499111,A,1743,Correct
2,new_learn,72,157,B,76.64339061540286,50.41976153060762,3.832169530770143,0.7919917621015309,B,593,Correct
2,new_learn,72,158,B,63.767037272599715,47.010916357713185,3.1883518636299857,0.7384457473395798,B,682,Correct
2,new_learn,72,159,A,62.34379403749905,77.08989215293926,3.1171897018749526,1.210925194268517,A,1064,Correct
2,new_learn,72,160,A,60.83578111039917,80.50279865143315,3.0417890555199585,1.2645350041838037,A,850,Correct
2,new_learn,72,161,A,39.31354093381689,48.57199371069748,1.9656770466908444,0.7629670930586842,B,612,Incorrect
2,new_learn,72,162,A,56.96328851865215,73.11728466832183,2.848164425932607,1.1485236218221675,A,2002,Correct
2,new_learn,72,163,B,54.130647261258,42.65543891204787,2.7065323630629,0.670030067608689,B,482,Correct
2,new_learn,72,164,B,32.176375201907355,18.6484178951009,1.6088187600953676,0.2929286633016071,A,596,Incorrect
2,new_learn,72,165,A,41.74544855386612,67.34765216526775,2.0872724276933057,1.0578944463946294,A,1041,Correct
2,new_learn,72,166,B,49.62628216546135,20.96617413220136,2.4813141082730676,0.3293358931380407,B,435,Correct
2,new_learn,72,167,B,75.1475203406899,56.236070658582314,3.7573760170344945,0.8833541322387937,B,622,Correct
2,new_learn,72,168,A,65.37146469212554,81.80789497029599,3.268573234606277,1.2850354092216363,A,869,Correct
2,new_learn,72,169,B,38.00657151765812,24.679492579529914,1.900328575882906,0.3876645629108749,B,470,Correct
2,new_learn,72,170,A,58.76809441223324,77.61487906478789,2.938404720611662,1.219171669395989,A,765,Correct
2,new_learn,72,171,A,26.379549692314367,58.3373456334705,1.3189774846157183,0.9163608823601977,A,622,Correct
2,new_learn,72,172,B,59.33884770117471,46.994772961386204,2.9669423850587355,0.7381921674630558,B,1277,Correct
2,new_learn,72,173,B,83.96712645369149,68.71699987193082,4.198356322684575,1.0794041098719431,B,701,Correct
2,new_learn,72,174,B,35.23336266717305,21.587246339043638,1.7616681333586524,0.3390916725498633,B,1067,Correct
2,new_learn,72,175,A,51.516323854317406,60.32457213945348,2.5758161927158705,0.9475761633212727,B,650,Incorrect
2,new_learn,72,176,B,65.69328843997377,55.75493994196434,3.2846644219986887,0.8757965486150765,B,617,Correct
2,new_learn,72,177,B,35.60675078322758,20.01185392861066,1.7803375391613792,0.3143454664341765,A,1320,Incorrect
2,new_learn,72,178,B,57.93627793476429,47.95982341315381,2.8968138967382147,0.7533511445111389,B,935,Correct
2,new_learn,72,179,B,74.72488282360257,48.278241260992864,3.7362441411801286,0.7583528403688541,B,747,Correct
2,new_learn,72,180,B,89.75585179073632,65.83019290211182,4.487792589536816,1.0340582520283672,A,1837,Incorrect
2,new_learn,72,181,B,56.75007884062926,48.68811203558421,2.837503942031463,0.7647910754407407,B,631,Correct
2,new_learn,72,182,A,62.47375474125059,74.91664433449085,3.123687737062529,1.1767878973641794,A,610,Correct
2,new_learn,72,183,B,34.21661907548507,13.043357882817002,1.7108309537742536,0.20488458651400204,A,673,Incorrect
2,new_learn,72,184,A,48.37928314568279,73.04914303002737,2.4189641572841394,1.14745325547082,A,1527,Correct
2,new_learn,72,185,B,82.07963433900339,58.9349590561836,4.10398171695017,0.9257481720526083,B,601,Correct
2,new_learn,72,186,A,29.222508742982512,50.65783508671279,1.4611254371491256,0.7957314127759009,A,1041,Correct
2,new_learn,72,187,B,72.10986845200915,50.697757197803945,3.605493422600458,0.7963585078304997,B,579,Correct
2,new_learn,72,188,B,55.180922966812716,41.21241834090447,2.759046148340636,0.6473631534822737,B,495,Correct
2,new_learn,72,189,A,52.972938573983946,79.7695807791624,2.6486469286991974,1.2530176447787709,A,1292,Correct
2,new_learn,72,190,A,47.39127195743913,59.227811266264375,2.3695635978719567,0.9303482838114947,B,619,Incorrect
2,new_learn,72,191,A,39.31341666831684,72.45178184669075,1.9656708334158421,1.1380699279452702,A,736,Correct
2,new_learn,72,192,A,28.194820358011043,58.69402243250304,1.409741017900552,0.9219635484179304,A,526,Correct
2,new_learn,72,193,B,48.60385141402474,36.790608128152485,2.430192570701237,0.577905521082524,B,691,Correct
2,new_learn,72,194,B,55.32159059862448,28.0405044766676,2.766079529931224,0.44045921433425317,B,684,Correct
2,new_learn,72,195,A,37.62665944336993,66.77852300181416,1.8813329721684966,1.048954586400382,B,1186,Incorrect
2,new_learn,72,196,A,65.90976247486907,86.34970899712508,3.2954881237434535,1.356378057124923,A,805,Correct
2,new_learn,72,197,B,65.3795255041212,51.14897514308648,3.26897627520606,0.8034462227408371,B,727,Correct
2,new_learn,72,198,B,78.23925988979464,55.92477442590278,3.9119629944897323,0.8784643024504126,B,823,Correct
2,new_learn,72,199,B,76.10799783937648,51.86187877640702,3.805399891968824,0.8146444868266234,B,760,Correct
2,new_learn,72,200,A,54.168093898357,81.43158401657627,2.70840469491785,1.27912433058328,A,862,Correct
2,new_learn,72,201,A,53.623285682287,79.94036304610233,2.6811642841143497,1.2557002863546805,A,768,Correct
2,new_learn,72,202,B,48.7776146902097,22.63653040564964,2.438880734510485,0.35557378812575446,B,750,Correct
2,new_learn,72,203,B,56.351818345508775,24.4185696335895,2.8175909172754388,0.3835659948602779,B,673,Correct
2,new_learn,72,204,A,42.82714313259098,60.46062020581734,2.141357156629549,0.949713201350392,B,576,Incorrect
2,new_learn,72,205,A,22.210381564140683,47.99360996340383,1.110519078207034,0.7538818624014167,A,932,Correct
2,new_learn,72,206,A,37.984216560073385,65.17195925302096,1.8992108280036692,1.02371874204672,A,397,Correct
2,new_learn,72,207,A,50.439895060085846,77.99202690197644,2.5219947530042925,1.2250958937691334,A,1390,Correct
2,new_learn,72,208,B,63.69778579919795,42.161193453240415,3.1848892899598975,0.6622664780963909,B,471,Correct
2,new_learn,72,209,A,19.251037235339144,48.227104919993025,0.9625518617669572,0.7575495926027713,A,585,Correct
2,new_learn,72,210,B,41.403367515863515,25.949081996728843,2.070168375793176,0.4076072268416125,B,1052,Correct
2,new_learn,72,211,B,45.34349674430066,20.45127446992669,2.267174837215033,0.3212478681563509,A,892,Incorrect
2,new_learn,72,212,B,40.60641273192664,20.829386807786907,2.0303206365963318,0.32718724287061746,B,2206,Correct
2,new_learn,72,213,B,31.445326717196046,13.805095857368421,1.5722663358598024,0.2168499386380576,B,4153,Correct
2,new_learn,72,214,B,86.92815867825169,66.55059198331408,4.346407933912585,1.0453742543341564,A,1099,Incorrect
2,new_learn,72,215,B,52.1531218809284,29.189032564727842,2.6076560940464204,0.4585002513537111,B,819,Correct
2,new_learn,72,216,A,22.081831777192555,40.256885552684594,1.1040915888596277,0.632353679543595,A,1167,Correct
2,new_learn,72,217,A,47.19045984255811,64.88353035763448,2.3595229921279057,1.019188111552574,A,861,Correct
2,new_learn,72,218,A,21.740508890019193,38.45220830797145,1.0870254445009595,0.6040058756731377,A,598,Correct
2,new_learn,72,219,B,79.48169676301023,63.4447338225898,3.9740848381505116,0.9965875484300399,B,570,Correct
2,new_learn,72,220,B,88.01736263714014,67.16816835795723,4.400868131857007,1.055075121342204,B,1367,Correct
2,new_learn,72,221,B,34.036258812774626,20.66945463304213,1.7018129406387315,0.32467503414436333,A,520,Incorrect
2,new_learn,72,222,A,15.42527115197261,41.27026739859743,0.7712635575986304,0.6482718443556001,A,601,Correct
2,new_learn,72,223,B,50.78926334007301,28.846463327715355,2.5394631670036505,0.45311918636198967,B,681,Correct
2,new_learn,72,224,A,29.474472214159398,59.13604087009167,1.4737236107079699,0.9289067577993287,A,558,Correct
2,new_learn,72,225,A,39.108144285626985,58.112170820837314,1.9554072142813492,0.9128238446744882,B,553,Incorrect
2,new_learn,72,226,B,65.01871065753534,35.579593299181795,3.250935532876767,0.5588829446321109,B,883,Correct
2,new_learn,72,227,B,47.262086840041206,18.72196842840069,2.3631043420020603,0.29408399237701827,A,1781,Incorrect
2,new_learn,72,228,B,56.969249088646336,35.76026291953595,2.8484624544323167,0.5617208963922681,A,503,Incorrect
2,new_learn,72,229,B,50.661072802089436,40.5243191607303,2.533053640104472,0.636554516835392,B,567,Correct
2,new_learn,72,230,A,55.422457958848476,71.71767497033083,2.7711228979424236,1.1265386040966596,A,2125,Correct
2,new_learn,72,231,A,64.83229542014772,85.62172053726115,3.2416147710073857,1.3449428411378896,A,873,Correct
2,new_learn,72,232,B,36.2063587178679,20.17536944439875,1.810317935893395,0.31691396214991546,B,1256,Correct
2,new_learn,72,233,A,31.735049251307277,53.53596336558457,1.5867524625653637,0.840940946060864,A,836,Correct
2,new_learn,72,234,A,61.89246142195934,86.83873475406826,3.094623071097967,1.3640596557520674,A,1007,Correct
2,new_learn,72,235,B,73.05310254701969,40.74304589591218,3.6526551273509846,0.6399902683573473,B,612,Correct
2,new_learn,72,236,A,12.134330414714395,33.15797015613761,0.6067165207357198,0.5208441772523575,A,632,Correct
2,new_learn,72,237,A,44.21045053801315,65.78248034229348,2.2105225269006574,1.033308784891321,A,762,Correct
2,new_learn,72,238,B,42.6872413771747,16.794917545329252,2.134362068858735,0.2638139478902635,B,664,Correct
2,new_learn,72,239,B,57.99900938661987,44.900523902614836,2.899950469330993,0.7052957801739385,B,986,Correct
2,new_learn,72,240,B,56.9047897543274,49.4165309850447,2.8452394877163703,0.7762330535425442,A,693,Incorrect
2,new_learn,72,241,A,50.88505132470504,68.22743095851305,2.544252566235252,1.0717139793628472,B,916,Incorrect
2,new_learn,72,242,A,40.164984573232104,59.73167382125392,2.0082492286616054,0.9382629383173654,B,700,Incorrect
2,new_learn,72,243,A,29.421561060238595,48.93557412940254,1.4710780530119296,0.7686782009206488,A,993,Correct
2,new_learn,72,244,A,51.66000428562985,75.1241303732817,2.5830002142814923,1.1800470804401182,A,2966,Correct
2,new_learn,72,245,A,35.34110352378525,45.21841827706309,1.7670551761892626,0.7102892533308592,A,1750,Correct
2,new_learn,72,246,B,73.55692368423888,43.601977904989006,3.677846184211944,0.6848982673414897,B,841,Correct
2,new_learn,72,247,B,60.29522420636134,41.603766508531294,3.014761210318067,0.653510436124335,A,1037,Incorrect
2,new_learn,72,248,B,83.7876137819307,56.43597217300099,4.189380689096535,0.8864941778844895,B,2089,Correct
2,new_learn,72,249,B,70.93434367832634,47.25409861182064,3.546717183916317,0.7422656452545168,B,801,Correct
2,new_learn,72,250,B,76.7094552371145,48.465725713256546,3.835472761855725,0.7612978392583236,B,644,Correct
2,new_learn,72,251,A,17.577428016537237,37.79273444565591,0.8788714008268619,0.5936468844677126,A,559,Correct
2,new_learn,72,252,A,12.603030476219498,39.904981432433104,0.630151523810975,0.6268259825488447,A,516,Correct
2,new_learn,72,253,A,26.838016014646417,57.77310517131859,1.3419008007323208,0.9074978139064249,A,727,Correct
2,new_learn,72,254,B,55.937036947393715,36.59162549034401,2.7968518473696857,0.5747799091168687,B,606,Correct
2,new_learn,72,255,B,72.5285254518015,43.651160798377504,3.626426272590075,0.6856708304242476,B,658,Correct
2,new_learn,72,256,A,18.437587324709106,48.54008934739207,0.9218793662354554,0.7624659404917955,A,554,Correct
2,new_learn,72,257,A,43.043200612102794,62.05750388858149,2.1521600306051396,0.9747969915824382,B,690,Incorrect
2,new_learn,72,258,B,45.566643106983406,26.3853015330944,2.27833215534917,0.4144593472956044,B,765,Correct
2,new_learn,72,259,B,78.96224498513101,48.74957127560623,3.9481122492565506,0.7657564749254825,B,634,Correct
2,new_learn,72,260,A,61.752079941763355,86.41980187825652,3.0876039970881677,1.3574790735270805,A,1109,Correct
2,new_learn,72,261,B,47.52066622890224,34.224377785909105,2.3760333114451124,0.5375952691294688,B,595,Correct
2,new_learn,72,262,B,40.281875675001665,25.939310510264512,2.014093783750083,0.4074537366911575,A,576,Incorrect
2,new_learn,72,263,B,80.20869241319357,59.05857883855084,4.010434620659679,0.9276899870532246,B,617,Correct
2,new_learn,72,264,B,83.97250271821663,57.89795830109418,4.198625135910832,0.9094590022828282,B,1545,Correct
2,new_learn,72,265,B,45.70478303430414,24.785923719238227,2.2852391517152073,0.389336379343979,B,818,Correct
2,new_learn,72,266,A,52.54216168825567,61.22507897167873,2.6271080844127837,0.961721291564404,B,763,Incorrect
2,new_learn,72,267,B,57.5845941272463,44.183204354435304,2.879229706362315,0.6940281510597526,B,528,Correct
2,new_learn,72,268,B,46.62310665044787,30.826681585332487,2.331155332522394,0.4842243820151615,B,856,Correct
2,new_learn,72,269,A,24.04219648203299,45.59016088554013,1.2021098241016495,0.7161285725699481,A,975,Correct
2,new_learn,72,270,A,26.985298880343763,44.10749587547354,1.349264944017188,0.6928389250531488,A,509,Correct
2,new_learn,72,271,A,67.89617072008585,89.89603313847752,3.3948085360042923,1.412083586473528,A,972,Correct
2,new_learn,72,272,A,61.140264825564884,79.829425513123,3.057013241278244,1.253957683661604,B,652,Incorrect
2,new_learn,72,273,B,70.92917009579777,54.20794914002648,3.5464585047898884,0.8514964739223817,B,552,Correct
2,new_learn,72,274,A,22.402815239705397,38.77002124936442,1.12014076198527,0.6089980696826172,A,506,Correct
2,new_learn,72,275,B,34.64951113262345,18.80162559472084,1.7324755566311725,0.29533524421960405,A,757,Incorrect
2,new_learn,72,276,A,39.447547947019736,70.30678112232687,1.9723773973509866,1.1043763353572382,A,4926,Correct
2,new_learn,72,277,A,48.24309707276975,68.56655573073884,2.4121548536384876,1.0770409388282214,B,589,Incorrect
2,new_learn,72,278,B,66.62708729310692,44.51162231660998,3.331354364655346,0.699186928346127,B,579,Correct
2,new_learn,72,279,A,23.067883502255473,36.524905958885014,1.1533941751127736,0.5737318811674561,A,530,Correct
2,new_learn,72,280,B,67.16271968876715,44.78396111348816,3.3581359844383574,0.7034648161639269,B,500,Correct
2,new_learn,72,281,A,21.35738355112543,49.08037591228782,1.0678691775562714,0.7709527420073444,A,569,Correct
2,new_learn,72,282,B,42.77751296576673,21.42813919259866,2.1388756482883364,0.3365924233378374,B,566,Correct
2,new_learn,72,283,A,42.867700811731744,59.567958290615195,2.1433850405865873,0.9356913007756996,B,1519,Incorrect
2,new_learn,72,284,A,56.11844113708529,72.68106925471687,2.8059220568542647,1.1416715661283476,B,1247,Incorrect
2,new_learn,72,285,A,47.93058362763788,76.02660999476701,2.396529181381894,1.194223197184482,A,1337,Correct
2,new_learn,72,286,A,23.476903256335735,54.66387376651622,1.1738451628167867,0.8586581212082358,A,573,Correct
2,new_learn,72,287,A,36.18971566422205,49.22038491847823,1.8094857832111024,0.7731519983337651,B,661,Incorrect
2,new_learn,72,288,A,55.51288725248056,82.36794812314733,2.775644362624028,1.2938327035747244,B,1373,Incorrect
2,new_learn,72,289,A,40.98907602088909,56.3554590656327,2.0494538010444545,0.8852294809513599,B,781,Incorrect
2,new_learn,72,290,A,50.53492305254177,66.58165567823478,2.526746152627089,1.0458622017129375,A,1332,Correct
2,new_learn,72,291,A,47.27907695968036,56.80575221439723,2.363953847984018,0.8923026691919623,B,1628,Incorrect
2,new_learn,72,292,A,36.715223962952294,45.03077132907642,1.8357611981476145,0.7073417019645418,A,3298,Correct
2,new_learn,72,293,A,42.992747411792976,55.053912480737615,2.149637370589649,0.8647848350043036,A,742,Correct
2,new_learn,72,294,B,44.380139577811,21.248823270381124,2.21900697889055,0.3337757354182859,B,873,Correct
2,new_learn,72,295,B,58.229032145121046,38.29311272050723,2.9114516072560526,0.6015068080291569,B,1375,Correct
2,new_learn,72,296,A,41.797590992959876,57.79975696314599,2.0898795496479936,0.9079164592734746,A,942,Correct
2,new_learn,72,297,B,52.06501826874988,27.81249950616936,2.603250913437494,0.436877720632757,B,553,Correct
2,new_learn,72,298,A,22.611248025907848,47.37966935032138,1.1305624012953925,0.7442381058024157,A,512,Correct
2,new_learn,72,299,B,78.63093016348917,63.24020769434742,3.931546508174458,0.9933748595202728,B,1248,Correct
2,new_learn,72,300,B,52.99847712835146,44.782459068634495,2.649923856417573,0.7034412220985387,B,604,Incorrect
2,new_learn,72,301,B,60.5853222035903,39.14664793652503,3.029266110179515,0.6149141078502652,B,1370,Correct
2,new_learn,72,302,B,71.99562357707859,50.18674396161579,3.5997811788539296,0.7883315306870202,B,785,Correct
2,new_learn,72,303,B,59.229788868326004,29.301280018110297,2.9614894434163,0.4602634302283635,B,635,Correct
2,new_learn,72,304,B,67.61434306785915,52.93584595245984,3.380717153392958,0.831514323779044,B,787,Correct
2,new_learn,72,305,A,33.09406674672439,59.16844209629607,1.6547033373362194,0.9294157150703839,A,633,Correct
2,new_learn,72,306,B,60.82765512206618,40.7367476606329,3.0413827561033093,0.6398913359089275,B,1085,Correct
2,new_learn,72,307,B,61.54463640870449,29.71000810385296,3.0772318204352245,0.46668371598578845,B,636,Correct
2,new_learn,72,308,A,44.630778665871716,75.13547202624575,2.231538933293586,1.1802252347082751,A,1131,Correct
2,new_learn,72,309,A,56.51680066431213,72.98479971285053,2.8258400332156066,1.1464425530080682,A,910,Incorrect
2,new_learn,72,310,A,15.44637107630437,42.26428729989395,0.7723185538152185,0.6638858724527762,A,571,Correct
2,new_learn,72,311,A,64.21807378509322,77.94543448804171,3.2109036892546614,1.2243640218424816,A,1237,Incorrect
2,new_learn,72,312,B,69.09959493413322,49.08504503931625,3.454979746706661,0.7710260844832001,B,924,Correct
2,new_learn,72,313,B,76.52393032820466,49.812383119067405,3.8261965164102327,0.7824510843233118,B,910,Correct
2,new_learn,72,314,A,39.26442537548526,54.70212186345256,1.963221268774263,0.8592589209099809,B,885,Incorrect
2,new_learn,72,315,B,55.0677512680996,28.14711409850598,2.7533875634049796,0.44213383435810044,B,3330,Correct
2,new_learn,72,316,A,20.692781254037254,37.13446252198726,1.0346390627018627,0.5833067732704034,A,1541,Incorrect
2,new_learn,72,317,A,68.87406909166023,88.67693228355428,3.4437034545830114,1.3929339950244684,A,1768,Correct
2,new_learn,72,318,A,46.51744728785875,61.901960876228074,2.3258723643929375,0.9723537276578046,A,1150,Correct
2,new_learn,72,319,A,29.389682024839562,38.26126316271696,1.4694841012419781,0.6010065163452869,A,622,Correct
2,new_learn,72,320,A,59.011311898997675,69.95735662771821,2.950565594949884,1.0988875882310036,B,836,Incorrect
2,new_learn,72,321,A,63.024529737165466,79.38812489394111,3.1512264868582736,1.2470257497453718,A,597,Correct
2,new_learn,72,322,A,26.93653555540674,50.32851608902147,1.3468267777703369,0.7905584820567279,A,522,Correct
2,new_learn,72,323,B,58.82879675060074,33.464417947647036,2.941439837530037,0.5256578479049318,B,595,Correct
2,new_learn,72,324,A,42.089346307207435,54.55353723189084,2.104467315360372,0.8569249589752276,B,730,Correct
2,new_learn,72,325,A,22.139137061053134,34.198211074223906,1.1069568530526568,0.5371842433834746,A,557,Incorrect
2,new_learn,72,326,A,15.005755733674892,37.08659629298607,0.7502877866837445,0.5825548923034775,A,932,Correct
2,new_learn,72,327,B,42.93610697788683,28.705216417543774,2.1468053488943415,0.4509004850853032,B,910,Incorrect
2,new_learn,72,328,B,72.151702950604,54.34229207059542,3.6075851475302,0.8536067277410673,B,621,Correct
2,new_learn,72,329,A,25.596044622280115,52.99109291155851,1.2798022311140058,0.8323821409832318,A,541,Correct
2,new_learn,72,330,B,74.58582967282636,58.93563588083313,3.7292914836413185,0.9257588035893418,B,664,Incorrect
2,new_learn,72,331,B,85.39076854646046,64.05142623976435,4.269538427323023,1.006117450633961,B,767,Incorrect
2,new_learn,72,332,B,60.689535087673015,41.26423523683975,3.034476754383651,0.6481770913802842,B,783,Correct
2,new_learn,72,333,A,61.95564227769924,84.44555951933233,3.097782113884962,1.3264677470710704,A,1556,Correct
2,new_learn,72,334,A,45.39613935804172,76.73087485444736,2.269806967902086,1.205285763731248,A,1583,Correct
2,new_learn,72,335,A,58.10935594710203,73.76653300627937,2.9054677973551013,1.1587219908665813,B,808,Incorrect
2,new_learn,72,336,B,56.49648787694677,48.208921627942146,2.8248243938473387,0.7572639701191457,B,647,Correct
2,new_learn,72,337,B,46.78662337859876,38.90922948875667,2.339331168929938,0.6111847475935864,B,619,Correct
2,new_learn,72,338,A,55.911876931836844,77.90963976779912,2.795593846591842,1.2238017596917243,B,869,Incorrect
2,new_learn,72,339,A,17.209487646500175,45.03837568398262,0.8604743823250088,0.707461150892085,A,654,Incorrect
2,new_learn,72,340,B,30.472252910220952,15.336258127045802,1.5236126455110477,0.24090137932741926,B,860,Correct
2,new_learn,72,341,A,10.468144329029123,31.33067912950031,0.5234072164514562,0.4921411569260862,A,1040,Correct
2,new_learn,72,342,A,28.11289099309868,42.87062008956477,1.4056445496549341,0.6734101256410784,B,1199,Incorrect
2,new_learn,72,343,A,12.069073619737924,38.72797786597826,0.6034536809868962,0.608337653760727,A,697,Correct
2,new_learn,72,344,B,45.22333373529634,26.575110614583252,2.2611666867648172,0.4174408613755544,B,556,Incorrect
2,new_learn,72,345,B,72.62138370322225,52.84518338731017,3.6310691851611123,0.8300901995358951,B,680,Incorrect
2,new_learn,72,346,B,70.25510834993867,54.49164872861278,3.5127554174969333,0.8559528166390277,B,717,Correct
2,new_learn,72,347,A,31.442835096550684,50.02329403008868,1.5721417548275343,0.7857640651664438,A,1264,Correct
2,new_learn,72,348,B,31.50895585984917,16.887030755035514,1.5754477929924584,0.26526085880482236,A,677,Correct
2,new_learn,72,349,B,61.24101008160314,47.92303822168824,3.0620505040801573,0.7527733240747931,B,2069,Correct
2,new_learn,72,350,B,85.34799080883933,61.04207126346509,4.267399540441966,0.9588466132060327,B,1544,Correct
2,new_learn,72,351,B,51.381595187698245,20.741117420760208,2.569079759384912,0.3258007105815177,B,1088,Incorrect
2,new_learn,72,352,B,49.81179646699107,32.41827282771292,2.4905898233495534,0.5092250387880626,A,1251,Incorrect
2,new_learn,72,353,B,50.4666817163278,22.823415855307843,2.5233340858163897,0.35850937790429965,B,756,Incorrect
2,new_learn,72,354,A,36.48368522015571,45.829115336574496,1.8241842610077854,0.7198820603095087,A,648,Incorrect
2,new_learn,72,355,A,52.92214925364938,60.33207592630052,2.646107462682469,0.9476940325294366,B,491,Incorrect
2,new_learn,72,356,B,55.563818937268245,42.149923643939196,2.778190946863412,0.6620894523458505,B,1029,Incorrect
2,new_learn,72,357,B,62.267794157773835,30.584178004560933,3.113389707888692,0.48041514467605584,A,793,Incorrect
2,new_learn,72,358,B,68.92511239413565,45.50981708415932,3.446255619706783,0.714866535089051,B,541,Correct
2,new_learn,72,359,A,10.796200133399598,31.168807428546327,0.5398100066699798,0.48959848219338054,A,584,Correct
2,new_learn,72,360,B,68.29290369794614,39.78570707660341,3.4146451848973074,0.6249524253486635,B,1106,Incorrect
2,new_learn,72,361,A,50.20168442748394,74.15949694276166,2.510084221374197,1.164894653946474,A,613,Incorrect
2,new_learn,72,362,A,24.825635957328384,42.39799779858808,1.2412817978664192,0.6659861920548027,A,1955,Incorrect
2,new_learn,72,363,A,50.14519348970977,70.84764135473165,2.5072596744854883,1.1128721480209467,B,1057,Correct
2,new_learn,72,364,A,51.37369424588623,67.53526961095704,2.5686847122943113,1.0608415343399433,B,747,Incorrect
2,new_learn,72,365,B,54.49219679219164,45.053332894656,2.7246098396095824,0.7076960982079334,B,1037,Correct
2,new_learn,72,366,B,40.946129884659506,28.263338418500876,2.0473064942329753,0.4439594817074226,B,1166,Incorrect
2,new_learn,72,367,A,30.903945141453498,57.25765354707671,1.545197257072675,0.8994011187264287,A,1009,Correct
2,new_learn,72,368,B,48.30597909888006,37.30192601702232,2.415298954944003,0.5859372836991366,B,922,Correct
2,new_learn,72,369,A,15.727692796171358,33.969968187321314,0.7863846398085679,0.5335990124998381,A,754,Incorrect
2,new_learn,72,370,A,22.138113642166847,37.05879790046093,1.1069056821083423,0.5821182361747846,A,1036,Correct
2,new_learn,72,371,B,71.83495930388085,62.39350112139515,3.5917479651940427,0.9800748237736074,B,1101,Correct
2,new_learn,72,372,A,28.09646790812492,47.925122836734175,1.404823395406246,0.7528060691313625,A,1117,Correct
2,new_learn,72,373,B,34.593060186485054,20.6666325539683,1.7296530093242526,0.3246307050299324,B,641,Correct
2,new_learn,72,374,B,32.47605891066569,12.746521297865876,1.6238029455332847,0.20022188834100632,A,930,Incorrect
2,new_learn,72,375,B,45.04833690194964,23.281282335122395,2.252416845097482,0.36570152775085174,B,942,Correct
2,new_learn,72,376,A,64.5498714630677,79.66011990628333,3.227493573153385,1.2512982374083088,A,2358,Correct
2,new_learn,72,377,A,56.121053219822784,69.93964807497309,2.8060526609911394,1.0986094229349548,B,952,Incorrect
2,new_learn,72,378,A,38.72380143834627,48.04973939594154,1.9361900719173135,0.7547635414659701,A,550,Correct
2,new_learn,72,379,A,52.6464140832895,63.908608119887866,2.632320704164475,1.0038740688529435,B,629,Incorrect
2,new_learn,72,380,A,35.40317958613145,43.14025823359893,1.7701589793065724,0.6776455917032049,A,669,Correct
2,new_learn,72,381,B,49.204596965178425,34.59462010902314,2.4602298482589213,0.5434110219411842,A,634,Correct
2,new_learn,72,382,A,30.23323121739057,46.571396163626545,1.5116615608695287,0.7315417802753452,A,789,Correct
2,new_learn,72,383,B,40.47021956426422,16.434828903709715,2.0235109782132112,0.2581576887344982,B,1010,Correct
2,new_learn,72,384,B,71.19608963944746,53.95807155783252,3.559804481972373,0.847571406039795,A,1439,Correct
2,new_learn,72,385,B,43.71989411900705,30.767707912980796,2.1859947059503524,0.4832980257360851,B,1120,Incorrect
2,new_learn,72,386,A,27.64931175199348,53.45892161998329,1.382465587599674,0.8397307771508604,A,546,Correct
2,new_learn,72,387,B,71.69500480506346,38.70161141272029,3.5847502402531735,0.6079234904814448,B,804,Incorrect
2,new_learn,72,388,A,69.35398793474069,86.09463556196584,3.4676993967370344,1.3523713729748121,A,888,Incorrect
2,new_learn,72,389,B,30.213026772739397,13.854212505365979,1.5106513386369698,0.21762146114064798,B,1057,Incorrect
2,new_learn,72,390,A,35.84175984269004,52.26358168223941,1.7920879921345019,0.820954421316067,A,1833,Incorrect
2,new_learn,72,391,A,40.45550768803994,71.53856679750511,2.022775384401997,1.1237251794969239,A,1348,Correct
2,new_learn,72,392,A,51.92254767250152,67.80232722892246,2.5961273836250762,1.06503646559337,B,569,Incorrect
2,new_learn,72,393,B,48.26642120297082,25.73008908069903,2.413321060148541,0.40416729416067515,B,1046,Incorrect
2,new_learn,72,394,A,45.00792720806754,54.38889405332156,2.250396360403377,0.8543387499739429,A,712,Correct
2,new_learn,72,395,A,47.79465902414447,60.46485908591451,2.3897329512072236,0.9497797855232555,A,615,Correct
2,new_learn,72,396,B,67.20686822754716,34.538694538135616,3.360343411377358,0.5425325451279438,B,719,Incorrect
2,new_learn,72,397,A,43.728215213594986,72.73760924568073,2.1864107606797494,1.142559694229578,A,708,Correct
2,new_learn,72,398,B,59.65465232140549,43.63702000753643,2.9827326160702743,0.6854487074011362,B,1410,Incorrect
2,new_learn,72,399,A,52.82467925223577,78.71090734674729,2.6412339626117887,1.2363880413896409,A,531,Correct
2,new_learn,72,400,A,29.391580374490843,41.225026899245094,1.469579018724542,0.64756120825355,A,838,Correct
2,new_learn,72,401,A,18.363134345580285,45.639881054692005,0.9181567172790142,0.7169095751606619,A,579,Incorrect
2,new_learn,72,402,B,82.57866150840267,67.11441557098593,4.128933075420133,1.054230774538909,B,761,Correct
2,new_learn,72,403,B,56.709472745427576,35.39812339138325,2.8354736372713787,0.5560324219861731,A,1551,Incorrect
2,new_learn,72,404,B,62.669968481361835,50.158989021451234,3.1334984240680916,0.7878955571064115,B,1225,Correct
2,new_learn,72,405,B,52.86804028207468,28.64523561485757,2.643402014103734,0.44995830883992616,B,807,Correct
2,new_learn,72,406,B,40.5559568956908,26.353275500418054,2.0277978447845397,0.41395628355070613,A,906,Correct
2,new_learn,72,407,A,51.04154570914615,65.94639558228334,2.5520772854573073,1.0358835594601388,B,1091,Incorrect
2,new_learn,72,408,A,52.87187543066682,75.32473856110163,2.643593771533341,1.1831982264856433,A,1003,Incorrect
2,new_learn,72,409,B,59.645837405786644,44.752968982225774,2.982291870289332,0.702977992904462,B,1367,Incorrect
2,new_learn,72,410,B,64.65143930719998,36.33350914186467,3.232571965359999,0.5707254269960982,A,675,Incorrect
2,new_learn,72,411,B,56.988257935564526,26.39599234924492,2.8494128967782264,0.4146272782430011,B,1121,Correct
2,new_learn,72,412,B,44.61159681915857,32.237649599560584,2.2305798409579283,0.5063878157549073,A,9066,Correct
2,new_learn,72,413,B,53.65204139315255,36.02587461294096,2.6826020696576274,0.5658931151158116,B,615,Incorrect
2,new_learn,72,414,B,79.93461920245198,49.38556112995143,3.996730960122599,0.7757465801963253,B,1137,Incorrect
2,new_learn,72,415,B,70.82781633881865,60.12090227280125,3.5413908169409325,0.9443769245371115,A,2190,Correct
2,new_learn,72,416,A,48.83078332409047,72.34916953217814,2.4415391662045236,1.1364580974780665,B,1159,Incorrect
2,new_learn,72,417,B,51.93324267957489,23.453640847834603,2.596662133978745,0.3684089289374534,B,619,Incorrect
2,new_learn,72,418,A,16.784052988457137,44.2406758127095,0.8392026494228568,0.6949309106152791,A,540,Incorrect
2,new_learn,72,419,B,37.78566974234003,12.974389118800968,1.8892834871170014,0.20380122770220235,B,466,Correct
2,new_learn,72,420,A,49.93683655924194,59.255355909421674,2.496841827962097,0.9307809540544383,A,993,Incorrect
2,new_learn,72,421,B,65.57908587568222,43.24629718974959,3.278954293784111,0.6793112477313911,B,517,Correct
2,new_learn,72,422,A,34.095646507575744,53.515743035794124,1.704782325378787,0.8406233258632497,A,873,Incorrect
2,new_learn,72,423,A,18.468173060289974,45.02665146370639,0.9234086530144987,0.7072769872706406,A,740,Correct
2,new_learn,72,424,A,23.216030998849973,42.52578313018866,1.1608015499424986,0.6679934393497672,A,1133,Incorrect
2,new_learn,72,425,A,46.2441200484779,59.88334362064644,2.312206002423895,0.9406453619550803,B,475,Incorrect
2,new_learn,72,426,B,63.52653701363933,45.74989474234902,3.176326850681966,0.7186376661253498,B,649,Incorrect
2,new_learn,72,427,B,50.834939881953176,34.42462838089229,2.5417469940976587,0.5407407981198495,A,768,Correct
2,new_learn,72,428,B,45.64726264444329,27.2122315082387,2.2823631322221645,0.427448732970337,A,528,Incorrect
2,new_learn,72,429,A,24.157559152026508,44.589670696828236,1.2078779576013254,0.7004129094357183,B,3827,Incorrect
2,new_learn,72,430,A,60.9592179974004,87.03248216947314,3.04796089987002,1.3671030330365073,A,927,Correct
2,new_learn,72,431,B,72.51837479176154,50.24647322529527,3.625918739588077,0.7892697557669193,A,1391,Incorrect
2,new_learn,72,432,A,58.61262052559417,83.1498572230655,2.930631026279708,1.3061149029951138,A,609,Correct
2,new_learn,72,433,A,15.132678747790877,38.138883383217085,0.7566339373895439,0.5990841792641631,B,1439,Incorrect
2,new_learn,72,434,B,35.678814267039,24.277438458108474,1.78394071335195,0.3813491115398594,A,749,Incorrect
2,new_learn,72,435,A,37.089968467892206,61.993290660226386,1.8544984233946105,0.9737883325501198,B,1056,Correct
2,new_learn,72,436,A,43.25294541515329,64.82146933665149,2.162647270757665,1.0182132593146018,107,1197,Incorrect
2,new_learn,72,437,A,57.56744824667796,70.56536446074068,2.8783724123338983,1.108438152938746,A,1191,Correct
2,new_learn,72,438,A,25.795707834501965,45.781526592702406,1.289785391725098,0.7191345380687982,A,2562,Correct
2,new_learn,72,439,A,38.63980264385261,58.60688484502914,1.9319901321926307,0.9205947943946325,B,1292,Incorrect
2,new_learn,72,440,B,63.70276740651747,47.62996443353586,3.1851383703258733,0.7481697317756969,B,997,Incorrect
2,new_learn,72,441,A,53.47204257971809,82.55999192215268,2.673602128985905,1.2968493205153375,A,675,Correct
2,new_learn,72,442,A,61.44048936067382,73.129165805299,3.0720244680336912,1.148710250285386,A,683,Correct
2,new_learn,72,443,A,39.180046017698075,51.17777661077991,1.9590023008849038,0.8038986351374287,B,676,Incorrect
2,new_learn,72,444,A,36.656624086478644,46.66079796325957,1.832831204323932,0.7329461004600691,A,468,Incorrect
2,new_learn,72,445,A,54.72809416709188,72.16630547772097,2.736404708354594,1.133585675627625,B,775,Incorrect
2,new_learn,72,446,B,62.79156571325869,39.457244960953574,3.139578285662935,0.6197929545011232,A,609,Correct
2,new_learn,72,447,A,26.835871026747327,40.791196972026285,1.3417935513373664,0.64074662369226,A,1653,Correct
2,new_learn,72,448,B,60.33200993163634,31.838574227571815,3.0166004965818174,0.5001191544705647,B,840,Correct
2,new_learn,72,449,B,83.3074511885159,68.5034649279768,4.165372559425794,1.0760499108158896,A,989,Incorrect
2,new_learn,72,450,B,74.72387865428227,57.791749131932846,3.7361939327141136,0.9077906725549229,A,606,Correct
2,new_learn,72,451,A,37.52881522585869,54.854384031011804,1.8764407612929346,0.8616506494450997,B,908,Correct
2,new_learn,72,452,A,59.51485165883944,76.6195215816829,2.975742582941972,1.203536630612898,A,1008,Incorrect
2,new_learn,72,453,B,84.23601229152143,67.55956116883247,4.211800614576072,1.0612231052387717,B,752,Incorrect
2,new_learn,72,454,B,39.77295010298622,30.23455502494108,1.988647505149311,0.4749232797545563,A,688,Correct
2,new_learn,72,455,A,35.03600421590702,61.613907905328055,1.751800210795351,0.9678290021716834,B,737,Correct
2,new_learn,72,456,B,78.24942660405412,64.89766736635829,3.912471330202706,1.0194101751663263,A,1636,Correct
2,new_learn,72,457,A,13.154148091547722,40.78185448007682,0.6577074045773861,0.6405998721718866,A,871,Correct
2,new_learn,72,458,B,70.8068860390563,49.72577383203755,3.5403443019528145,0.7810906288239838,B,808,Correct
2,new_learn,72,459,A,14.874520247150397,33.60585823137991,0.7437260123575199,0.527879586686416,A,647,Correct
2,new_learn,72,460,B,70.67161933138894,50.31391687458414,3.533580966569447,0.7903291581326053,B,944,Incorrect
2,new_learn,72,461,B,34.683153571524,16.182566069585754,1.7341576785762,0.25419515340221027,A,645,Incorrect
2,new_learn,72,462,A,41.451014892929614,54.55569524533617,2.0725507446464806,0.8569588569711586,B,617,Incorrect
2,new_learn,72,463,A,39.16772214720572,63.207010721985824,1.9583861073602862,0.9928534026978098,A,526,Correct
2,new_learn,72,464,B,31.700070386008164,17.76843165851939,1.5850035193004084,0.2791058718210841,A,630,Incorrect
2,new_learn,72,465,A,35.227097245070354,50.03319310815674,1.7613548622535178,0.7859195595211232,B,728,Correct
2,new_learn,72,466,B,75.82484477562335,63.469455547707554,3.7912422387811673,0.9969758763801101,A,667,Correct
2,new_learn,72,467,A,39.09132905480368,56.401222758630446,1.954566452740184,0.8859483353599742,A,1081,Correct
2,new_learn,72,468,B,69.32537143127864,60.726432279971945,3.466268571563932,0.9538885676473897,B,600,Incorrect
2,new_learn,72,469,A,36.946282761332235,69.7665682073317,1.8473141380666118,1.0958906907316226,A,573,Incorrect
2,new_learn,72,470,A,33.781533255243524,61.39238061863418,1.689076662762176,0.9643492596894477,B,1185,Correct
2,new_learn,72,471,A,39.38327157524698,70.42917339721339,1.969163578762349,1.1062988687154365,A,784,Correct
2,new_learn,72,472,B,34.472463983105115,11.767262295050482,1.7236231991552557,0.18483972389497383,B,2287,Correct
2,new_learn,72,473,B,61.817275728535236,50.77751089708714,3.090863786426762,0.797611276009323,A,683,Incorrect
2,new_learn,72,474,A,38.662338695515786,56.80100563521005,1.9331169347757893,0.8922281101004419,B,965,Incorrect
2,new_learn,72,475,A,45.337947610683706,71.41394467540702,2.266897380534185,1.1217676197806332,A,1296,Incorrect
2,new_learn,72,476,A,26.119460794096298,51.86567430513717,1.305973039704815,0.814704106852499,A,691,Correct
2,new_learn,72,477,A,44.22996331751598,58.53692056870065,2.211498165875799,0.919495798111996,B,920,Correct
2,new_learn,72,478,B,81.72792573748677,68.44139886913044,4.086396286874338,1.0750749794433447,A,726,Correct
2,new_learn,72,479,A,61.43626084633415,75.90963562732163,3.0718130423167076,1.1923857681173584,B,1040,Incorrect
2,new_learn,72,480,A,57.55039282726819,75.5378301418041,2.87751964136341,1.1865454612080268,A,689,Incorrect
2,new_learn,72,481,A,51.277125111725745,69.40297635268983,2.563856255586287,1.0901794032343826,B,761,Correct
2,new_learn,72,482,A,21.611174313714503,39.344572828621295,1.080558715685725,0.6180231047851262,A,776,Correct
2,new_learn,72,483,B,81.39555764628244,52.37827699573981,4.069777882314122,0.8227560510875371,B,1420,Correct
2,new_learn,72,484,A,39.85586853256809,67.96570332290706,1.9927934266284044,1.067602771276541,A,773,Correct
2,new_learn,72,485,A,22.68740417195474,48.38017133606229,1.134370208597737,0.7599539542439439,A,533,Incorrect
2,new_learn,72,486,B,86.48391904544033,62.91083826614668,4.324195952272016,0.9882011366405103,B,945,Incorrect
2,new_learn,72,487,A,51.05824650972197,59.58311178950121,2.5529123254860986,0.935929331379582,A,1430,Correct
2,new_learn,72,488,B,39.553791351187584,16.956129673633203,1.9776895675593793,0.26634626208000983,B,771,Correct
2,new_learn,72,489,A,17.452554383841342,32.491214178720654,0.8726277191920672,0.5103707988504066,A,681,Incorrect
2,new_learn,72,490,B,43.870332379561,29.068395629641945,2.19351661897805,0.45660529080862394,107,864,Correct
2,new_learn,72,491,A,35.188816727502896,61.154452951461394,1.759440836375145,0.9606119006330687,A,662,Incorrect
2,new_learn,72,492,B,42.973690106007794,16.754585046193124,2.1486845053003893,0.2631804064753286,B,563,Incorrect
2,new_learn,72,493,A,33.928651647615226,51.07816387834612,1.6964325823807613,0.8023339219953384,A,563,Incorrect
2,new_learn,72,494,A,42.74579722101745,65.44175497298858,2.1372898610508724,1.027956683305821,B,545,Incorrect
2,new_learn,72,495,B,85.1338848705811,57.58783484832787,4.256694243529055,0.9045875944782455,A,807,Correct
2,new_learn,72,496,B,60.87221720812149,39.86637547082478,3.0436108604060745,0.6262195615219772,A,597,Correct
2,new_learn,72,497,B,79.79222576112907,62.0739204514384,3.989611288056454,0.9750548623487804,B,1004,Incorrect
2,new_learn,72,498,B,62.69343945003089,52.65165056990828,3.134671972501544,0.8270501931490034,A,311,Incorrect
2,new_learn,72,499,A,27.709620903641067,41.104246454947884,1.3854810451820532,0.6456639934710429,A,674,Incorrect
2,new_learn,72,500,B,51.851555779559654,31.260936596851938,2.592577788977983,0.4910456437850318,B,835,Correct
2,new_learn,72,501,A,54.01209256319313,76.89182616545645,2.7006046281596565,1.207813981012507,A,1236,Correct
2,new_learn,72,502,A,54.24478968576727,81.34129909004709,2.7122394842883635,1.2777061382737105,B,1216,Incorrect
2,new_learn,72,503,B,62.64449498181761,38.85761488184939,3.1322247490908803,0.6103739872441973,A,384,Incorrect
2,new_learn,72,504,A,18.760399759942036,40.51855019085431,0.9380199879971017,0.6364638980684861,A,623,Incorrect
2,new_learn,72,505,A,41.975123647287404,68.62563387599954,2.09875618236437,1.077968936163915,B,1264,Incorrect
2,new_learn,72,506,B,41.76203888899373,32.789661880570314,2.0881019444496864,0.5150588043884649,A,947,Incorrect
2,new_learn,72,507,B,66.89823295533795,47.25844483957337,3.3449116477668976,0.7423339156404108,B,724,Incorrect
2,new_learn,72,508,A,37.43242510484919,63.19466382183116,1.8716212552424594,0.9926594580437074,A,615,Incorrect
2,new_learn,72,509,B,69.59675666379083,47.93122606869958,3.479837833189541,0.752901938474891,B,807,Correct
2,new_learn,72,510,B,77.82095841925519,49.94170887872506,3.8910479209627598,0.784482528605614,B,676,Incorrect
2,new_learn,72,511,A,39.08675052419601,47.849980585142134,1.9543375262098008,0.7516257374034836,A,2587,Incorrect
2,new_learn,72,512,A,49.462992677024,80.12525050317163,2.4731496338512,1.2586044917390293,A,622,Incorrect
2,new_learn,72,513,B,42.341768494089294,18.89485250790172,2.117088424704465,0.2967996491474337,B,614,Incorrect
2,new_learn,72,514,B,62.875242776617185,49.60964253607152,3.1437621388308594,0.7792664426926902,A,518,Correct
2,new_learn,72,515,A,60.94529620554893,80.01271311814013,3.0472648102774462,1.2568367586286833,A,466,Correct
2,new_learn,72,516,B,51.87492881587995,27.550851447600586,2.593746440793997,0.4327677625396286,A,406,Incorrect
2,new_learn,72,517,A,38.933369394450125,53.87827351518395,1.9466684697225063,0.846317941317017,B,575,Correct
2,new_learn,72,518,A,54.94164368037743,80.17619139235003,2.7470821840188715,1.2594046693550804,A,414,Correct
2,new_learn,72,519,B,37.05712386900474,23.493714062568678,1.852856193450237,0.3690383975225248,B,348,Correct
2,new_learn,72,520,B,50.23897037055818,27.356810888269074,2.511948518527909,0.4297197805611569,B,599,Incorrect
2,new_learn,72,521,B,59.391861883271325,35.51692069427027,2.9695930941635664,0.5578984856562539,A,848,Incorrect
2,new_learn,72,522,A,29.74627906520963,57.55053180478862,1.4873139532604815,0.9040016396405481,B,1930,Correct
2,new_learn,72,523,B,55.93155802833786,46.865747961147875,2.796577901416893,0.7361654474986651,A,858,Correct
2,new_learn,72,524,B,59.21421157528066,30.67685719381342,2.960710578764033,0.4818709459765372,B,680,Correct
2,new_learn,72,525,A,57.71401839891614,70.89617816227383,2.885700919945807,1.113634562410963,A,719,Incorrect
2,new_learn,72,526,A,65.15710877040274,78.79826147094701,3.257855438520137,1.2377601967638738,B,484,Correct
2,new_learn,72,527,B,59.09955879167031,50.06090104141627,2.954977939583516,0.7863547947189949,A,542,Incorrect
2,new_learn,72,528,B,75.40139523742067,58.55329550633023,3.7700697618710337,0.9197530150307964,B,753,Correct
2,new_learn,72,529,A,22.55139481407223,54.47851419125161,1.1275697407036114,0.8557464998086168,A,899,Correct
2,new_learn,72,530,A,55.140918818256566,65.60357523987945,2.7570459409128283,1.0304985501141528,107,886,Correct
2,new_learn,72,531,A,30.499894693186498,41.68711090163423,1.524994734659325,0.6548196067897852,A,1066,Correct
2,new_learn,72,532,A,21.304410579450046,42.839835664286966,1.0652205289725023,0.6729265650195898,A,854,Incorrect
2,new_learn,72,533,B,66.92048409733081,46.56855161871075,3.3460242048665405,0.7314970982682938,B,468,Correct
2,new_learn,72,534,A,15.542113503265014,36.94121752427755,0.7771056751632507,0.5802712879446643,A,587,Correct
2,new_learn,72,535,B,64.81695256833058,50.762615471824944,3.240847628416529,0.7973772992164442,B,673,Correct
2,new_learn,72,536,B,60.262456846494054,33.1370819553853,3.013122842324703,0.5205160661622068,A,399,Correct
2,new_learn,72,537,B,77.98523247512392,54.13876725962134,3.8992616237561957,0.85040976748617,A,934,Incorrect
2,new_learn,72,538,B,62.30393779627299,54.76838254948729,3.1151968898136495,0.8602997413323235,B,301,Incorrect
2,new_learn,72,539,A,40.93124159001836,59.19197166640339,2.046562079500918,0.9297853166933404,A,765,Correct
2,new_learn,72,540,A,61.944985828024365,74.0169500455953,3.0972492914012184,1.1626555325218244,B,360,Correct
2,new_learn,72,541,A,36.029967537345435,65.81005811950364,1.8014983768672719,1.0337419756027497,A,763,Correct
2,new_learn,72,542,B,63.90614123963633,49.07462233639076,3.1953070619818162,0.7708623650484939,A,676,Correct
2,new_learn,72,543,B,65.50282084894482,57.33980008522626,3.275141042447241,0.900691473530271,B,362,Correct
2,new_learn,72,544,A,54.21578488831956,78.30556870985976,2.710789244415978,1.2300209969703308,B,578,Incorrect
2,new_learn,72,545,A,28.493334215033343,40.64948677559043,1.424666710751667,0.6385206451319517,A,255,Incorrect
2,new_learn,72,546,B,64.5721310034932,56.807721090222245,3.22860655017466,0.8923335962211009,B,432,Correct
2,new_learn,72,547,B,35.97823195037495,12.417238114629122,1.7989115975187473,0.19504952019397012,B,515,Correct
2,new_learn,72,548,A,58.72113559205927,72.13559018918038,2.9360567796029637,1.133103201003465,A,360,Incorrect
2,new_learn,72,549,A,23.188485001894644,42.62792727536299,1.1594242500947323,0.6695979158302017,B,331,Correct
2,new_learn,72,550,B,73.10165212439611,53.05991188527832,3.655082606219805,0.8334631468945606,B,404,Correct
2,new_learn,72,551,A,55.9714916901202,78.26183568981236,2.79857458450601,1.2293340402978299,A,529,Correct
2,new_learn,72,552,B,54.791541603530845,33.20373534823831,2.7395770801765424,0.5215630552088261,B,357,Correct
2,new_learn,72,553,B,71.99286735003184,45.18667060465525,3.5996433675015918,0.709790562058834,B,540,Incorrect
2,new_learn,72,554,A,59.697632427961516,82.5325220986669,2.984881621398076,1.296417825537046,A,340,Correct
2,new_learn,72,555,A,47.720916255540025,79.37113051680066,2.3860458127770015,1.246758802693488,A,452,Incorrect
2,new_learn,72,556,B,62.01850230098862,30.34731805467453,3.100925115049431,0.476694557283592,B,362,Incorrect
2,new_learn,72,557,B,63.85012840512021,41.0757693522872,3.1925064202560107,0.6452166761884712,A,386,Incorrect
2,new_learn,72,558,B,81.19872291249149,63.0904771594264,4.059936145624574,0.991022897777643,B,465,Correct
2,new_learn,72,559,B,58.51979025072966,32.725147911522164,2.925989512536483,0.514045421332387,B,465,Incorrect
2,new_learn,72,560,B,76.91432608366554,61.334400006294516,3.8457163041832767,0.9634385023605632,B,416,Incorrect
2,new_learn,72,561,A,58.19856376556755,82.01606241178774,2.9099281882783776,1.288305295746172,A,423,Incorrect
2,new_learn,72,562,A,53.9091232185923,70.44585584452524,2.695456160929615,1.1065609159850303,B,1244,Correct
2,new_learn,72,563,B,38.18876875864492,27.428565964223445,1.909438437932246,0.43084690665853703,A,837,Incorrect
2,new_learn,72,564,A,41.24971815398223,48.49646250404826,2.0624859076991116,0.7617806516390544,B,584,Incorrect
2,new_learn,72,565,B,77.79950946672784,63.08299523216596,3.889975473336392,0.9909053719390627,B,1193,Incorrect
2,new_learn,72,566,A,62.18219955474227,85.31417748330318,3.1091099777371136,1.340111966143005,A,575,Correct
2,new_learn,72,567,A,47.98606099141763,77.15554099327943,2.3993030495708814,1.2119564038411639,B,827,Incorrect
2,new_learn,72,568,A,47.42563947316128,76.93752547123948,2.371281973658064,1.2085318240291179,A,348,Incorrect
2,new_learn,72,569,A,28.459558766991606,59.59467134551781,1.4229779383495804,0.9361109084608845,B,283,Incorrect
2,new_learn,72,570,A,41.20208188960068,52.305034952845205,2.0601040944800335,0.8216055677680794,B,595,Correct
2,new_learn,72,571,B,80.72197290162387,49.63129941550882,4.036098645081194,0.7796066281593894,B,639,Incorrect
2,new_learn,72,572,B,73.28232132842358,41.562728907418816,3.6641160664211787,0.6528658189934554,A,259,Incorrect
2,new_learn,72,573,B,78.50675164629074,64.89209450130384,3.925337582314537,1.0193226368067538,B,372,Correct
2,new_learn,72,574,B,79.35681390783705,50.21855914163811,3.9678406953918524,0.7888312823661742,B,899,Correct
2,new_learn,72,575,A,43.452557939030896,61.38401986641621,2.172627896951545,0.9642179293007154,A,614,Correct
2,new_learn,72,576,A,23.434642405368145,54.39635502729398,1.1717321202684072,0.8544559466790448,A,805,Correct
2,new_learn,72,577,B,63.45929855399427,48.05616737217399,3.1729649276997134,0.7548645118805166,B,774,Correct
2,new_learn,72,578,B,60.01074100407907,49.3548071285752,3.0005370502039534,0.775263497472365,A,639,Incorrect
2,new_learn,72,579,B,73.98904460634012,60.315450821247325,3.699452230317006,0.9474328859899352,B,470,Correct
2,new_learn,72,580,A,61.806060974241774,78.41053520277504,3.0903030487120886,1.2316698067854097,B,508,Incorrect
2,new_learn,72,581,B,60.34196730564958,29.398535425767548,3.017098365282479,0.461791114599453,B,842,Correct
2,new_learn,72,582,A,45.3398636339304,55.07495723346538,2.26699318169652,0.8651154052071345,A,542,Incorrect
2,new_learn,72,583,B,67.82667681434899,59.34291268763245,3.391333840717449,0.9321562927104332,B,387,Incorrect
2,new_learn,72,584,B,61.195661539655674,45.84682784130857,3.059783076982784,0.7201602876832549,B,760,Correct
2,new_learn,72,585,A,18.07912193403833,44.14603572238161,0.9039560967019165,0.6934443075527332,A,751,Correct
2,new_learn,72,586,B,60.20463950092087,31.730416673736343,3.0102319750460436,0.49842021958776583,B,600,Incorrect
2,new_learn,72,587,B,50.66783399853658,21.343733339722473,2.5333916999268293,0.3352665793012583,A,1072,Incorrect
2,new_learn,72,588,A,37.6148070267797,59.51102173657653,1.880740351338985,0.9347969434762565,B,972,Correct
2,new_learn,72,589,A,25.5445364824383,49.497108598770744,1.2772268241219151,0.7774987637391717,A,2207,Correct
2,new_learn,72,590,B,84.95836700147657,60.98999014012061,4.247918350073829,0.958028524833584,B,720,Correct
2,new_learn,72,591,A,62.624942351722424,82.53241247703573,3.1312471175861214,1.2964161036044903,A,753,Correct
2,new_learn,72,592,A,42.90484839893234,72.60584212361412,2.1452424199466167,1.1404899011162326,B,336,Correct
2,new_learn,72,593,B,66.81167511369642,51.02013276161718,3.340583755684821,0.8014223713453623,B,728,Correct
2,new_learn,72,594,A,41.41304000305854,56.273406582235104,2.070652000152927,0.8839406035561066,B,670,Incorrect
2,new_learn,72,595,A,30.64476375810542,57.182841187373,1.532238187905271,0.8982259689282144,A,826,Correct
2,new_learn,72,596,B,49.11140484277917,34.69265254047438,2.4555702421389585,0.544950911773488,B,564,Incorrect
2,new_learn,72,597,B,54.98602445191014,47.59267718784043,2.749301222595507,0.7475840250899501,B,448,Correct
2,new_learn,72,598,A,54.79467453680526,74.1113498245391,2.739733726840263,1.1641383607819764,A,685,Incorrect
2,new_learn,72,599,A,35.34007456284886,64.57247268613666,1.767003728142443,1.0143020290744726,B,372,Correct
2,new_learn,72,600,B,13.351246836594548,66.00938786908273,0.6675623418297275,1.0368730399873476,A,639,Incorrect
2,new_learn,72,601,B,26.834212739432907,42.70420466038942,1.3417106369716452,0.6707960781923721,B,2391,Correct
2,new_learn,72,602,A,65.2818186194751,61.52985720871506,3.264090930973755,0.966508736916641,A,903,Correct
2,new_learn,72,603,B,10.770369358406725,68.1620733063571,0.5385184679203363,1.070687343763502,A,778,Incorrect
2,new_learn,72,604,A,59.58311178950121,48.94175349027803,2.9791555894750603,0.7687752660943005,A,702,Correct
2,new_learn,72,605,B,57.513415596678556,14.433046552442121,2.8756707798339276,0.2267137650903583,A,625,Incorrect
2,new_learn,72,606,A,63.037135400687724,61.971129140691666,3.1518567700343865,0.9734402202153065,A,681,Correct
2,new_learn,72,607,A,73.129165805299,38.55951063932618,3.65645829026495,0.605691376752623,B,451,Incorrect
2,new_learn,72,608,B,16.665215018563266,53.36054617216116,0.8332607509281632,0.8381854992300022,A,573,Incorrect
2,new_learn,72,609,A,65.78248034229348,55.78954946198685,3.289124017114674,0.8763401936843116,B,1519,Incorrect
2,new_learn,72,610,B,16.05386754168545,62.41149382972364,0.8026933770842725,0.9803574525751225,A,598,Incorrect
2,new_learn,72,611,B,25.65757092807911,45.51683179349799,1.2828785464039556,0.7149767218856781,B,510,Correct
2,new_learn,72,612,A,45.02665146370639,81.53182693971003,2.2513325731853198,1.280698942737737,A,755,Correct
2,new_learn,72,613,B,31.730416673736343,39.79536049907913,1.586520833686817,0.6251040609543222,B,883,Correct
2,new_learn,72,614,A,43.971078883706795,67.29290933550269,2.19855394418534,1.0570345480354961,A,783,Correct
2,new_learn,72,615,B,15.38568512466098,56.0980203860713,0.7692842562330491,0.8811856436290602,B,803,Correct
2,new_learn,72,616,B,47.95982341315381,42.06372206523571,2.3979911706576904,0.6607354011139369,B,667,Correct
2,new_learn,72,617,A,40.64948677559043,71.50666578496666,2.032474338779522,1.1232240795637591,A,735,Correct
2,new_learn,72,618,A,45.03837568398262,82.79051235349982,2.2519187841991313,1.3004703269834503,A,851,Correct
2,new_learn,72,619,A,66.89233378188631,53.31732272393033,3.344616689094315,0.8375065468928783,B,455,Incorrect
2,new_learn,72,620,B,29.131382079143606,48.81482473315336,1.4565691039571802,0.7667814738397396,B,974,Correct
2,new_learn,72,621,A,72.68106925471687,43.88155886291471,3.6340534627358436,0.6892899147590046,A,437,Correct
2,new_learn,72,622,B,15.328082288531633,55.845679023758414,0.7664041144265816,0.8772218747788654,A,755,Incorrect
2,new_learn,72,623,B,50.06445484496942,41.48232015241739,2.5032227422484707,0.6516027612234715,A,407,Incorrect
2,new_learn,72,624,A,87.16699493911176,35.40537110040778,4.358349746955588,0.5561462687333072,A,778,Correct
2,new_learn,72,625,B,27.680974857835796,61.74677585087831,1.3840487428917898,0.9699160869798746,B,933,Correct
2,new_learn,72,626,A,52.91696176564996,78.15041015776232,2.6458480882824977,1.2275837721332763,A,2704,Correct
2,new_learn,72,627,A,41.68711090163423,69.50010530681351,2.0843555450817117,1.0917051012780115,B,831,Incorrect
2,new_learn,72,628,B,18.89485250790172,57.658231505910706,0.944742625395086,0.9056933825897431,B,5403,Correct
2,new_learn,72,629,A,82.53241247703573,37.375057648277576,4.126620623851787,0.5870860326766192,A,719,Correct
2,new_learn,72,630,B,33.65996382026398,49.361042242319584,1.682998191013199,0.7753614384100332,B,871,Correct
2,new_learn,72,631,B,58.55329550633023,24.598604762579328,2.9276647753165115,0.38639398005339054,B,918,Correct
2,new_learn,72,632,A,48.93557412940254,70.57843893976141,2.446778706470127,1.108643526374951,A,490,Correct
2,new_learn,72,633,A,48.66917528080474,77.41902275620579,2.4334587640402368,1.2160951656949854,A,619,Correct
2,new_learn,72,634,A,69.7235150150614,49.38455437583851,3.4861757507530693,0.7757307661396998,B,1563,Incorrect
2,new_learn,72,635,A,32.36376510084875,86.0805396196547,1.6181882550424376,1.3521499544307618,B,1117,Incorrect
2,new_learn,72,636,A,57.81323765097542,73.61356181049986,2.890661882548771,1.1563191249422227,A,653,Correct
2,new_learn,72,637,B,20.6666325539683,65.40693981351495,1.033331627698415,1.0274098080596417,B,1656,Correct
2,new_learn,72,638,A,84.44555951933233,38.04435772230076,4.222277975966617,0.5975993736546108,A,670,Correct
2,new_learn,72,639,A,75.29564032713789,57.03257936035119,3.764782016356895,0.8958656616687809,A,2427,Correct
2,new_learn,72,640,A,79.04097181292842,44.463495188021774,3.952048590646421,0.6984309491780717,A,570,Correct
2,new_learn,72,641,A,38.26126316271696,70.61031797516044,1.9130631581358477,1.1091442810920167,B,584,Incorrect
2,new_learn,72,642,A,72.2060200656702,60.457420187162555,3.61030100328351,0.9496629355749057,A,671,Correct
2,new_learn,72,643,A,64.88353035763448,52.80954015744189,3.244176517881724,0.8295303169903729,A,555,Correct
2,new_learn,72,644,B,57.67514921963734,29.654459364040363,2.883757460981867,0.46581115842123133,B,653,Correct
2,new_learn,72,645,A,49.487744051898375,80.45820255731842,2.4743872025949187,1.2638344903755552,A,1235,Correct
2,new_learn,72,646,A,52.99109291155851,74.40395537771988,2.6495546455779255,1.168734598063338,A,1154,Correct
2,new_learn,72,647,B,30.67685719381342,40.78578842471934,1.533842859690671,0.6406616664298296,B,473,Correct
2,new_learn,72,648,A,47.849980585142134,60.91324947580399,2.392499029257107,0.9568230852973406,A,454,Correct
2,new_learn,72,649,B,40.5243191607303,49.338927197910564,2.026215958036515,0.7750140561047872,A,618,Incorrect
2,new_learn,72,650,B,21.343733339722473,49.33216600146342,1.0671866669861236,0.7749078514793482,B,531,Correct
2,new_learn,72,651,A,58.69402243250304,71.80517964198896,2.9347011216251517,1.1279131242648393,A,1045,Correct
2,new_learn,72,652,A,39.567674613387894,72.45728768496316,1.9783837306693948,1.1381564134506124,A,951,Correct
2,new_learn,72,653,A,48.22558038656226,71.4976818740121,2.411279019328113,1.1230829606204829,A,1532,Correct
2,new_learn,72,654,A,36.32266043597414,86.42709979668462,1.816133021798707,1.3575937089616814,B,700,Incorrect
2,new_learn,72,655,B,36.02587461294096,46.34795860684745,1.801293730647048,0.728032031340779,A,3909,Incorrect
2,new_learn,72,656,A,81.34129909004709,45.75521031423273,4.067064954502354,0.7187211629332473,B,463,Incorrect
2,new_learn,72,657,A,73.11728466832183,43.03671148134785,3.655864233416091,0.6760190831223296,A,780,Correct
2,new_learn,72,658,B,37.39860397574755,47.716619499900474,1.8699301987873775,0.7495309063751339,B,1161,Correct
2,new_learn,72,659,B,20.66945463304213,65.96374118722537,1.0334727316521066,1.0361560235854284,A,734,Incorrect
2,new_learn,72,660,A,39.656762568853175,76.15969857751178,1.9828381284426586,1.1963137477536203,A,598,Correct
2,new_learn,72,661,B,35.51692069427027,40.608138116728675,1.7758460347135132,0.6378711419173724,B,745,Correct
2,new_learn,72,662,A,70.80115928141981,44.894358497046895,3.5400579640709906,0.7051989342097451,A,1358,Correct
2,new_learn,72,663,A,82.63337787027237,43.66216522521651,4.131668893513619,0.6858436875568196,A,812,Correct
2,new_learn,72,664,B,33.868687634963486,49.872684080502246,1.6934343817481743,0.7833982896105524,B,562,Correct
2,new_learn,72,665,A,55.053912480737615,57.007252588207024,2.752695624036881,0.8954678296622446,A,874,Correct
2,new_learn,72,666,B,23.728857648553152,55.642996123734065,1.1864428824276576,0.8740381392302413,B,603,Correct
2,new_learn,72,667,A,38.138883383217085,84.86732125220912,1.9069441691608544,1.3330927648789257,A,690,Correct
2,new_learn,72,668,A,59.255355909421674,50.06316344075806,2.962767795471084,0.7863903324047533,A,850,Correct
2,new_learn,72,669,B,39.37563116182427,41.98938823763093,1.9687815580912138,0.659567768080355,B,619,Correct
2,new_learn,72,670,B,17.143560993973438,58.367060313333454,0.8571780496986718,0.9168276394600038,B,883,Correct
2,new_learn,72,671,B,52.84518338731017,27.37861629677775,2.6422591693655084,0.4300622991170538,A,633,Incorrect
2,new_learn,72,672,B,50.41976153060762,23.356609384597135,2.520988076530381,0.3668847622770839,B,1168,Correct
2,new_learn,72,673,A,41.753009756904945,66.77871077426735,2.087650487845247,1.0489575359231795,A,641,Correct
2,new_learn,72,674,B,63.24020769434742,21.369069836510832,3.162010384717371,0.33566456406214834,B,1621,Correct
2,new_learn,72,675,A,41.225026899245094,70.60841962550916,2.0612513449622547,1.1091144618854247,A,955,Correct
2,new_learn,72,676,A,58.3373456334705,73.62045030768563,2.916867281673525,1.1564273292029879,A,881,Correct
2,new_learn,72,677,B,44.150603784315805,42.8972287963357,2.2075301892157904,0.6738280942296438,B,1191,Correct
2,new_learn,72,678,B,32.725147911522164,41.48020974927034,1.6362573955761082,0.651569611088357,B,738,Correct
2,new_learn,72,679,A,56.40218693670778,61.589223744242595,2.820109346835389,0.9674412642760529,A,497,Correct
2,new_learn,72,680,A,70.84764135473165,49.85480651029023,3.5423820677365825,0.783117469394342,B,1448,Incorrect
2,new_learn,72,681,B,31.86470816211206,57.47853869564919,1.593235408105603,0.9028707745266407,B,733,Correct
2,new_learn,72,682,B,30.51225703010927,50.77162641782762,1.5256128515054634,0.7975188428252634,B,1308,Correct
2,new_learn,72,683,B,31.260936596851938,48.148444220440346,1.563046829842597,0.7563139932235665,B,1294,Correct
2,new_learn,72,684,B,24.675536307947112,49.4802661121949,1.2337768153973556,0.7772342025786974,B,611,Correct
2,new_learn,72,685,A,79.66011990628333,35.4501285369323,3.9830059953141665,0.556849316902202,B,1216,Incorrect
2,new_learn,72,686,A,52.12048239624716,73.82775822751836,2.6060241198123584,1.1596837143928753,A,638,Correct
2,new_learn,72,687,A,33.7098901589973,84.89507540283236,1.6854945079498649,1.3335287260574482,B,936,Incorrect
2,new_learn,72,688,B,42.932523902509466,27.014372238872056,2.1466261951254735,0.42434076683490257,B,732,Correct
2,new_learn,72,689,B,49.08504503931625,30.900405065866778,2.4542522519658125,0.48538242773937956,B,627,Correct
2,new_learn,72,690,B,27.81249950616936,47.93498173125012,1.390624975308468,0.7529609322842816,A,1254,Incorrect
2,new_learn,72,691,A,31.539964077171465,89.68484374400242,1.5769982038585733,1.4087662312225326,A,623,Correct
2,new_learn,72,692,A,78.26183568981236,44.0285083098798,3.913091784490618,0.6915981912741777,B,2538,Incorrect
2,new_learn,72,693,B,34.02976586840253,52.96292644200737,1.7014882934201265,0.8319397031141348,B,1005,Correct
2,new_learn,72,694,B,32.41827282771292,50.18820353300893,1.6209136413856458,0.7883544575808508,B,741,Correct
2,new_learn,72,695,A,66.04013130619995,48.64515670797347,3.3020065653099975,0.7641163347324684,A,1252,Correct
2,new_learn,72,696,A,53.008796996259946,64.87135081227339,2.6504398498129973,1.0189967957014219,A,927,Correct
2,new_learn,72,697,A,55.842459732604006,52.56631276272482,2.7921229866302,0.8257097100083983,A,1535,Correct
2,new_learn,72,698,B,42.771428798413396,35.55195186774682,2.13857143992067,0.5584487540424566,B,665,Correct
2,new_learn,72,699,B,16.9561296736332,60.446208648812416,0.84780648368166,0.9494868251423245,B,860,Correct
2,new_learn,72,700,A,72.73760924568073,56.271784786405014,3.6368804622840365,0.8839151284467796,A,888,Correct
2,new_learn,72,701,A,78.41053520277504,38.193939025758226,3.9205267601387517,0.5999489912748927,B,1094,Incorrect
2,new_learn,72,702,B,35.76026291953595,43.030750911353664,1.7880131459767972,0.6759254547078047,B,641,Correct
2,new_learn,72,703,B,57.791749131932846,25.276121345717726,2.8895874565966424,0.3970363856547548,B,733,Correct
2,new_learn,72,704,A,54.47851419125161,77.44860518592778,2.7239257095625806,1.2165598454144353,A,717,Correct
2,new_learn,72,705,A,38.77002124936442,77.5971847602946,1.9385010624682208,1.2188937279109566,B,1473,Incorrect
2,new_learn,72,706,B,20.17536944439875,63.7936412821321,1.0087684722199375,1.002068173988444,B,641,Correct
2,new_learn,72,707,B,27.550851447600586,48.12507118412005,1.3775425723800294,0.755946850427587,B,762,Correct
2,new_learn,72,708,A,51.305997391241526,73.4839856947621,2.565299869562076,1.1542837480758101,B,1628,Incorrect
2,new_learn,72,709,A,70.30678112232687,60.552452052980264,3.5153390561163436,0.9511556926324549,A,573,Correct
2,new_learn,72,710,B,37.71411645369267,36.6905745883468,1.8857058226846335,0.5763341979136933,B,695,Correct
2,new_learn,72,711,B,43.651160798377504,27.4714745481985,2.182558039918875,0.431520913119497,B,610,Correct
2,new_learn,72,712,A,54.55569524533617,58.548985107070386,2.727784762266808,0.9196853074375527,A,520,Correct
2,new_learn,72,713,A,42.88752340934542,75.21170445172586,2.144376170467271,1.1814226908475436,A,650,Correct
2,new_learn,72,714,A,62.383740211624094,47.336002241556606,3.1191870105812045,0.7435521844619211,B,573,Incorrect
2,new_learn,72,715,A,79.38812489394111,36.975470262834534,3.9694062446970553,0.5808093287037441,A,775,Correct
2,new_learn,72,716,A,73.88217446692283,52.562215017521154,3.6941087233461416,0.8256453427772578,A,453,Correct
2,new_learn,72,717,A,64.62769426137477,60.80088096126389,3.2313847130687385,0.9550580047984707,A,695,Correct
2,new_learn,72,718,A,79.7695807791624,47.027061426016054,3.98847903895812,0.7386993534794399,A,631,Correct
2,new_learn,72,719,A,61.993290660226386,62.910031532107794,3.0996645330113193,0.9881884644918605,A,628,Correct
2,new_learn,72,720,B,61.11191028164397,24.514201755224477,3.055595514082199,0.38506818071415605,A,905,Incorrect
2,new_learn,72,721,A,60.46062020581734,57.17285686740902,3.023031010290867,0.8980691355969644,A,696,Correct
2,new_learn,72,722,B,40.23521188237757,35.48057562611659,2.0117605941188783,0.5573275786607248,B,771,Correct
2,new_learn,72,723,B,27.827488114674495,41.535782649853466,1.391374405733725,0.6524425481694102,B,842,Correct
2,new_learn,72,724,A,56.48215889428068,71.80847318447324,2.824107944714034,1.1279648591092042,A,710,Correct
2,new_learn,72,725,B,53.77744486535103,21.21086307575237,2.6888722432675514,0.33317945807541327,B,675,Correct
2,new_learn,72,726,B,57.33980008522626,34.49717915105518,2.866990004261313,0.5418804229526296,A,1976,Incorrect
2,new_learn,72,727,B,63.08299523216596,22.20049053327216,3.1541497616082985,0.3487244898270878,B,1309,Correct
2,new_learn,72,728,B,63.0904771594264,18.80127708750851,3.1545238579713204,0.29532976988111415,B,1211,Correct
2,new_learn,72,729,B,24.679492579529914,61.99342848234188,1.2339746289764957,0.9737904974548476,A,645,Incorrect
2,new_learn,72,730,A,80.76443094698874,41.30566725595217,4.038221547349437,0.6488279040146191,A,1966,Correct
2,new_learn,72,731,B,41.18736916773812,41.93495262508266,2.059368458386906,0.6587126954779785,B,668,Correct
2,new_learn,72,732,B,18.80162559472084,65.35048886737655,0.9400812797360419,1.0265230786712587,A,1368,Incorrect
2,new_learn,72,733,A,60.32457213945348,48.483676145682594,3.0162286069726743,0.7615798039915156,A,1983,Correct
2,new_learn,72,734,A,36.524905958885014,76.93211649774453,1.826245297944251,1.2084468600721416,A,2192,Correct
2,new_learn,72,735,A,56.401222758630446,60.90867094519632,2.820061137931522,0.9567511659067341,A,793,Correct
2,new_learn,72,736,B,53.28655794198511,37.4383659858351,2.6643278970992554,0.5880804777175276,B,496,Correct
2,new_learn,72,737,B,51.72414803045409,21.830216579690926,2.586207401522705,0.3429082401651556,B,563,Correct
2,new_learn,72,738,B,57.58783484832787,14.866115129418901,2.8793917424163937,0.23351639039001248,B,643,Correct
2,new_learn,72,739,B,59.34291268763245,32.173323185651014,2.9671456343816227,0.5053773788080569,B,1049,Correct
2,new_learn,72,740,A,72.60584212361412,57.09515160106766,3.6302921061807063,0.8968485441275484,A,671,Correct
2,new_learn,72,741,A,48.54270269249022,72.90502849047704,2.427135134624511,1.1451895095771862,A,669,Correct
2,new_learn,72,742,B,54.34229207059542,27.848297049395995,2.717114603529771,0.4374400271268438,B,446,Correct
2,new_learn,72,743,A,48.57199371069748,60.68645906618311,2.428599685534874,0.9532606698734928,A,460,Correct
2,new_learn,72,744,B,48.278241260992864,25.27511717639743,2.413912063049643,0.3970206121999569,B,501,Correct
2,new_learn,72,745,A,84.88284063754642,37.12719962286083,4.244142031877321,0.5831926879177066,A,1861,Correct
2,new_learn,72,746,A,65.82479578534036,58.19098239388297,3.291239789267018,0.9140618139689786,A,671,Correct
2,new_learn,72,747,A,47.28915890129517,72.35975148379148,2.3644579450647583,1.1366243183853124,A,710,Correct
2,new_learn,72,748,A,51.741313143692864,72.92773408691366,2.5870656571846435,1.1455461682519896,A,478,Correct
2,new_learn,72,749,B,24.663090547107682,61.79299994256981,1.2331545273553841,0.970642173314259,B,884,Correct
2,new_learn,72,750,B,41.876022383740406,45.03815201207106,2.0938011191870203,0.7074576374619139,B,794,Correct
2,new_learn,72,751,A,48.04973939594154,61.27619856165373,2.402486969797077,0.962524276206004,A,1119,Correct
2,new_learn,72,752,B,14.303394328190194,63.012558380696575,0.7151697164095097,0.9897989524634716,B,1531,Correct
2,new_learn,72,753,A,48.733518462927215,65.23059955340557,2.436675923146361,1.024639861731183,A,968,Correct
2,new_learn,72,754,B,50.39406246006306,26.331070065432016,2.519703123003153,0.4136074813935967,B,695,Correct
2,new_learn,72,755,B,50.21855914163811,20.64318609216295,2.5109279570819054,0.3242624088691306,B,661,Correct
2,new_learn,72,756,A,59.41611264486686,61.16302211907763,2.970805632243343,0.9607465048032217,A,617,Correct
2,new_learn,72,757,A,79.37113051680066,52.279083744459975,3.9685565258400333,0.8211979271400053,B,501,Incorrect
2,new_learn,72,758,B,48.208921627942146,43.50351212305323,2.410446081397107,0.6833515704556926,B,1491,Correct
2,new_learn,72,759,B,55.098897248713925,21.555278367428585,2.7549448624356963,0.33858952082598315,A,628,Incorrect
2,new_learn,72,760,A,56.1303679699004,58.45022156316577,2.8065183984950197,0.9181339333176863,A,795,Correct
2,new_learn,72,761,A,72.59721555742215,40.940417651593656,3.6298607778711074,0.6430905766457226,A,694,Correct
2,new_learn,72,762,A,47.86476211198553,77.03986751522984,2.393238105599276,1.2101394090968853,A,723,Correct
2,new_learn,72,763,A,61.22507897167873,47.45783831174433,3.0612539485839365,0.7454659809771411,A,3339,Correct
2,new_learn,72,764,A,54.39635502729398,76.56535759463185,2.719817751364699,1.2026858246938545,A,780,Correct
2,new_learn,72,765,B,38.90922948875667,53.21337662140124,1.9454614744378336,0.8358737653325049,B,494,Correct
2,new_learn,72,766,A,59.19197166640339,59.06875840998164,2.9595985833201697,0.9278498873873431,A,557,Correct
2,new_learn,72,767,B,50.697757197803945,27.890131547990848,2.534887859890197,0.4380971618941049,B,880,Correct
2,new_learn,72,768,B,17.986103800977148,59.58914841311632,0.8993051900488573,0.9360241544415904,B,650,Correct
2,new_learn,72,769,B,25.667870095902423,47.91502463898275,1.2833935047951213,0.7526474470120107,B,596,Correct
2,new_learn,72,770,A,65.06656291960687,60.44017475991296,3.2533281459803436,0.949392045037129,A,554,Correct
2,new_learn,72,771,B,42.86988505656287,44.06246591110862,2.1434942528281438,0.6921315960269475,A,1035,Incorrect
2,new_learn,72,772,B,65.83019290211182,10.244148209263685,3.291509645105591,0.16091470378253914,A,1580,Incorrect
2,new_learn,72,773,B,48.03003985646142,40.761662565767054,2.401501992823071,0.6402826983235993,A,928,Incorrect
2,new_learn,72,774,B,51.86187877640702,23.89200216062352,2.593093938820351,0.3752946923368316,B,605,Correct
2,new_learn,72,775,B,57.59579592145812,19.704629973871803,2.8797897960729064,0.3095196038381045,B,453,Correct
2,new_learn,72,776,A,62.287226953422646,55.19068495152143,3.1143613476711325,0.8669332519514426,A,709,Correct
2,new_learn,72,777,A,60.45892962453489,71.84833050292434,3.022946481226745,1.128590936403393,A,835,Correct
2,new_learn,72,778,B,50.79718690694289,25.326692418772964,2.5398593453471445,0.39783075421272723,B,460,Correct
2,new_learn,72,779,B,65.56730422325984,19.071933683368968,3.278365211162992,0.2995812337471184,B,419,Correct
2,new_learn,72,780,A,83.1498572230655,41.38737947440583,4.157492861153275,0.6501114365406319,A,603,Correct
2,new_learn,72,781,A,36.94121752427755,84.45788649673499,1.8470608762138772,1.326661378779316,A,540,Correct
2,new_learn,72,782,B,36.33350914186467,35.34856069280002,1.8166754570932335,0.5552538929373674,107,539,Correct
2,new_learn,72,783,B,35.579593299181795,34.98128934246466,1.7789796649590897,0.5494848080569296,B,484,Correct
2,new_learn,72,784,B,41.9025820413135,35.503905444466014,2.095129102065675,0.5576940425904054,B,447,Correct
2,new_learn,72,785,B,19.14656735588439,60.525526588607065,0.9573283677942195,0.9507327484271083,A,427,Incorrect
2,new_learn,72,786,A,68.56655573073884,51.75690292723025,3.428327786536942,0.8129955300437333,A,756,Correct
2,new_learn,72,787,A,59.51102173657653,62.3851929732203,2.975551086828826,0.9799443196872525,A,538,Correct
2,new_learn,72,788,A,70.63302918395235,40.78894248223581,3.531651459197617,0.6407112102494432,B,434,Incorrect
2,new_learn,72,789,B,29.67424632782491,57.43718254190818,1.4837123163912453,0.9022211535827733,B,1061,Correct
2,new_learn,72,790,B,33.1370819553853,39.737543153505946,1.656854097769265,0.6241958682138082,B,699,Correct
2,new_learn,72,791,B,18.98428012109142,49.65288384641059,0.949214006054571,0.7799456756071541,B,534,Correct
2,new_learn,72,792,B,49.63129941550882,19.27802709837613,2.481564970775441,0.30281854153981697,B,607,Correct
2,new_learn,72,793,A,75.166980421055,55.036087234502006,3.7583490210527497,0.8645048366911925,A,991,Correct
2,new_learn,72,794,B,50.77751089708714,38.182724271464764,2.538875544854357,0.599772830326392,B,917,Correct
2,new_learn,72,795,B,31.011422051742446,51.30382643546072,1.5505711025871225,0.8058786211534461,A,648,Incorrect
2,new_learn,72,796,A,78.70383746467785,47.58048236056431,3.9351918732338924,0.7473924691910379,A,1014,Correct
2,new_learn,72,797,A,64.57247268613666,64.65992543715114,3.2286236343068335,1.015675733675089,A,463,Correct
2,new_learn,72,798,A,50.65783508671279,70.77749125701749,2.5328917543356395,1.1117702328628098,A,533,Correct
2,new_learn,72,799,A,87.838317458349,33.06901848522104,4.39191587291745,0.5194469276729774,A,1030,Correct
2,new_learn,72,800,B,56.00274315075531,32.616798997417106,2.8001371575377654,0.5123434805695026,B,868,Correct
2,new_learn,72,801,A,69.26639932356035,60.6006107621044,3.4633199661780174,0.9519121678664088,A,873,Correct
2,new_learn,72,802,A,69.93964807497309,43.878946780177216,3.4969824037486545,0.6892488842593113,A,2165,Correct
2,new_learn,72,803,B,21.587246339043638,64.76663733282695,1.079362316952182,1.017351960212618,B,1166,Correct
2,new_learn,72,804,A,31.168807428546327,89.2037998666004,1.5584403714273163,1.40121001166603,A,789,Correct
2,new_learn,72,805,A,37.13446252198726,79.30721874596274,1.8567231260993629,1.2457548789447763,A,1154,Correct
2,new_learn,72,806,B,19.067216975913425,66.13313548815316,0.9533608487956713,1.038816863042202,B,601,Correct
2,new_learn,72,807,A,77.15554099327943,52.01393900858237,3.8577770496639716,0.8170330433681497,A,590,Correct
2,new_learn,72,808,A,69.95735662771821,40.988688101002325,3.497867831385911,0.6438488070919614,A,1423,Correct
2,new_learn,72,809,B,67.35219241281175,12.522507116073797,3.367609620640587,0.19670308180191676,B,1109,Correct
2,new_learn,72,810,B,50.537031497463836,32.109715908871905,2.526851574873192,0.5043782380408364,A,1926,Incorrect
2,new_learn,72,811,B,12.38847670053,68.56416940724404,0.6194238350265,1.0770034545464193,B,602,Correct
2,new_learn,72,812,A,68.77693467698899,56.195007531245324,3.438846733849449,0.882709114142917,A,595,Correct
2,new_learn,72,813,A,58.55630483282045,58.79896396130279,2.9278152416410226,0.9236119660975992,A,651,Correct
2,new_learn,72,814,B,28.64523561485757,47.13195971792532,1.4322617807428784,0.7403470919956212,B,902,Correct
2,new_learn,72,815,A,59.88334362064644,53.7558799515221,2.994167181032322,0.8443953877147833,A,513,Correct
2,new_learn,72,816,B,40.7367476606329,39.17234487793382,2.036837383031645,0.6153177544620133,B,635,Correct
2,new_learn,72,817,B,44.752968982225774,40.354162594213356,2.2376484491112887,0.6338817037387436,A,3412,Incorrect
2,new_learn,72,818,A,38.72797786597826,87.93092638026208,1.9363988932989131,1.3812157616978815,A,1160,Correct
2,new_learn,72,819,B,30.165881085185738,53.361806455906745,1.5082940542592869,0.8382052957207852,A,1373,Incorrect
2,new_learn,72,820,A,51.07816387834612,66.07134835238477,2.553908193917306,1.0378463129831206,A,757,Correct
2,new_learn,72,821,B,47.78771680852952,34.79438508631941,2.389385840426476,0.5465489228667766,B,433,Correct
2,new_learn,72,822,B,37.00509517390958,46.69358806064718,1.850254758695479,0.7334611661053863,B,848,Correct
2,new_learn,72,823,B,22.481083247540887,62.73959261782126,1.1240541623770444,0.9855112162868185,B,1027,Correct
2,new_learn,72,824,B,12.417238114629122,64.02176804962505,0.620861905731456,1.005651580872659,B,705,Correct
2,new_learn,72,825,A,69.45686134903336,46.17843283853364,3.4728430674516684,0.7253691267991346,A,651,Correct
2,new_learn,72,826,A,87.90145842105626,35.496628805912366,4.3950729210528126,0.5575797414192906,A,1044,Correct
2,new_learn,72,827,B,34.69265254047438,50.88859515722083,1.7346326270237187,0.7993561834871504,B,767,Correct
2,new_learn,72,828,A,75.13547202624575,55.369221334128284,3.7567736013122874,0.8697376948914234,A,1114,Correct
2,new_learn,72,829,B,21.42813919259866,57.22248703423327,1.0714069596299332,0.8988487244344221,B,513,Correct
2,new_learn,72,830,A,44.589670696828236,75.84244084797349,2.229483534841412,1.1913302749915597,A,692,Correct
2,new_learn,72,831,B,44.54770764232601,46.09516316761231,2.2273853821163003,0.7240611298669684,A,954,Incorrect
2,new_learn,72,832,A,55.95733079240686,72.8171715093457,2.7978665396203426,1.1438094553447422,A,768,Correct
2,new_learn,72,833,B,51.02013276161718,33.188324886303576,2.5510066380808585,0.5213209882388131,B,554,Correct
2,new_learn,72,834,A,49.22038491847823,63.81028433577795,2.4610192459239117,1.0023296024637793,B,885,Incorrect
2,new_learn,72,835,B,27.57944431675702,57.348250917381264,1.378972215837851,0.9008242188913453,B,765,Correct
2,new_learn,72,836,B,57.25145615362482,21.456244615928966,2.862572807681241,0.33703390229513996,B,1749,Correct
2,new_learn,72,837,B,14.322969775517471,68.49321424791252,0.7161484887758734,1.0758888935099686,B,697,Correct
2,new_learn,72,838,A,49.08037591228782,78.64261644887458,2.454018795614391,1.2353153304743212,A,524,Correct
2,new_learn,72,839,A,80.12525050317163,50.537007322976,4.006262525158581,0.793833454701375,A,647,Correct
2,new_learn,72,840,B,32.84390495060054,34.67694531498405,1.642195247530027,0.5447041832524445,B,599,Correct
2,new_learn,72,841,B,52.215769870727364,35.98055721532013,2.610788493536368,0.5651812710985848,A,647,Incorrect
2,new_learn,72,842,B,27.17868204086383,57.31201871531434,1.3589341020431913,0.9002550847921613,B,739,Correct
2,new_learn,72,843,A,83.64987201221132,42.157629489779275,4.182493600610566,0.662210495489255,A,842,Correct
2,new_learn,72,844,B,49.4165309850447,43.0952102456726,2.470826549252235,0.676937979563563,B,1034,Correct
2,new_learn,72,845,A,70.96324782833786,54.070387068158645,3.5481623914168927,0.8493356539504187,A,1531,Correct
2,new_learn,72,846,A,55.850567386121405,65.15981572076693,2.7925283693060705,1.0235279918881306,A,601,Correct
2,new_learn,72,847,A,76.62034682240586,38.7706909357766,3.831017341120293,0.6090085890921807,A,1129,Correct
2,new_learn,72,848,B,64.82610681136893,19.29394398401874,3.241305340568447,0.30306856339483124,A,783,Incorrect
2,new_learn,72,849,B,25.73008908069903,51.73357879702918,1.2865044540349515,0.8126291554632779,B,648,Correct
2,new_learn,72,850,B,50.18674396161579,28.00437642292141,2.5093371980807895,0.43989171619306555,B,2082,Correct
2,new_learn,72,851,B,52.93584595245984,32.38565693214085,2.646792297622992,0.5087127094984651,B,1379,Correct
2,new_learn,72,852,A,54.55353723189084,57.910653692792565,2.727676861594542,0.9096584210292987,A,1003,Correct
2,new_learn,72,853,B,48.68811203558421,43.24992115937074,2.4344056017792104,0.6793681729130843,A,817,Incorrect
2,new_learn,72,854,A,42.50790496708723,79.86919940785114,2.125395248354361,1.254582450539017,A,982,Correct
2,new_learn,72,855,B,61.04207126346509,14.652009191160673,3.052103563173255,0.23015322217640247,B,4173,Correct
2,new_learn,72,856,B,20.892981479088736,47.35381093372716,1.0446490739544367,0.7438319227443864,B,1647,Correct
2,new_learn,72,857,A,81.43158401657627,45.831906101643,4.071579200828813,0.7199258975446943,A,773,Correct
2,new_learn,72,858,B,28.14711409850598,44.9322487319004,1.4073557049252992,0.7057941126270381,B,1975,Correct
2,new_learn,72,859,A,44.32930510944555,66.12928930666222,2.2164652554722775,1.0387564473646205,A,887,Correct
2,new_learn,72,860,A,67.96570332290706,60.14413146743191,3.398285166145353,0.9447418078731139,A,2113,Correct
2,new_learn,72,861,A,42.26428729989395,84.55362892369563,2.1132143649946977,1.328165297305198,A,2626,Correct
2,new_learn,72,862,B,56.34245846353782,14.601888975473571,2.817122923176891,0.22936593566940777,B,650,Correct
2,new_learn,72,863,B,20.6750370603028,57.44347465474425,1.03375185301514,0.90231998986008,B,941,Correct
2,new_learn,72,864,B,46.865747961147875,44.06844197166214,2.3432873980573934,0.6922254677666093,B,4276,Correct
2,new_learn,72,865,B,44.21041900608037,35.33972742508996,2.2105209503040184,0.5551151402926418,A,1074,Incorrect
2,new_learn,72,866,B,33.89000592761702,35.65865922050314,1.6945002963808509,0.5601249092199729,B,867,Correct
2,new_learn,72,867,B,48.6868389827359,37.66321933773304,2.4343419491367952,0.5916124659098159,B,1886,Correct
2,new_learn,72,868,A,65.44175497298858,57.25420277898255,3.2720877486494286,0.8993469141879594,A,1186,Correct
2,new_learn,72,869,B,24.525372044905446,49.07832213726762,1.2262686022452725,0.7709204813847663,B,724,Correct
2,new_learn,72,870,A,74.3486785005801,41.1560810998709,3.717433925029005,0.6464782101695008,A,1424,Correct
2,new_learn,72,871,B,24.688973360902605,57.1541232488546,1.2344486680451303,0.8977748686048361,B,916,Correct
2,new_learn,72,872,A,64.78386481828069,49.695959939115134,3.2391932409140343,0.7806223132890838,A,733,Correct
2,new_learn,72,873,A,82.36794812314733,44.48711274751944,4.118397406157367,0.6988019329351396,A,651,Correct
2,new_learn,72,874,A,81.80789497029599,34.62853530787446,4.090394748514799,0.5439437606389659,A,680,Correct
2,new_learn,72,875,A,53.04711435308983,68.22361539642168,2.6523557176544914,1.0716540446536693,A,774,Correct
2,new_learn,72,876,B,55.29709721466897,23.278172000649775,2.7648548607334487,0.3656526707312047,B,551,Correct
2,new_learn,72,877,B,11.767262295050486,65.52753601689489,0.5883631147525243,1.0293041287925877,B,623,Correct
2,new_learn,72,878,A,42.5548317852471,70.07611570454979,2.1277415892623552,1.1007530514476096,A,711,Correct
2,new_learn,72,879,A,60.018465601599104,71.25463064944026,3.0009232800799555,1.119265120912678,A,666,Correct
2,new_learn,72,880,A,37.08659629298607,84.99424426632511,1.8543298146493037,1.3350864669225169,B,779,Incorrect
2,new_learn,72,881,A,60.587578073775575,66.783841732025,3.029378903688779,1.049038132819166,A,560,Correct
2,new_learn,72,882,B,35.389536642937514,32.27501534738573,1.7694768321468757,0.5069747555492242,B,922,Correct
2,new_learn,72,883,B,27.356810888269074,49.76102962944182,1.3678405444134538,0.7816444255945924,B,927,Correct
2,new_learn,72,884,B,25.072636583567846,46.780406426551316,1.2536318291783923,0.7348249058079919,B,695,Correct
2,new_learn,72,885,B,26.66270560288219,63.04885737906777,1.3331352801441096,0.9903691357965496,B,546,Correct
2,new_learn,72,886,A,51.17777661077991,60.819953982301925,2.5588888305389954,0.955357603112345,A,651,Correct
2,new_learn,72,887,A,58.69343180916988,73.88253925605437,2.934671590458494,1.1605442127768995,A,704,Correct
2,new_learn,72,888,B,64.00352965784897,19.81118652772379,3.2001764828924486,0.3111933902719707,A,699,Incorrect
2,new_learn,72,889,B,41.0757693522872,36.14987159487979,2.05378846761436,0.5678408551534435,B,546,Correct
2,new_learn,72,890,A,59.227811266264375,52.60872804256087,2.9613905633132185,0.8263759676660628,A,708,Correct
2,new_learn,72,891,B,32.12915238293997,57.19804134422951,1.6064576191469984,0.8984647324337834,B,684,Correct
2,new_learn,72,892,B,46.994772961386204,40.66115229882529,2.3497386480693105,0.6387038867424264,A,649,Incorrect
2,new_learn,72,893,B,38.685371435811795,31.186573354444718,1.9342685717905896,0.48987754870481354,B,495,Correct
2,new_learn,72,894,B,43.63702000753643,40.34534767859451,2.1818510003768212,0.6337432393679927,B,665,Correct
2,new_learn,72,895,A,86.83873475406826,38.10753857804066,4.341936737703413,0.5985918162158109,A,616,Correct
2,new_learn,72,896,B,38.29311272050723,41.770967854878954,1.9146556360253615,0.6561368287311156,B,611,Correct
2,new_learn,72,897,A,76.93752547123948,52.57436052683872,3.8468762735619744,0.8258361239914885,A,553,Correct
2,new_learn,72,898,A,65.61412488381042,51.36602960131513,3.2807062441905206,0.8068557061978372,A,717,Correct
