experiment,condition,subject,trial,cat,x,y,xt,yt,resp,rt,fb
2,new_learn,54,0,A,53.64130960499221,69.91679733716774,2.6820654802496104,1.0982504843848628,B,4656,Incorrect
2,new_learn,54,1,A,40.32705316129997,56.49113402312973,2.0163526580649984,0.8873606582001039,B,5430,Incorrect
2,new_learn,54,2,A,44.44481782555157,76.71066159746808,2.2222408912775786,1.2049682546330918,A,2861,Correct
2,new_learn,54,3,A,38.6599120517465,59.494495442836744,1.9329956025873252,0.9345373490612368,A,7405,Correct
2,new_learn,54,4,A,20.95457909835235,40.2742261369102,1.0477289549176176,0.6326260648036557,B,4026,Incorrect
2,new_learn,54,5,A,18.901101893381067,43.267428154636754,0.9450550946690534,0.679643172151655,A,5409,Correct
2,new_learn,54,6,A,31.62366692535253,52.83429312634636,1.5811833462676264,0.8299191357166971,B,2181,Incorrect
2,new_learn,54,7,A,50.196140390171784,57.53080853833726,2.5098070195085893,0.9036918272956064,A,2066,Correct
2,new_learn,54,8,A,47.984508179605896,68.90837005277916,2.3992254089802945,1.0824101456432895,B,2745,Incorrect
2,new_learn,54,9,B,87.05714057852698,69.23460836176287,4.352857028926349,1.0875346850174035,A,5019,Incorrect
2,new_learn,54,10,B,75.28445754675559,53.65679184380729,3.764222877337779,0.8428389153585085,A,6600,Incorrect
2,new_learn,54,11,B,47.418075288408126,32.81338209196809,2.3709037644204063,0.5154314005978091,A,6990,Incorrect
2,new_learn,54,12,A,62.359618351312676,81.8320076376937,3.117980917565634,1.2854141701154118,B,5961,Incorrect
2,new_learn,54,13,A,13.571456973136382,38.065292079522095,0.678572848656819,0.5979282097688817,A,5181,Correct
2,new_learn,54,14,A,48.66868820844163,80.31750419110543,2.4334344104220818,1.2616244056072212,B,8937,Incorrect
2,new_learn,54,15,A,33.21340443055356,63.04583978303822,1.660670221527678,0.9903217355089597,A,8542,Correct
2,new_learn,54,16,A,55.13863950490486,80.004256701506,2.756931975245243,1.256703925546816,A,6674,Correct
2,new_learn,54,17,A,24.770738057595796,45.27659579427534,1.2385369028797897,0.7112031036342495,B,2978,Incorrect
2,new_learn,54,18,B,45.88446784902033,29.21667966017464,2.2942233924510167,0.458934530913455,A,7061,Incorrect
2,new_learn,54,19,A,62.82071396369449,79.07627691845414,3.1410356981847247,1.2421272532012382,A,8004,Correct
2,new_learn,54,20,B,85.14525982651003,56.28009320195554,4.257262991325502,0.8840456367330617,B,7133,Correct
2,new_learn,54,21,A,65.14242445204995,76.52268585896904,3.257121222602498,1.2020155386374833,A,1794,Correct
2,new_learn,54,22,A,27.43667904317809,49.90689966954833,1.3718339521589045,0.7839357468264795,B,4488,Incorrect
2,new_learn,54,23,A,28.473319062968066,43.27941391599768,1.4236659531484035,0.6798314440508508,A,2786,Correct
2,new_learn,54,24,B,76.19871809705937,60.10698403741738,3.809935904852969,0.944158297406947,B,1018,Correct
2,new_learn,54,25,A,61.008667370404865,83.3238355091202,3.050433368520243,1.3088477475218818,A,1198,Correct
2,new_learn,54,26,B,86.6568918336936,63.42558908985136,4.3328445916846805,0.9962868236714096,B,2804,Correct
2,new_learn,54,27,B,52.487290439843406,40.679686759558095,2.62436452199217,0.6389950253708084,A,1908,Incorrect
2,new_learn,54,28,B,48.18802953446527,19.282695058279575,2.4094014767232634,0.30289186568251664,A,1606,Incorrect
2,new_learn,54,29,B,40.94572351381218,15.056669573007088,2.0472861756906093,0.23650961259044018,B,6794,Correct
2,new_learn,54,30,B,68.11080691952631,43.49346019783066,3.405540345976316,0.6831936751835244,A,3294,Incorrect
2,new_learn,54,31,B,79.12979442154023,58.627365857330844,3.9564897210770114,0.9209165093835583,A,2341,Incorrect
2,new_learn,54,32,B,71.61464602747597,58.11347171104224,3.580732301373798,0.9128442790100428,B,8337,Correct
2,new_learn,54,33,B,35.838494556997645,22.680383239138582,1.7919247278498824,0.35626262682339416,A,5395,Incorrect
2,new_learn,54,34,A,23.717189845744233,35.14488670958336,1.1858594922872117,0.5520545894903631,A,6284,Correct
2,new_learn,54,35,B,64.55703360393743,38.666511056938965,3.2278516801968715,0.6073721353821397,B,599,Correct
2,new_learn,54,36,B,72.15784083328472,40.96005671409086,3.6078920416642357,0.6433990663180457,B,658,Correct
2,new_learn,54,37,B,37.29806844210171,18.124291969725608,1.8649034221050855,0.2846957125180323,A,439,Incorrect
2,new_learn,54,38,B,56.5280576239603,48.51180362270007,2.826402881198015,0.7620216293673263,B,755,Correct
2,new_learn,54,39,B,40.43106665545493,20.725429643950136,2.021553332772746,0.32555428755962934,A,1348,Incorrect
2,new_learn,54,40,A,58.18993660519923,71.20408319644599,2.9094968302599615,1.1184711233777558,B,690,Incorrect
2,new_learn,54,41,B,55.66539129405496,34.986177814508,2.783269564702748,0.5495615959962227,B,1132,Correct
2,new_learn,54,42,B,50.10755140835249,43.291041032321274,2.5053775704176244,0.680014082366974,B,792,Correct
2,new_learn,54,43,B,85.76114258726236,69.13178411372405,4.288057129363118,1.0859195255061553,B,913,Correct
2,new_learn,54,44,A,51.18124779544141,77.97683863811017,2.5590623897720706,1.2248573170782182,A,801,Correct
2,new_learn,54,45,B,50.87299021070421,23.531540732128317,2.5436495105352104,0.36963257745851646,B,936,Correct
2,new_learn,54,46,B,60.11824242925171,38.81448461308387,3.0059121214625857,0.6096964985666917,B,1008,Correct
2,new_learn,54,47,A,49.90150001734055,58.24465902153262,2.4950750008670273,0.9149049644644467,B,1331,Incorrect
2,new_learn,54,48,B,63.64353920730964,52.004753302539086,3.182176960365482,0.8168887546350316,B,564,Correct
2,new_learn,54,49,B,41.576652625254624,32.823582580958664,2.078832631262731,0.5155916295041882,A,711,Incorrect
2,new_learn,54,50,B,44.77796329362687,20.075174749995753,2.2388981646813435,0.3153401075705898,B,959,Correct
2,new_learn,54,51,B,37.77881293379532,15.957744123711414,1.8889406466897662,0.25066365853458733,B,1548,Correct
2,new_learn,54,52,A,14.435220998633845,38.60150076308842,0.7217610499316922,0.6063509560742969,A,882,Correct
2,new_learn,54,53,B,77.0391514213072,65.2791889136605,3.85195757106536,1.0254031016172807,B,802,Correct
2,new_learn,54,54,B,64.02744992992666,31.43751436634367,3.201372496496333,0.49381932090214437,B,441,Correct
2,new_learn,54,55,A,20.996043977067878,40.99945592200861,1.0498021988533939,0.6440179476288038,A,550,Correct
2,new_learn,54,56,B,51.466176983341406,34.984551001157925,2.5733088491670704,0.5495360420718759,B,563,Correct
2,new_learn,54,57,B,36.95428701966056,20.611278291346295,1.8477143509830283,0.32376120230594146,A,740,Incorrect
2,new_learn,54,58,B,74.94575376100616,45.57797416213378,3.747287688050308,0.7159371439663244,B,1077,Correct
2,new_learn,54,59,B,83.48060834075119,67.48184681884794,4.174030417037559,1.0600023710838222,B,511,Correct
2,new_learn,54,60,B,49.59079828329814,41.77158133637626,2.4795399141649073,0.6561464652759408,B,691,Correct
2,new_learn,54,61,A,25.170796116766027,57.655457008526035,1.2585398058383013,0.9056498008867376,A,572,Correct
2,new_learn,54,62,B,73.87720232764617,54.52698813182173,3.6938601163823086,0.856507926686545,B,516,Correct
2,new_learn,54,63,B,43.16483015078003,26.381385071421,2.1582415075390013,0.41439782765949834,B,587,Correct
2,new_learn,54,64,B,37.0472725445512,14.741618444282857,1.8523636272275599,0.23156080103291407,A,564,Incorrect
2,new_learn,54,65,A,20.181068312449295,51.830369912319185,1.0090534156224649,0.814149546746917,A,606,Correct
2,new_learn,54,66,A,51.627177442771256,60.96073228781356,2.581358872138563,0.9575689435642462,B,863,Incorrect
2,new_learn,54,67,B,60.35585728702094,33.25387941048016,3.017792864351047,0.5223507162966268,B,493,Correct
2,new_learn,54,68,A,30.013914094927728,43.48391236354,1.5006957047463862,0.6830436981531982,A,1027,Correct
2,new_learn,54,69,A,45.18975928404807,63.583441178214365,2.2594879642024037,0.9987663584771849,B,463,Incorrect
2,new_learn,54,70,B,36.96803606264531,22.244048453171732,1.8484018031322653,0.34940869603289854,107,732,Correct
2,new_learn,54,71,B,46.72521943581506,18.54221301311307,2.336260971790753,0.2912604009164654,107,1900,Correct
2,new_learn,54,72,A,27.538246288165645,60.316009500350596,1.3769123144082824,0.9474416617007679,A,635,Correct
2,new_learn,54,73,B,84.43456304650343,58.59950429115604,4.221728152325171,0.9204788609254968,B,578,Correct
2,new_learn,54,74,A,31.264673394030623,56.15018072615645,1.5632336697015312,0.8820049763351615,A,1040,Correct
2,new_learn,54,75,B,62.93258900234842,52.30392543207958,3.1466294501174215,0.8215881394566479,B,559,Correct
2,new_learn,54,76,B,74.97089000287632,51.028959981181146,3.748544500143816,0.8015610289860311,B,650,Correct
2,new_learn,54,77,B,44.5570765090263,18.002489712544335,2.227853825451315,0.2827824471362756,A,828,Incorrect
2,new_learn,54,78,B,63.06894204153055,31.93250092949007,3.153447102076527,0.5015945516541762,B,337,Correct
2,new_learn,54,79,B,84.23230163378817,57.20877917647624,4.211615081689408,0.8986334019082924,B,373,Correct
2,new_learn,54,80,A,41.9785084977619,54.9022641554097,2.0989254248880953,0.8624027486804067,A,1211,Correct
2,new_learn,54,81,B,61.27352568128807,48.66641318432812,3.0636762840644036,0.7644502306822534,B,512,Correct
2,new_learn,54,82,A,51.30806317632861,62.303255196528355,2.5654031588164306,0.9786572441007179,B,576,Incorrect
2,new_learn,54,83,B,61.08477908109633,41.48127127915105,3.0542389540548163,0.6515862855607312,B,467,Correct
2,new_learn,54,84,A,10.83200002966366,30.803257834449624,0.541600001483183,0.4838564425966959,A,642,Correct
2,new_learn,54,85,A,50.08608259532645,65.17956367762746,2.5043041297663224,1.0238381920691126,B,1221,Incorrect
2,new_learn,54,86,A,54.72442636734188,65.17714188932035,2.736221318367094,1.0238001507073418,B,838,Incorrect
2,new_learn,54,87,B,75.12937091841992,50.40419635324189,3.756468545920996,0.7917472648672109,B,477,Correct
2,new_learn,54,88,A,37.36467893029076,65.67730813751224,1.868233946514538,1.0316567437618078,A,1326,Correct
2,new_learn,54,89,A,60.321210197038084,70.10153681078471,3.0160605098519047,1.1011523652505786,B,1138,Incorrect
2,new_learn,54,90,A,25.09173364309131,41.53089990352821,1.2545866821545655,0.6523658501694864,A,621,Correct
2,new_learn,54,91,A,20.932078225201042,48.018544316552415,1.046603911260052,0.7542735303047851,A,1185,Correct
2,new_learn,54,92,A,52.85915445907422,68.91403936917843,2.6429577229537107,1.0824991990570436,A,1063,Correct
2,new_learn,54,93,B,63.50266943819321,32.231291062639265,3.1751334719096604,0.5062879360905094,B,792,Correct
2,new_learn,54,94,A,17.50331934504505,32.623043624378155,0.8751659672522524,0.5124415709404287,A,563,Correct
2,new_learn,54,95,A,53.01931157339153,71.04705621888297,2.6509655786695765,1.116004549382119,A,1284,Correct
2,new_learn,54,96,A,54.925233394794034,70.56697855487421,2.7462616697397015,1.1084635070701065,B,756,Incorrect
2,new_learn,54,97,B,39.96368722743426,26.272664384943212,1.998184361371713,0.41269004710983903,B,2308,Correct
2,new_learn,54,98,B,39.18967622189912,25.85751058552151,1.959483811094956,0.4061688264779734,B,850,Correct
2,new_learn,54,99,B,47.2713425865755,30.613138006225356,2.363567129328775,0.48087004731844035,B,687,Correct
2,new_learn,54,100,B,77.70809676930207,55.26200249694038,3.885404838465104,0.8680535053352435,B,545,Correct
2,new_learn,54,101,B,49.38903468379968,30.96236860229404,2.4694517341899838,0.4863557486935311,B,624,Correct
2,new_learn,54,102,A,46.68002576990764,65.60035847369019,2.334001288495382,1.0304480212690104,A,632,Correct
2,new_learn,54,103,A,19.125419419656737,43.88652779499772,0.9562709709828369,0.6893679665616455,A,573,Correct
2,new_learn,54,104,B,62.43439223508999,54.94783132384403,3.1217196117544996,0.8631185160883976,B,894,Correct
2,new_learn,54,105,B,46.604367949769525,17.879823330249497,2.3302183974884763,0.2808556081089761,B,480,Correct
2,new_learn,54,106,A,44.48921686834474,75.96765657374634,2.224460843417237,1.1932971590125692,A,637,Correct
2,new_learn,54,107,B,60.13989117419269,44.34490454698091,3.0069945587096343,0.6965681317446792,B,575,Correct
2,new_learn,54,108,B,82.5305674989359,66.62828283334052,4.126528374946795,1.0465946193526274,B,514,Correct
2,new_learn,54,109,A,26.144136698820244,41.30078581675099,1.3072068349410122,0.6487512265469522,A,475,Correct
2,new_learn,54,110,A,28.180628859874297,58.07755705342845,1.409031442993715,0.9122801328874643,A,587,Correct
2,new_learn,54,111,B,82.11662924975653,60.34834134779309,4.105831462487827,0.9479495291727796,B,513,Correct
2,new_learn,54,112,B,72.41190783057391,63.07382249370358,3.6205953915286955,0.9907612869002291,B,577,Correct
2,new_learn,54,113,A,38.541678199268986,57.64209678853195,1.9270839099634491,0.905439939041819,A,1106,Correct
2,new_learn,54,114,B,56.19008314762467,29.376622004980405,2.8095041573812334,0.46144689939065353,B,528,Correct
2,new_learn,54,115,B,69.82021937205612,46.942134863280245,3.4910109686028057,0.7373653301515126,A,665,Incorrect
2,new_learn,54,116,A,37.872335644024986,61.33229883183866,1.8936167822012493,0.963405497189391,B,1108,Incorrect
2,new_learn,54,117,B,64.06796305206353,33.429430709357774,3.2033981526031767,0.525108269651037,B,762,Correct
2,new_learn,54,118,B,71.63626086791515,39.741396369690726,3.5818130433957576,0.6242563943921023,B,542,Correct
2,new_learn,54,119,A,15.805106145212186,40.388929031934666,0.7902553072606093,0.6344278136654273,A,531,Correct
2,new_learn,54,120,A,38.475795103928704,48.57700720678591,1.9237897551964351,0.7630458448710851,A,808,Correct
2,new_learn,54,121,A,20.865208018503072,48.829405321872684,1.0432604009251536,0.7670105051917678,A,614,Correct
2,new_learn,54,122,B,32.96293627499312,16.846684387202956,1.648146813749656,0.26462709954091335,B,811,Correct
2,new_learn,54,123,B,50.6490928510641,26.867745941900022,2.532454642553205,0.4220375663479504,B,570,Correct
2,new_learn,54,124,A,46.09364060154538,59.98786523063266,2.3046820300772692,0.9422871835654506,B,523,Incorrect
2,new_learn,54,125,A,35.465346097621634,66.98177148474517,1.7732673048810819,1.0521472061045285,B,822,Incorrect
2,new_learn,54,126,A,43.780580416712,67.53374178898541,2.1890290208355996,1.060817535368533,B,676,Incorrect
2,new_learn,54,127,B,60.88952089287103,44.38120182279448,3.0444760446435515,0.6971382880198853,B,397,Correct
2,new_learn,54,128,B,40.87447878562375,12.82828417692706,2.0437239392811875,0.20150621664198115,B,749,Correct
2,new_learn,54,129,B,41.983848236630635,32.12614029342072,2.099192411831532,0.5046362316700278,B,724,Correct
2,new_learn,54,130,B,49.74269106566492,31.6328307425702,2.487134553283246,0.49688734336553947,B,701,Correct
2,new_learn,54,131,A,39.08954673949753,52.75238168192139,1.9544773369748765,0.8286324737564451,B,752,Incorrect
2,new_learn,54,132,B,78.54880996144216,49.67498495905445,3.927440498072108,0.7802928390727448,B,469,Correct
2,new_learn,54,133,A,17.185463098097255,38.859511084011174,0.8592731549048628,0.6104037727181032,A,545,Correct
2,new_learn,54,134,B,47.87537674931578,37.57505164623885,2.393768837465789,0.5902275310504052,B,1517,Correct
2,new_learn,54,135,B,67.11950757346125,54.086681665518,3.3559753786730626,0.8495916088872055,B,598,Correct
2,new_learn,54,136,A,52.298033129734755,65.96942860342367,2.614901656486738,1.0362453613101608,A,889,Correct
2,new_learn,54,137,A,24.040991212115898,37.037488895054935,1.2020495606057948,0.5817835151005907,A,785,Correct
2,new_learn,54,138,A,26.711920680553135,57.20190511127066,1.3355960340276567,0.8985254243445417,A,581,Correct
2,new_learn,54,139,A,24.76357186033311,55.27044358083353,1.2381785930166556,0.8681860975709788,A,645,Correct
2,new_learn,54,140,A,51.94866828084244,59.62950794323332,2.5974334140421216,0.9366581204581801,B,1368,Incorrect
2,new_learn,54,141,A,30.351341660995814,59.7223604762299,1.5175670830497907,0.9381166446358264,A,2164,Correct
2,new_learn,54,142,A,44.056564654683335,67.21738460641454,2.202828232734167,1.055848208365158,B,806,Incorrect
2,new_learn,54,143,B,72.26782350102184,59.15852505780685,3.613391175051092,0.9292599385940684,B,701,Correct
2,new_learn,54,144,A,27.505528613375873,60.048654566028326,1.3752764306687937,0.9432420602129289,A,807,Correct
2,new_learn,54,145,B,75.89947558575889,61.46776522206349,3.7949737792879445,0.9655333982710843,B,689,Correct
2,new_learn,54,146,B,40.813653713231105,15.759549581448578,2.0406826856615554,0.24755042594481477,B,718,Correct
2,new_learn,54,147,A,48.76682529196953,63.04921550922385,2.4383412645984763,0.9903747612918865,B,2046,Incorrect
2,new_learn,54,148,A,13.978281445887614,43.030714883886844,0.6989140722943807,0.6759248887896794,A,556,Correct
2,new_learn,54,149,A,55.80798891561645,76.1097138271835,2.7903994457808223,1.195528589131506,B,837,Incorrect
2,new_learn,54,150,B,82.88121088303492,61.50053502454177,4.1440605441517455,0.9660481451247109,B,605,Correct
2,new_learn,54,151,A,56.71141154977902,71.69177820851209,2.835570577488951,1.1261318187132519,B,676,Incorrect
2,new_learn,54,152,A,35.98114063975012,46.19966578968134,1.799057031987506,0.725702653215833,B,633,Incorrect
2,new_learn,54,153,A,22.534352115126214,37.698551763968496,1.1267176057563106,0.5921674663632898,A,625,Correct
2,new_learn,54,154,A,25.87373563238112,46.58592774828082,1.2936867816190558,0.7317700418733196,A,1351,Correct
2,new_learn,54,155,B,49.9245775321563,41.169873011037694,2.4962288766078147,0.6466948530035036,A,839,Incorrect
2,new_learn,54,156,B,53.04750377138295,26.865560096419124,2.652375188569147,0.42200323116742705,B,587,Correct
2,new_learn,54,157,B,36.72498170597012,12.961798951120052,1.836249085298506,0.20360346181073322,B,583,Correct
2,new_learn,54,158,B,51.46038344918899,39.84254267727508,2.5730191724594493,0.6258451968763259,B,558,Correct
2,new_learn,54,159,A,58.14048056178699,70.53192326248403,2.9070240280893493,1.1079128598248942,B,641,Incorrect
2,new_learn,54,160,B,77.20926680487815,46.781305107158346,3.860463340243908,0.7348390222499567,B,566,Correct
2,new_learn,54,161,A,24.593898786435943,39.64463728666847,1.229694939321797,0.6227365062701483,A,636,Correct
2,new_learn,54,162,A,23.177092582862663,40.712259356375704,1.158854629143133,0.6395066745251612,A,580,Correct
2,new_learn,54,163,B,51.76814119982551,23.20599022792054,2.588407059991275,0.3645188420965585,B,1410,Correct
2,new_learn,54,164,B,44.13915803606122,27.082063779570426,2.2069579018030607,0.4254040630697433,B,712,Correct
2,new_learn,54,165,A,26.240448205136566,49.83964684333594,1.3120224102568283,0.7828793419026695,A,638,Correct
2,new_learn,54,166,B,53.31190544972482,36.6609642204208,2.665595272486241,0.5758690793419612,B,795,Correct
2,new_learn,54,167,A,27.0982364529713,46.50165998492641,1.3549118226485648,0.7304463669418765,A,707,Correct
2,new_learn,54,168,B,45.1864233367287,27.486356847544872,2.259321166836435,0.4317546837309724,B,669,Correct
2,new_learn,54,169,B,32.54481626204529,14.755980490289726,1.6272408131022644,0.23178639952404256,A,634,Incorrect
2,new_learn,54,170,B,64.03128136806546,50.83773407376737,3.2015640684032736,0.7985572594564954,B,689,Correct
2,new_learn,54,171,B,77.47161362638758,51.839346873850985,3.873580681319379,0.8142905565289162,B,1013,Correct
2,new_learn,54,172,A,19.593978113246255,35.81202382841012,0.9796989056623127,0.5625339548475792,A,1044,Correct
2,new_learn,54,173,A,42.757994932030826,67.3244940752187,2.1378997466015415,1.057530679966783,A,1230,Correct
2,new_learn,54,174,A,44.12051341063987,75.20488456124222,2.206025670531994,1.181315564258335,A,947,Correct
2,new_learn,54,175,B,56.550188315966714,49.62080861298689,2.827509415798336,0.7794418390187239,B,483,Correct
2,new_learn,54,176,B,80.5460996872771,61.88885255296795,4.027304984363855,0.9721478225975302,B,546,Correct
2,new_learn,54,177,B,37.64908365387093,18.412133184202677,1.8824541826935468,0.2892171117420399,A,1186,Incorrect
2,new_learn,54,178,B,52.76994589018894,22.296808465380995,2.638497294509447,0.3502374483666981,B,1067,Correct
2,new_learn,54,179,B,82.24006794944195,59.82695068907655,4.1120033974720975,0.9397595438574085,B,601,Correct
2,new_learn,54,180,A,50.521535248482216,76.16709399160641,2.5260767624241107,1.1964299146465698,B,1135,Incorrect
2,new_learn,54,181,A,21.77378465376977,42.56180243668011,1.0886892326884885,0.668559229293072,A,589,Correct
2,new_learn,54,182,A,67.63708887170299,86.66345124516539,3.381854443585149,1.361306308832744,B,2157,Incorrect
2,new_learn,54,183,B,61.46596601405046,42.146952809844656,3.0732983007025227,0.6620427865930183,B,619,Correct
2,new_learn,54,184,A,68.92126104607105,88.62533751360581,3.4460630523035523,1.3921235462732997,B,594,Incorrect
2,new_learn,54,185,B,89.67777651040046,64.98592328767197,4.483888825520023,1.0207964959365006,B,750,Correct
2,new_learn,54,186,A,12.09189476845608,35.470856925984954,0.604594738422804,0.5571749176760449,A,577,Correct
2,new_learn,54,187,A,44.321330372481725,67.16743795438276,2.2160665186240864,1.0550636481896856,A,1254,Correct
2,new_learn,54,188,A,55.27028280123545,62.83601829883156,2.7635141400617727,0.9870258673422152,B,486,Incorrect
2,new_learn,54,189,A,46.57675908646652,66.38185406107443,2.3288379543233257,1.0427237252497061,A,656,Correct
2,new_learn,54,190,B,51.02640175326722,38.909497913497745,2.5513200876633615,0.6111889639995595,B,2547,Correct
2,new_learn,54,191,B,58.628486566709825,45.082108379544934,2.9314243283354915,0.7081481024675861,B,556,Correct
2,new_learn,54,192,A,66.20057040520743,81.05535120529852,3.3100285202603716,1.273214479403532,A,1023,Correct
2,new_learn,54,193,B,46.29224193092028,24.19440171608452,2.3146120965460137,0.38004477344625703,B,962,Correct
2,new_learn,54,194,B,64.4848195039707,47.66495668248872,3.224240975198535,0.7487193887369115,B,1108,Correct
2,new_learn,54,195,A,54.58169338773142,66.3983424134274,2.7290846693865713,1.0429827236828155,A,962,Correct
2,new_learn,54,196,A,65.40877534433766,85.71992029442737,3.2704387672168824,1.3464853593163781,A,1183,Correct
2,new_learn,54,197,A,62.03748935381577,73.46873794804162,3.101874467690789,1.1540442370304058,A,993,Correct
2,new_learn,54,198,B,57.969365560621284,40.6422022007122,2.898468278031064,0.6384062192973418,B,1495,Correct
2,new_learn,54,199,A,54.38048733366176,65.31779110709098,2.7190243666830884,1.0260094634537489,A,619,Correct
2,new_learn,54,200,B,75.23561381799789,61.08909804678522,3.7617806908998945,0.9595853081910352,B,1279,Correct
2,new_learn,54,201,A,26.538836816936016,36.300122744154294,1.3269418408468008,0.5702009946872144,A,638,Correct
2,new_learn,54,202,B,62.117289910206786,30.126255862061665,3.1058644955103394,0.4732221204820969,B,1385,Correct
2,new_learn,54,203,B,64.16320293985069,54.209372993840304,3.2081601469925345,0.8515188397657881,B,676,Correct
2,new_learn,54,204,A,65.43551123687523,81.39839185750364,3.2717755618437616,1.2786029493677833,A,1323,Correct
2,new_learn,54,205,B,47.34711246413359,39.230715569881866,2.3673556232066795,0.616234639147058,B,826,Correct
2,new_learn,54,206,B,54.316052126783006,39.86692283250511,2.7158026063391505,0.6262281594591463,B,1065,Correct
2,new_learn,54,207,B,70.6842979892434,56.009617725788004,3.5342148994621705,0.8797970178885411,107,727,Correct
2,new_learn,54,208,B,58.82253569229034,41.58899580238161,2.941126784614517,0.653278418414694,B,1407,Correct
2,new_learn,54,209,A,54.83188939511004,65.62368501392527,2.7415944697555017,1.030814433706191,A,927,Correct
2,new_learn,54,210,A,55.815969476711096,63.98185214283252,2.790798473835555,1.005024583274955,A,802,Correct
2,new_learn,54,211,B,44.84789194928688,17.438989363202026,2.242394597464344,0.27393100434733014,B,877,Correct
2,new_learn,54,212,B,65.61122681461552,35.58166807047202,3.280561340730776,0.558915535063327,B,722,Correct
2,new_learn,54,213,B,75.33641040986126,49.749669389252844,3.7668205204930634,0.7814659793589888,B,685,Correct
2,new_learn,54,214,B,61.99300347182861,37.31486040217893,3.09965017359143,0.5861404565460699,B,459,Correct
2,new_learn,54,215,A,55.993301434186954,65.72238561289753,2.799665071709348,1.032364819089372,A,1185,Correct
2,new_learn,54,216,A,48.07050431001994,62.8851396792166,2.403525215500997,0.9877974641809741,A,1194,Correct
2,new_learn,54,217,B,61.88599454312315,38.93354484207513,3.0942997271561574,0.61156669227036,B,736,Correct
2,new_learn,54,218,A,37.16550029939725,69.02339171212414,1.8582750149698626,1.084216901643299,A,708,Correct
2,new_learn,54,219,A,38.5716748822651,50.267086519616676,1.928583744113255,0.7895935486369513,A,894,Correct
2,new_learn,54,220,A,47.11334481644801,76.77487420319713,2.3556672408224006,1.2059769038852233,A,1201,Correct
2,new_learn,54,221,B,62.113534832347725,48.36879857942731,3.1056767416173865,0.7597753114004663,B,559,Correct
2,new_learn,54,222,B,87.32025094841643,66.7590725748442,4.366012547420821,1.0486490598079918,B,446,Correct
2,new_learn,54,223,A,17.63241187066483,41.44466608780283,0.8816205935332414,0.6510112925596171,A,576,Correct
2,new_learn,54,224,A,49.09405359293749,70.1930974638918,2.4547026796468745,1.102590596626374,A,1208,Correct
2,new_learn,54,225,A,45.27656059771568,56.87260434412566,2.263828029885784,0.8933527799901205,A,1113,Correct
2,new_learn,54,226,A,41.49225037168151,48.95114591611183,2.0746125185840754,0.7689228019742946,B,920,Incorrect
2,new_learn,54,227,A,22.74098058996162,42.070495514358996,1.137049029498081,0.6608417982039628,A,774,Correct
2,new_learn,54,228,A,49.632305818671526,57.771623558980046,2.481615290933576,0.9074745407942337,A,2536,Correct
2,new_learn,54,229,B,68.6850769897948,43.25180657198419,3.4342538494897394,0.6793977889051614,B,767,Correct
2,new_learn,54,230,B,43.802375056087826,29.435333247672602,2.1901187528043913,0.46236913343427816,A,1568,Incorrect
2,new_learn,54,231,A,55.746741500482315,79.80979666196976,2.7873370750241158,1.253649354388697,B,617,Incorrect
2,new_learn,54,232,B,51.58888330678299,35.39311489496137,2.579444165339149,0.5559537487083506,B,530,Correct
2,new_learn,54,233,B,76.13012852519012,49.23745534687774,3.8065064262595056,0.7734201399960329,B,598,Correct
2,new_learn,54,234,A,67.43845732666327,79.53883197563054,3.3719228663331635,1.2493930510487692,B,514,Incorrect
2,new_learn,54,235,B,56.0341367349059,47.32179807796947,2.801706836745295,0.7433290659820424,B,581,Correct
2,new_learn,54,236,A,57.5724333908271,71.34250024219807,2.8786216695413547,1.1206453732480874,B,609,Incorrect
2,new_learn,54,237,B,55.035455498444065,26.96778563571041,2.7517727749222036,0.42360898618366083,B,610,Correct
2,new_learn,54,238,A,32.130119115676514,48.17794908429989,1.6065059557838257,0.7567774545412982,A,2015,Correct
2,new_learn,54,239,B,62.52848745228441,49.49892137492831,3.1264243726142205,0.7775272387604678,B,751,Correct
2,new_learn,54,240,B,70.6532037403233,48.59551170256102,3.532660187016165,0.7633365128110126,B,690,Correct
2,new_learn,54,241,A,21.529485030162423,37.03726774567808,1.0764742515081211,0.5817800412943022,A,487,Correct
2,new_learn,54,242,B,44.94627644889489,15.91718117771119,2.2473138224447444,0.250026497268776,B,1138,Correct
2,new_learn,54,243,B,74.13107101726712,61.76482993478125,3.706553550863356,0.9701996798666584,B,2251,Correct
2,new_learn,54,244,B,51.13062006781659,42.43913061929698,2.556531003390829,0.6666323048916052,B,2124,Correct
2,new_learn,54,245,A,39.1131245279412,52.46584891601294,1.9556562263970603,0.8241316275944912,A,878,Correct
2,new_learn,54,246,B,49.87512529651508,22.921728794867818,2.493756264825754,0.3600536739476717,B,1121,Correct
2,new_learn,54,247,A,61.20378201034929,83.32051007924424,3.0601891005174644,1.3087955117915402,A,2154,Correct
2,new_learn,54,248,A,20.775779194376735,51.90296654287371,1.038788959718837,0.8152898919530444,A,659,Correct
2,new_learn,54,249,B,79.58955428248004,55.49689480373519,3.979477714124002,0.8717431850623001,B,932,Correct
2,new_learn,54,250,B,44.90376785859557,23.392328296911664,2.2451883929297787,0.36744583363969163,B,857,Correct
2,new_learn,54,251,A,52.92585117607599,77.20844467334665,2.6462925588037995,1.2127874129043994,B,1074,Incorrect
2,new_learn,54,252,A,31.545517458789448,48.239925487548476,1.5772758729394725,0.7577509776070065,A,680,Correct
2,new_learn,54,253,B,59.62698553898576,43.002088653503996,2.9813492769492878,0.6754752290143258,B,588,Correct
2,new_learn,54,254,A,17.42295518394365,33.51035283543305,0.8711477591971826,0.5263793914349919,A,615,Correct
2,new_learn,54,255,B,68.11870767023231,43.85715138181873,3.4059353835116157,0.6889065229424859,B,607,Correct
2,new_learn,54,256,B,78.00076395741759,60.25652120861814,3.900038197870879,0.9465072217993616,B,612,Correct
2,new_learn,54,257,A,22.23787142148422,39.26588383397346,1.1118935710742108,0.6167870609476063,A,538,Correct
2,new_learn,54,258,A,33.69707338559423,43.49007783680106,1.6848536692797114,0.6831405451807124,A,1073,Correct
2,new_learn,54,259,A,55.06027513091548,82.14289986084118,2.7530137565457737,1.2902976537369035,B,505,Incorrect
2,new_learn,54,260,B,40.09552426039182,25.790734526759735,2.004776213019591,0.40511991059976515,B,415,Correct
2,new_learn,54,261,A,19.38541665461012,44.568978861432825,0.9692708327305058,0.7000878828453808,A,752,Correct
2,new_learn,54,262,A,45.05804861413445,73.54751841601828,2.2529024307067225,1.1552817177276151,A,1521,Correct
2,new_learn,54,263,B,59.63446752837452,31.774417057652144,2.981723376418726,0.49911137600209093,B,491,Correct
2,new_learn,54,264,B,63.87683047788497,55.99077576610907,3.1938415238942484,0.8795010490780083,B,826,Correct
2,new_learn,54,265,B,65.51819402679106,46.989058658846886,3.2759097013395535,0.7381024074086662,B,555,Correct
2,new_learn,54,266,B,69.36197448990775,45.02188720569609,3.4680987244953876,0.7072021504808157,B,564,Correct
2,new_learn,54,267,A,17.708539431848134,39.42245383823497,0.8854269715924068,0.6192464568234086,A,499,Correct
2,new_learn,54,268,B,55.18517231949059,48.35327819872816,2.759258615974529,0.7595315178305395,B,547,Correct
2,new_learn,54,269,A,48.523020392434105,73.03114172641754,2.426151019621705,1.147170491654942,B,554,Incorrect
2,new_learn,54,270,A,46.238412675426666,75.09704864576919,2.3119206337713334,1.1796216816591192,B,740,Incorrect
2,new_learn,54,271,A,41.549848029324814,50.307693472141885,2.0774924014662406,0.7902314011556408,B,669,Incorrect
2,new_learn,54,272,B,66.79000089597596,55.28751519790493,3.339500044798798,0.8684542579048607,B,496,Correct
2,new_learn,54,273,A,22.495210674039523,43.360269981618984,1.1247605337019762,0.6811015281596211,A,986,Correct
2,new_learn,54,274,A,50.92372587099075,65.3980424848185,2.5461862935495376,1.027270049147295,B,3359,Incorrect
2,new_learn,54,275,A,45.278927253419845,62.55120107318995,2.263946362670992,0.9825519688237575,A,946,Correct
2,new_learn,54,276,A,58.325959079436146,77.48871483289821,2.916297953971807,1.2171898862757373,B,1226,Incorrect
2,new_learn,54,277,B,36.558888363779694,10.834919856122589,1.8279444181889846,0.17019452311114452,B,984,Correct
2,new_learn,54,278,A,38.550989608829234,53.17202088846076,1.9275494804414617,0.8352241509985565,A,2307,Correct
2,new_learn,54,279,B,57.433029261816,35.34831969664734,2.8716514630908,0.5552501073786533,B,615,Correct
2,new_learn,54,280,B,37.763212236352665,15.087534611175421,1.8881606118176333,0.23699443947625223,B,822,Correct
2,new_learn,54,281,B,65.93257745518152,40.029238122141535,3.296628872759076,0.6287778020665817,107,591,Correct
2,new_learn,54,282,A,34.72170698857101,52.97043147001859,1.7360853494285504,0.8320575918184598,A,1322,Correct
2,new_learn,54,283,A,45.893999610441924,76.87601665342439,2.2946999805220964,1.2075656457782231,A,1065,Correct
2,new_learn,54,284,B,66.48985345011042,42.34790328537243,3.3244926725055213,0.6651993092812855,B,567,Correct
2,new_learn,54,285,B,76.54271846715848,60.31355783160977,3.8271359233579236,0.9474031509782418,B,557,Correct
2,new_learn,54,286,B,58.499091021570344,41.52383110318259,2.9249545510785175,0.6522548137133088,B,669,Correct
2,new_learn,54,287,B,67.76245924140568,55.90960343516218,3.388122962070284,0.8782259970851208,B,721,Correct
2,new_learn,54,288,A,60.942256219195144,87.20208637434216,3.0471128109597574,1.3697671696566798,A,1444,Correct
2,new_learn,54,289,A,21.344103290784258,45.60893691608341,1.0672051645392129,0.7164235057680397,A,1209,Correct
2,new_learn,54,290,A,47.94157514653847,73.53908308879785,2.3970787573269234,1.1551492159174837,A,1921,Correct
2,new_learn,54,291,B,41.04726386720765,30.39092240765028,2.0523631933603825,0.4773794928584577,B,1805,Correct
2,new_learn,54,292,A,38.90696488399597,55.37252462703597,1.9453482441997982,0.8697895828950806,A,1680,Correct
2,new_learn,54,293,A,59.694057663470346,85.9441358501304,2.9847028831735174,1.350007329029464,B,1436,Incorrect
2,new_learn,54,294,B,64.90537692316528,43.44040064868352,3.2452688461582637,0.6823602177345072,B,698,Correct
2,new_learn,54,295,B,72.82567366794514,47.58599719341361,3.6412836833972566,0.7474790959828636,B,582,Correct
2,new_learn,54,296,B,75.79760110918555,55.04424853841731,3.7898800554592778,0.8646330341533125,B,563,Correct
2,new_learn,54,297,A,20.054813158420075,46.370964306056294,1.0027406579210036,0.728393404018905,A,640,Correct
2,new_learn,54,298,A,32.2898150841504,57.45196944297512,1.61449075420752,0.9024534256815796,A,1721,Correct
2,new_learn,54,299,A,48.80677765303138,66.90097474928267,2.4403388826515693,1.0508780539517133,B,829,Incorrect
2,new_learn,54,300,A,32.29199877541219,60.21901548347442,1.6145999387706096,0.9459180832464662,B,863,Correct
2,new_learn,54,301,A,13.321011336210429,33.84046653375965,0.6660505668105214,0.5315648052825529,A,624,Incorrect
2,new_learn,54,302,A,36.660872983305,44.23192330460542,1.83304364916525,0.6947934265394776,B,2688,Correct
2,new_learn,54,303,B,81.28010374115442,54.88942368650025,4.064005187057721,0.8622010510664339,B,580,Correct
2,new_learn,54,304,A,35.11111602868587,62.73622283969212,1.7555558014342936,0.9854582839357449,A,933,Correct
2,new_learn,54,305,B,82.97989953257118,55.31247022629754,4.1489949766285585,0.8688462505742025,B,524,Correct
2,new_learn,54,306,B,40.800682788060115,23.92243287464421,2.0400341394030055,0.375772696874886,B,854,Incorrect
2,new_learn,54,307,A,41.50542616787348,71.72097843810715,2.075271308393674,1.1265904948471468,B,1234,Incorrect
2,new_learn,54,308,A,51.17461198283029,79.23984967477658,2.558730599141515,1.2446966480491883,B,642,Incorrect
2,new_learn,54,309,A,47.801075134776426,62.62517518454646,2.3900537567388214,0.9837139514477247,B,1135,Correct
2,new_learn,54,310,B,36.58852930273339,18.588556597008164,1.8294264651366694,0.2919883642299947,B,1909,Correct
2,new_learn,54,311,B,63.90229369363623,35.48481971476251,3.1951146846818115,0.5573942446492808,B,764,Correct
2,new_learn,54,312,B,79.58884070265174,52.105294013689814,3.9794420351325868,0.8184680444327207,B,754,Correct
2,new_learn,54,313,B,74.785743003932,42.954244903857195,3.7392871501966,0.6747237011522729,B,531,Correct
2,new_learn,54,314,B,86.37523303566479,63.07570626676605,4.318761651783239,0.9907908771382994,B,591,Incorrect
2,new_learn,54,315,A,16.32126242016804,33.03857202915921,0.816063121008402,0.5189686758595191,A,2862,Incorrect
2,new_learn,54,316,B,43.36898490963504,26.092570711351485,2.1684492454817517,0.40986114230027015,B,1053,Correct
2,new_learn,54,317,B,47.70707224804927,35.55925205309117,2.3853536124024632,0.558563425085695,B,449,Incorrect
2,new_learn,54,318,B,51.80315950529194,30.511718613234564,2.5901579752645967,0.4792769552186833,B,665,Incorrect
2,new_learn,54,319,A,46.98997356326023,75.61837542393478,2.3494986781630116,1.1878106635411423,A,2884,Correct
2,new_learn,54,320,A,39.65329935108414,70.10513244607115,1.982664967554207,1.101208845357583,A,1660,Incorrect
2,new_learn,54,321,B,65.2999947075248,53.23330098043674,3.26499973537624,0.836186736432372,B,1223,Correct
2,new_learn,54,322,A,53.33992798619397,76.40153732575189,2.6669963993096983,1.2001125419277425,A,1600,Correct
2,new_learn,54,323,A,38.238088450082095,51.46935891546299,1.9119044225041049,0.8084787992689743,B,1159,Correct
2,new_learn,54,324,B,76.44789260046218,62.98033816369494,3.8223946300231093,0.9892928384783245,B,1027,Incorrect
2,new_learn,54,325,B,55.10892405651509,41.25753503292609,2.7554462028257545,0.6480718448233207,B,598,Incorrect
2,new_learn,54,326,B,53.71543878082789,27.20795890454732,2.6857719390413943,0.4273816190684942,B,1860,Correct
2,new_learn,54,327,A,38.97488084069552,48.86321438717776,1.948744042034776,0.7675415767477038,A,925,Correct
2,new_learn,54,328,B,80.07326432742335,52.197508162916456,4.003663216371167,0.8199165409015581,A,1006,Correct
2,new_learn,54,329,B,58.79485624675355,29.967657253562976,2.9397428123376774,0.4707308593654516,B,1060,Correct
2,new_learn,54,330,A,47.68141062963969,54.57787118042212,2.3840705314819846,0.8573071957449211,A,954,Correct
2,new_learn,54,331,A,51.84315313159895,65.46984792882074,2.592157656579948,1.028397966424121,A,827,Correct
2,new_learn,54,332,B,68.05353241774164,40.59065904967435,3.402676620887082,0.637596581374125,B,1009,Incorrect
2,new_learn,54,333,A,26.417183527558763,37.24026226941278,1.320859176377938,0.5849686718167217,B,797,Incorrect
2,new_learn,54,334,B,76.78530006721435,52.092254824592224,3.839265003360717,0.818263225329332,B,1161,Correct
2,new_learn,54,335,B,56.129700826165156,48.550749682560095,2.8064850413082576,0.762633392645039,B,829,Incorrect
2,new_learn,54,336,B,45.41535727179513,23.894694656128383,2.2707678635897564,0.375336985957321,A,1983,Correct
2,new_learn,54,337,B,65.63828932793618,43.071276658825575,3.2819144663968087,0.6765620316604998,A,1385,Correct
2,new_learn,54,338,A,28.810255314404557,55.41037055483577,1.440512765720228,0.8703840653388012,A,1495,Incorrect
2,new_learn,54,339,A,38.47470085220543,59.38977899110101,1.9237350426102717,0.9328924668838217,B,1973,Incorrect
2,new_learn,54,340,A,59.24915445534963,69.46567352369392,2.9624577227674815,1.091164248093519,A,1783,Correct
2,new_learn,54,341,B,77.7202269634522,55.24318097008888,3.88601134817261,0.8677578574828134,A,1072,Incorrect
2,new_learn,54,342,A,53.06392926706252,63.75874518610101,2.653196463353126,1.0015200273937925,B,724,Incorrect
2,new_learn,54,343,A,37.832337073397134,66.43193187290099,1.8916168536698565,1.043510345678417,A,1931,Correct
2,new_learn,54,344,B,44.84860551695513,30.986491985592686,2.242430275847757,0.486734677912285,A,2711,Incorrect
2,new_learn,54,345,B,52.438613348773394,34.98781506318964,2.6219306674386695,0.5495873138383744,B,9799,Correct
2,new_learn,54,346,A,41.33331589687985,48.276872309883345,2.066665794843993,0.75833133693511,A,674,Correct
2,new_learn,54,347,A,47.382175872166314,60.00941633081938,2.3691087936083157,0.9426257074555675,A,952,Incorrect
2,new_learn,54,348,A,21.035094308909038,47.55690393498682,1.0517547154454518,0.7470221001481506,A,1163,Correct
2,new_learn,54,349,A,50.69662011496594,62.67761970555229,2.5348310057482966,0.9845377480572896,B,1114,Incorrect
2,new_learn,54,350,B,39.58870634413357,25.67738365709868,1.9794353172066785,0.40333939930273915,B,823,Incorrect
2,new_learn,54,351,A,64.45821319113661,79.26844798765632,3.2229106595568306,1.2451458692974287,B,1863,Correct
2,new_learn,54,352,A,53.856604978055046,80.23640775939481,2.692830248902752,1.260350545836749,A,1338,Correct
2,new_learn,54,353,A,36.65400567911963,44.50154012602636,1.8327002839559814,0.6990285576667791,A,3169,Correct
2,new_learn,54,354,A,64.27871797222411,82.60521820198247,3.2139358986112057,1.2975597332576498,B,1472,Correct
2,new_learn,54,355,B,63.71840623601334,31.08084257695848,3.1859203118006665,0.48821673353576817,B,731,Correct
2,new_learn,54,356,A,42.5811001249681,65.5210511089717,2.129055006248405,1.0292022640971343,B,1162,Incorrect
2,new_learn,54,357,A,47.22519880067376,66.39413972923676,2.3612599400336878,1.0429167080739221,A,3712,Incorrect
2,new_learn,54,358,A,25.093290898710862,52.24201843574394,1.2546645449355431,0.8206157066321784,B,5287,Correct
2,new_learn,54,359,B,58.43351497289468,40.70292380392498,2.9216757486447342,0.6393600320101793,B,3292,Incorrect
2,new_learn,54,360,A,48.833096746734746,77.19040941792055,2.4416548373367375,1.2125041157746377,A,10612,Incorrect
2,new_learn,54,361,B,73.3604985079078,57.9304553135114,3.66802492539539,0.9099694641601962,B,933,Correct
2,new_learn,54,362,B,75.45427444804632,42.9408277818975,3.7727137224023157,0.6745129454933684,B,1924,Incorrect
2,new_learn,54,363,A,53.60604408835481,64.8592873054344,2.6803022044177403,1.0188073025791125,A,1438,Correct
2,new_learn,54,364,A,68.46161020929458,85.24446027542261,3.423080510464729,1.3390168508024731,A,2067,Incorrect
2,new_learn,54,365,A,12.302356816655838,33.76345428915615,0.6151178408327919,0.5303550997731388,A,989,Incorrect
2,new_learn,54,366,A,66.01278915704782,84.76366549892708,3.3006394578523905,1.3314645441138597,B,4634,Incorrect
2,new_learn,54,367,A,64.13036886601454,79.91301821040004,3.2065184433007268,1.2552707546799005,A,1124,Incorrect
2,new_learn,54,368,A,22.34754813891887,46.00625851297718,1.1173774069459435,0.72266461881761,A,2687,Correct
2,new_learn,54,369,B,52.26079445370945,36.90037549293041,2.6130397226854725,0.5796297428164752,A,1937,Incorrect
2,new_learn,54,370,B,65.86262509980757,49.38487086973738,3.293131254990379,0.7757357376142375,B,1015,Correct
2,new_learn,54,371,B,56.823566250343774,39.69748103673878,2.8411783125171888,0.6235665739551933,107,1052,Correct
2,new_learn,54,372,A,29.44830707886404,58.996752352539914,1.472415353943202,0.9267188188819787,A,773,Incorrect
2,new_learn,54,373,B,58.534800214519095,50.11991880278444,2.926740010725955,0.7872818435467227,B,682,Correct
2,new_learn,54,374,A,30.133899049187427,52.308972521023016,1.5066949524593714,0.8216674189443813,A,1212,Correct
2,new_learn,54,375,A,25.697592041677236,53.95282563286885,1.2848796020838618,0.8474890032431593,A,2385,Correct
2,new_learn,54,376,B,72.37130639812764,49.0625257646017,3.6185653199063825,0.7706723525431634,B,1399,Correct
2,new_learn,54,377,A,64.58632728456263,84.9330853287508,3.2293163642281315,1.334125784577593,B,632,Correct
2,new_learn,54,378,A,18.76263359082946,44.11567546036233,0.938131679541473,0.6929674096721291,A,597,Correct
2,new_learn,54,379,A,63.10224626632461,76.39618860470412,3.155112313316231,1.2000285244139937,B,703,Incorrect
2,new_learn,54,380,B,53.97344075105612,45.84880117176782,2.6986720375528055,0.7201912846856244,B,663,Incorrect
2,new_learn,54,381,B,41.78771855932906,26.370796971758878,2.0893859279664526,0.41423151017892823,B,597,Incorrect
2,new_learn,54,382,A,53.40091273881365,73.88402158462915,2.670045636940683,1.1605674971397033,B,1053,Incorrect
2,new_learn,54,383,A,39.53789116311073,53.79828157290062,1.9768945581555364,0.8450614308258987,A,1768,Correct
2,new_learn,54,384,A,60.155689153301154,82.09474492102159,3.007784457665058,1.289541237711047,A,842,Correct
2,new_learn,54,385,A,43.66778523764168,75.24317063046927,2.183389261882084,1.1819169604274278,A,757,Incorrect
2,new_learn,54,386,A,13.048105576940824,35.76844496788365,0.6524052788470412,0.5618494197071705,A,657,Incorrect
2,new_learn,54,387,A,41.79877243775774,56.83755934676394,2.089938621887887,0.8928022944588374,A,1383,Incorrect
2,new_learn,54,388,A,60.80807433123441,83.61605864840371,3.0404037165617206,1.313437977859792,B,1312,Incorrect
2,new_learn,54,389,B,47.209587073164656,35.82619112759289,2.3604793536582327,0.5627564942627483,B,1449,Correct
2,new_learn,54,390,B,80.97201128316624,51.7923433153171,4.048600564158312,0.8135522263580031,B,777,Correct
2,new_learn,54,391,B,81.3192401404068,63.68876866888999,4.065962007020341,1.000420838831823,A,1355,Incorrect
2,new_learn,54,392,B,48.98530402773165,32.98873280631343,2.4492652013865825,0.5181858031777543,B,768,Correct
2,new_learn,54,393,A,35.39913485773258,48.049625013413326,1.7699567428866287,0.7547617447494184,107,1537,Correct
2,new_learn,54,394,A,41.3510661359878,57.58407765243998,2.06755330679939,0.904528576583248,B,849,Incorrect
2,new_learn,54,395,B,60.32085936291519,47.094757784050934,3.0160429681457597,0.7397627253848258,B,765,Incorrect
2,new_learn,54,396,A,22.841934021415362,33.898244902335435,1.142096701070768,0.5324723857738233,A,1864,Correct
2,new_learn,54,397,A,64.30317865281233,80.74273803591089,3.215158932640617,1.2683039632217141,B,1117,Incorrect
2,new_learn,54,398,B,40.58455814943673,19.0426695358402,2.0292279074718365,0.2991215535926686,B,4549,Incorrect
2,new_learn,54,399,B,70.74997599704409,39.213464315457855,3.5374987998522043,0.6159636570762396,B,753,Incorrect
2,new_learn,54,400,B,62.8806033090303,55.39513410243209,3.144030165451515,0.8701447317041102,A,1269,Correct
2,new_learn,54,401,B,69.78952158994086,54.2277874773108,3.4894760794970434,0.8518080937957411,B,1950,Correct
2,new_learn,54,402,B,68.24514075656542,47.3955916905467,3.412257037828271,0.7444882133378149,B,1459,Correct
2,new_learn,54,403,A,18.73498042209126,49.95690672513361,0.9367490211045632,0.7847212558187514,A,1894,Incorrect
2,new_learn,54,404,A,54.484036984848345,82.96373899032659,2.724201849242417,1.3031913646317554,B,1069,Incorrect
2,new_learn,54,405,B,38.167551086446174,28.919572591806713,1.9083775543223087,0.4542675839968835,B,634,Correct
2,new_learn,54,406,A,58.32395540912685,72.85229327299248,2.916197770456342,1.1443611467180115,A,1831,Correct
2,new_learn,54,407,A,30.354467496056383,44.18601234970817,1.5177233748028192,0.6940722589463554,A,2155,Incorrect
2,new_learn,54,408,A,23.39502351798983,37.754169747243665,1.1697511758994914,0.5930411116016135,A,961,Correct
2,new_learn,54,409,B,50.06021396499296,42.66754939398163,2.503010698249648,0.6702202986140615,A,738,Correct
2,new_learn,54,410,A,50.37854673758002,74.30370805604123,2.518927336879001,1.1671599168166993,A,574,Correct
2,new_learn,54,411,A,36.96170288043906,46.3073074856642,1.8480851440219532,0.7273934850224314,B,940,Correct
2,new_learn,54,412,A,42.24346058633838,54.94426925395139,2.112173029316919,0.8630625632253662,A,635,Incorrect
2,new_learn,54,413,B,74.31199856612756,60.62033488722757,3.7155999283063776,0.952221993699336,B,599,Correct
2,new_learn,54,414,B,56.854634467441215,48.06660071734789,2.8427317233720606,0.75502839848327,B,530,Incorrect
2,new_learn,54,415,A,39.055641756300204,69.22141449901727,1.9527820878150102,1.0873274363060335,A,1247,Incorrect
2,new_learn,54,416,A,31.837737249641535,61.230825056518725,1.5918868624820766,0.9618115508540053,B,2277,Incorrect
2,new_learn,54,417,B,78.39614436163352,47.44279938107784,3.919807218081676,0.7452297500066426,B,717,Incorrect
2,new_learn,54,418,A,53.05853494236861,62.77769109035948,2.6529267471184306,0.9861096656940137,A,1263,Incorrect
2,new_learn,54,419,B,80.68555796155104,67.81458344364657,4.034277898077551,1.0652289857640604,B,744,Correct
2,new_learn,54,420,A,48.89036463569129,77.61514974687503,2.444518231784565,1.2191759212602715,A,1205,Correct
2,new_learn,54,421,A,63.460018166519504,84.80938814102805,3.173000908325975,1.3321827536964954,A,829,Correct
2,new_learn,54,422,A,20.093534906886273,41.73999923764528,1.0046767453443137,0.6556503748291499,A,2017,Correct
2,new_learn,54,423,B,74.73341064976975,61.3376063618607,3.7366705324884877,0.9634888676760206,A,740,Incorrect
2,new_learn,54,424,A,55.50405578378404,82.86066449980659,2.775202789189202,1.3015722743208047,A,993,Incorrect
2,new_learn,54,425,A,51.51164299487516,65.96777952779992,2.575582149743758,1.0362194576908368,A,1565,Correct
2,new_learn,54,426,A,63.249535480516755,73.12179156050894,3.162476774025838,1.1485944159190953,B,1468,Incorrect
2,new_learn,54,427,A,43.37660969320927,63.696463939096276,2.1688304846604636,1.0005417158535603,A,904,Incorrect
2,new_learn,54,428,B,67.80544601112226,36.36103995710862,3.3902723005561133,0.5711578800306869,B,1219,Incorrect
2,new_learn,54,429,B,61.8012406183525,39.83931727392382,3.0900620309176254,0.6257945323589601,B,1191,Correct
2,new_learn,54,430,A,43.08282289304863,61.35758933790863,2.1541411446524314,0.9638027595297658,A,756,Correct
2,new_learn,54,431,B,68.65489778127099,36.64959280963932,3.432744889063549,0.575690457639101,B,871,Correct
2,new_learn,54,432,A,56.34398208895827,72.3605965978661,2.817199104447914,1.1366375934061534,A,1137,Correct
2,new_learn,54,433,B,42.207889678818184,32.7610749293692,2.1103944839409094,0.5146097616090551,B,510,Correct
2,new_learn,54,434,A,29.396810303227824,41.31090618575984,1.4698405151613911,0.6489101969316012,A,1655,Correct
2,new_learn,54,435,A,16.21376119536096,37.681144975311774,0.8106880597680479,0.5918940411664572,107,1017,Incorrect
2,new_learn,54,436,A,34.29549627131414,44.11978162049239,1.714774813565707,0.6930319090846244,B,811,Incorrect
2,new_learn,54,437,A,27.914820236225196,46.8592386720251,1.3957410118112596,0.7360631998242241,A,948,Incorrect
2,new_learn,54,438,A,52.341137779196856,71.67428021890684,2.617056888959843,1.1258569609352698,A,1709,Correct
2,new_learn,54,439,A,63.30933065389362,87.90139750241136,3.165466532694681,1.3807519231692587,B,824,Correct
2,new_learn,54,440,A,23.3811584456389,40.145111550124625,1.169057922281945,0.6305979376170714,A,858,Correct
2,new_learn,54,441,A,45.58648118027123,65.72741674918726,2.2793240590135615,1.032443847993407,A,3552,Incorrect
2,new_learn,54,442,B,55.87365372606674,48.325916405236995,2.7936826863033373,0.7591017197834352,A,3412,Correct
2,new_learn,54,443,B,54.796908048840784,26.408741452499,2.739845402442039,0.4148275406886155,B,1066,Incorrect
2,new_learn,54,444,A,34.711476226909355,61.39100917941424,1.7355738113454677,0.9643277171725567,A,6552,Correct
2,new_learn,54,445,A,57.9820155056309,76.37723371278416,2.899100775281545,1.199730781667967,B,12930,Correct
2,new_learn,54,446,B,49.99937725830285,36.50329919824857,2.4999688629151424,0.5733924829650395,A,6024,Incorrect
2,new_learn,54,447,A,41.20640651361404,49.19259842425581,2.060320325680702,0.7727155291031745,A,12089,Correct
2,new_learn,54,448,A,27.362468731224865,59.48811667748312,1.3681234365612431,0.9344371516493671,A,3669,Incorrect
2,new_learn,54,449,A,35.377673482842006,55.59674657720416,1.7688836741421001,0.8733116530521904,A,4789,Incorrect
2,new_learn,54,450,B,80.82075679579685,57.53353468250337,4.041037839789842,0.9037346494680308,B,1080,Correct
2,new_learn,54,451,B,34.289158453962315,18.053977135645987,1.7144579226981158,0.28359120968711765,B,1290,Correct
2,new_learn,54,452,B,55.05332026073576,26.058859667601457,2.7526660130367877,0.40933161046332045,B,1327,Correct
2,new_learn,54,453,B,62.063946665042565,51.822857649776054,3.1031973332521283,0.8140315444028303,B,932,Correct
2,new_learn,54,454,B,59.39308074896675,32.389257466438586,2.969654037448338,0.508769266558959,B,513,Correct
2,new_learn,54,455,B,55.44982084631352,38.91983289480854,2.7724910423156763,0.6113513055063644,B,479,Correct
2,new_learn,54,456,B,59.55689562290571,46.75363111053374,2.9778447811452855,0.7344043201274999,B,649,Incorrect
2,new_learn,54,457,A,39.75281120949945,53.5017330528641,1.9876405604749723,0.8404032575660003,A,773,Incorrect
2,new_learn,54,458,A,25.976561690605067,53.9664322339246,1.2988280845302536,0.8477027352327446,B,873,Correct
2,new_learn,54,459,A,20.35401198660963,42.02625044217059,1.0177005993304815,0.6601467982352396,A,1074,Incorrect
2,new_learn,54,460,B,74.94738867889852,49.578734032724846,3.7473694339449257,0.7787809330574532,B,979,Correct
2,new_learn,54,461,A,49.97580066714781,66.7608974768553,2.4987900333573903,1.04867772530175,B,835,Correct
2,new_learn,54,462,A,31.133643078161676,59.774198077371196,1.5566821539080837,0.9389309077704524,A,1379,Correct
2,new_learn,54,463,B,67.32040763307184,46.95448708982609,3.366020381653592,0.7375593584723722,B,693,Correct
2,new_learn,54,464,A,36.345700523736106,66.06060800597754,1.8172850261868052,1.0376776040162705,A,717,Incorrect
2,new_learn,54,465,A,42.395060188047,53.47387704982758,2.1197530094023502,0.8399656964935107,A,680,Correct
2,new_learn,54,466,B,59.93110090069134,45.65581806925698,2.996555045034567,0.7171599132000493,B,1039,Incorrect
2,new_learn,54,467,B,45.459778237797835,21.682929463371874,2.2729889118898914,0.34059465955217383,A,1424,Correct
2,new_learn,54,468,B,77.29817788025355,56.5754146923498,3.8649088940126775,0.8886845358564108,A,1925,Correct
2,new_learn,54,469,A,36.88726205500409,46.92215579234735,1.8443631027502048,0.7370514996391709,B,2310,Incorrect
2,new_learn,54,470,B,59.70797649681263,51.29409022067271,2.9853988248406313,0.8057256850491873,A,1089,Incorrect
2,new_learn,54,471,A,44.09169177648987,53.13136276498301,2.2045845888244937,0.8345854946884245,A,4734,Incorrect
2,new_learn,54,472,A,15.995492336478307,32.983295317068894,0.7997746168239154,0.5181003912964314,B,2477,Correct
2,new_learn,54,473,A,45.26269082040636,51.90921452554244,2.2631345410203183,0.8153880350353034,A,7607,Incorrect
2,new_learn,54,474,A,19.61828218433344,37.336447226339445,0.980914109216672,0.5864795415870551,B,3020,Correct
2,new_learn,54,475,A,17.57585646544098,46.40967509500042,0.878792823272049,0.7290014716697126,A,1189,Correct
2,new_learn,54,476,B,65.27928869021274,38.4066282529689,3.263964434510637,0.6032899058434065,A,3668,Incorrect
2,new_learn,54,477,A,44.69423539876411,74.19820758571909,2.2347117699382055,1.1655027193041276,A,1047,Correct
2,new_learn,54,478,A,40.09043484922272,55.903946123175274,2.004521742461136,0.8781371322362351,B,578,Incorrect
2,new_learn,54,479,B,61.218773513934934,32.39061432441311,3.0609386756967467,0.5087905800341826,B,950,Correct
2,new_learn,54,480,B,84.85825347290594,62.756892514178986,4.242912673645297,0.9857829624233451,B,1860,Correct
2,new_learn,54,481,A,38.66712534975683,55.085965235621046,1.9333562674878413,0.865288318500649,A,718,Correct
2,new_learn,54,482,A,30.36870783800586,50.36089622310405,1.518435391900293,0.7910671080135082,A,752,Incorrect
2,new_learn,54,483,A,38.29234643472034,51.549294243458185,1.9146173217360172,0.8097344204649343,A,621,Correct
2,new_learn,54,484,A,21.250542946865572,38.19120340438805,1.0625271473432787,0.599906020234895,B,634,Correct
2,new_learn,54,485,B,53.4146731861324,31.304510422891433,2.6707336593066198,0.49173009984390414,B,882,Correct
2,new_learn,54,486,A,24.468479622782482,52.162180195872885,1.223423981139124,0.8193616104929061,A,905,Incorrect
2,new_learn,54,487,B,49.568921253483424,37.64460498243288,2.4784460626741716,0.5913200723005043,B,649,Correct
2,new_learn,54,488,A,66.29838742515291,80.58662665626481,3.3149193712576452,1.2658517714045245,B,768,Correct
2,new_learn,54,489,A,16.952550038693648,42.78057503806939,0.8476275019346824,0.6719957012797283,A,600,Correct
2,new_learn,54,490,B,79.33404636852752,52.91917590790564,3.9667023184263766,0.8312524713315115,B,1085,Incorrect
2,new_learn,54,491,B,57.12956672396507,41.706836532126694,2.8564783361982533,0.6551294562689981,A,1503,Correct
2,new_learn,54,492,B,87.13493760588723,62.841782293320364,4.356746880294361,0.987116407955922,B,465,Correct
2,new_learn,54,493,A,53.09958512613548,67.0797725134603,2.654979256306774,1.053686602663807,A,668,Incorrect
2,new_learn,54,494,A,64.12814892492504,78.63689034562337,3.206407446246252,1.2352253850547825,B,969,Correct
2,new_learn,54,495,B,37.76846606581891,19.559611722910372,1.8884233032909459,0.3072416624788201,B,634,Correct
2,new_learn,54,496,B,80.95368930291222,59.926755963867194,4.047684465145611,0.9413272814477674,B,1229,Incorrect
2,new_learn,54,497,B,64.90482960322286,35.00459851678077,3.2452414801611433,0.5498509477108932,B,1490,Correct
2,new_learn,54,498,B,51.671191164839726,34.249832472841604,2.5835595582419866,0.5379951104168016,B,919,Incorrect
2,new_learn,54,499,A,40.107870084540146,57.97371943823558,2.005393504227007,0.9106490554421834,A,1018,Correct
2,new_learn,54,500,B,63.24604159863675,43.100003646536244,3.1623020799318375,0.6770132741282578,B,1432,Correct
2,new_learn,54,501,A,26.91545507099018,56.05425437801922,1.345772753549509,0.8804981687821934,A,602,Correct
2,new_learn,54,502,B,85.21733203540785,62.66132929453278,4.260866601770392,0.9842818588793754,B,716,Incorrect
2,new_learn,54,503,A,33.57647940714733,51.02088372215133,1.6788239703573666,0.8014341674058484,A,951,Incorrect
2,new_learn,54,504,A,33.48081870275303,42.612290727055466,1.6740409351376513,0.6693522975037496,B,4389,Incorrect
2,new_learn,54,505,B,35.912894475242545,11.949597444369076,1.7956447237621274,0.18770383772292626,A,1160,Correct
2,new_learn,54,506,B,63.3100172666626,53.88662410164988,3.16550086333313,0.8464491120224896,B,1796,Incorrect
2,new_learn,54,507,B,65.97793967317729,40.75873392164267,3.298896983658864,0.6402366952892685,B,587,Correct
2,new_learn,54,508,A,10.48882273323309,33.89167789174296,0.5244411366616545,0.5323692314126565,A,712,Incorrect
2,new_learn,54,509,A,62.545845234743865,72.87011250146598,3.1272922617371934,1.1446410505043365,A,1683,Correct
2,new_learn,54,510,A,18.62057501821799,43.25852886765525,0.9310287509108995,0.6795033824786387,A,694,Correct
2,new_learn,54,511,B,70.54500628872961,41.894089077367866,3.5272503144364804,0.6580708123714764,B,974,Correct
2,new_learn,54,512,B,76.15674398969891,45.75492720750473,3.807837199484945,0.718716715903163,B,1557,Correct
2,new_learn,54,513,A,28.567578806169784,49.19476121760929,1.4283789403084892,0.772749502181727,B,971,Correct
2,new_learn,54,514,A,62.27236588317204,80.15263717484592,3.113618294158602,1.2590346805717203,A,752,Incorrect
2,new_learn,54,515,A,49.30584380174617,56.14641311783404,2.4652921900873084,0.881945794882025,B,955,Incorrect
2,new_learn,54,516,B,58.025570301393735,27.503937574524258,2.901278515069687,0.43203084114458845,A,1486,Incorrect
2,new_learn,54,517,B,72.71718463969947,49.580286221170105,3.635859231984973,0.7788053147765361,B,819,Correct
2,new_learn,54,518,B,59.217598906541895,26.804643245575004,2.9608799453270946,0.4210463515119685,B,521,Correct
2,new_learn,54,519,B,78.54961125315843,65.92749117343152,3.9274805626579217,1.0355866097002921,A,945,Incorrect
2,new_learn,54,520,A,32.83737902387285,56.33144326913934,1.6418689511936424,0.8848522417021919,A,4196,Correct
2,new_learn,54,521,A,50.8607059310623,67.4285723871558,2.5430352965531147,1.059165538267681,A,858,Correct
2,new_learn,54,522,B,82.7778934945076,62.36400069179197,4.138894674725379,0.9796114321090121,B,569,Correct
2,new_learn,54,523,B,47.65877935857293,24.219240122640237,2.3829389679286463,0.3804349342240687,A,1116,Incorrect
2,new_learn,54,524,A,38.55580635939292,67.40835946328905,1.927790317969646,1.0588480344020443,A,818,Correct
2,new_learn,54,525,B,57.37541905367966,44.9078019882128,2.868770952683983,0.7054101040751724,B,905,Incorrect
2,new_learn,54,526,A,54.82896688309992,73.4701034504626,2.7414483441549966,1.154065686292277,A,1246,Correct
2,new_learn,54,527,B,60.189451366110724,31.936038400459392,3.009472568305536,0.5016501181182238,B,2927,Incorrect
2,new_learn,54,528,B,57.85534167704779,29.15650002451612,2.8927670838523896,0.4579892314070524,A,739,Incorrect
2,new_learn,54,529,B,57.330223553668795,41.84983761052699,2.8665111776834395,0.657375711955787,B,431,Incorrect
2,new_learn,54,530,B,50.71410644566945,43.346749071422806,2.5357053222834725,0.6808891421989104,B,583,Incorrect
2,new_learn,54,531,A,59.81228687217093,69.26720064341926,2.990614343608547,1.0880466433804807,B,582,Correct
2,new_learn,54,532,B,56.00143492280278,27.23804671585425,2.800071746140139,0.42785423730331656,A,675,Incorrect
2,new_learn,54,533,A,51.80465174471177,65.83577017730337,2.5902325872355885,1.0341458596622113,A,3233,Incorrect
2,new_learn,54,534,B,70.67356842906318,41.041780591628054,3.5336784214531587,0.6446827819845142,B,504,Correct
2,new_learn,54,535,B,39.6082232769937,28.915248233802764,1.9804111638496849,0.4541996571402,A,680,Incorrect
2,new_learn,54,536,A,54.396727049727644,75.91281816768219,2.7198363524863822,1.1924357593444408,A,1026,Correct
2,new_learn,54,537,A,67.01704461542808,86.29224467614016,3.3508522307714035,1.3554754096816741,A,906,Correct
2,new_learn,54,538,B,54.21699324722658,28.725656448158187,2.710849662361329,0.45122155633539013,B,1184,Incorrect
2,new_learn,54,539,B,33.47382586622785,15.430599880252878,1.6736912933113925,0.24238329612142992,B,546,Correct
2,new_learn,54,540,B,57.377216327341436,49.82578217980818,2.8688608163670715,0.782661556277253,B,1825,Correct
2,new_learn,54,541,B,77.02515510740913,65.71962539635257,3.851257755370457,1.0323214617092722,B,656,Incorrect
2,new_learn,54,542,B,38.10637575860704,19.403421157344816,1.905318787930352,0.3047882268121162,B,825,Correct
2,new_learn,54,543,A,33.13487549382033,50.90208487239135,1.6567437746910167,0.799568079437544,A,814,Correct
2,new_learn,54,544,A,36.136859027711246,62.5845761028989,1.8068429513855622,0.9830762225644926,A,972,Correct
2,new_learn,54,545,A,67.056037211323,88.15714043594019,3.35280186056615,1.3847691237751671,B,1495,Correct
2,new_learn,54,546,A,51.21144186273385,69.31540825971358,2.5605720931366927,1.0888038868464671,A,2468,Incorrect
2,new_learn,54,547,B,64.78596660460391,52.35135326789699,3.239298330230196,0.8223331341595459,A,2879,Correct
2,new_learn,54,548,B,56.84125806965297,34.97446786807348,2.8420629034826486,0.5493776565877596,A,3326,Incorrect
2,new_learn,54,549,A,55.617591551533934,65.65893438604044,2.7808795775766963,1.0313681295485946,A,1192,Correct
2,new_learn,54,550,B,70.85383165744877,53.2837786952364,3.5426915828724383,0.8369796385222951,A,1336,Correct
2,new_learn,54,551,B,53.456723209933216,36.199485673113735,2.6728361604966606,0.5686201912719153,A,1073,Correct
2,new_learn,54,552,B,75.26022784610592,64.25037041817416,3.763011392305296,1.0092424584807944,A,2042,Correct
2,new_learn,54,553,B,80.98973148750825,67.46438892906852,4.049486574375413,1.059728143192431,A,1136,Incorrect
2,new_learn,54,554,B,42.751533103382975,28.664406267144862,2.137576655169149,0.4502594407418776,A,1135,Incorrect
2,new_learn,54,555,A,39.658254709437486,57.24939875842747,1.982912735471874,0.8992714528095418,A,967,Correct
2,new_learn,54,556,B,79.46163086566085,47.85458999219653,3.973081543283042,0.7516981418001814,B,993,Correct
2,new_learn,54,557,B,67.29721141642679,39.21783561294862,3.3648605708213393,0.6160323212566576,A,1526,Incorrect
2,new_learn,54,558,B,64.1330426192081,45.7116249051977,3.206652130960405,0.7180365249291066,A,956,Incorrect
2,new_learn,54,559,B,33.060537154526045,18.51342697386527,1.6530268577263023,0.2908082308693313,A,1081,Incorrect
2,new_learn,54,560,B,87.3861759031086,60.48476105429769,4.36930879515543,0.9500924049115783,B,739,Correct
2,new_learn,54,561,A,14.481009795665418,36.23849061921601,0.7240504897832709,0.5692328795325582,A,640,Incorrect
2,new_learn,54,562,A,46.79360248272832,71.81088656395904,2.339680124136416,1.1280027683855187,A,650,Correct
2,new_learn,54,563,A,56.237168047786824,79.76883393618522,2.8118584023893414,1.2530059133967182,A,747,Incorrect
2,new_learn,54,564,B,70.28296084542376,39.7856467123195,3.514148042271188,0.6249514771487091,B,980,Incorrect
2,new_learn,54,565,A,23.98450744033388,50.64986516909634,1.199225372016694,0.7956062216027331,A,584,Correct
2,new_learn,54,566,A,61.99752100792774,85.83819664771798,3.099876050396387,1.348343239929334,A,1376,Incorrect
2,new_learn,54,567,A,25.85629562568976,40.97275984395364,1.2928147812844881,0.6435986066153181,A,818,Correct
2,new_learn,54,568,B,66.40690522422481,57.35218597502133,3.3203452612112407,0.9008860306322128,B,783,Correct
2,new_learn,54,569,B,72.44499796886933,54.78254447050551,3.6222498984434663,0.8605221962674814,B,465,Correct
2,new_learn,54,570,B,85.83944554312362,67.41023857839369,4.29197227715618,1.0588775514730844,A,1346,Incorrect
2,new_learn,54,571,B,38.83967547597288,24.602208800433807,1.941983773798644,0.38645059214762495,B,525,Correct
2,new_learn,54,572,B,54.36927490340884,37.88344123872168,2.7184637451704416,0.5950717034413433,B,822,Correct
2,new_learn,54,573,B,38.943894659237344,20.661759384349576,1.9471947329618673,0.32455415746056304,B,609,Incorrect
2,new_learn,54,574,A,26.87548638183548,45.01808447087683,1.3437743190917741,0.707142417261957,A,595,Correct
2,new_learn,54,575,B,52.94963274477696,23.942843413512826,2.6474816372388483,0.3760933048697132,B,837,Correct
2,new_learn,54,576,B,66.78529205377274,35.73037981282053,3.3392646026886372,0.5612514936496502,B,621,Correct
2,new_learn,54,577,B,72.47287353839232,42.06074093291026,3.623643676919616,0.6606885735968717,B,687,Correct
2,new_learn,54,578,B,56.596595692379914,40.213254817114674,2.8298297846189957,0.6316683295519091,B,525,Correct
2,new_learn,54,579,B,34.78931650905821,17.691974647048706,1.7394658254529105,0.27790488789332546,A,808,Correct
2,new_learn,54,580,A,19.30976463611269,42.84125911870107,0.9654882318056345,0.67294892458924,A,713,Correct
2,new_learn,54,581,B,52.19404575905306,28.95635622038297,2.6097022879526532,0.4548453798834212,B,1052,Incorrect
2,new_learn,54,582,A,14.170767782210827,38.278997871071454,0.7085383891105415,0.601285092492687,A,564,Correct
2,new_learn,54,583,B,64.62031076444956,52.03571034914896,3.2310155382224774,0.8173750267860638,B,794,Incorrect
2,new_learn,54,584,B,55.18891011412029,37.01430081020039,2.7594455057060143,0.5814192775154413,B,918,Incorrect
2,new_learn,54,585,B,39.38318873697183,19.390105112807824,1.9691594368485914,0.3045790588736547,B,1288,Correct
2,new_learn,54,586,A,63.09775391311927,86.77899729345333,3.1548876956559635,1.3631213019150075,A,906,Incorrect
2,new_learn,54,587,B,56.992235277355825,27.956392204538652,2.849611763867791,0.4391379818532679,B,1354,Correct
2,new_learn,54,588,A,11.791259653406339,35.30971655803343,0.589562982670317,0.5546437306952785,A,645,Correct
2,new_learn,54,589,B,56.149341631560524,28.60390273966567,2.8074670815780265,0.44930905355465317,B,1173,Correct
2,new_learn,54,590,B,71.3810766808185,49.22696853291824,3.569053834040925,0.7732554135075593,B,931,Correct
2,new_learn,54,591,B,42.01507050688453,18.58459050297562,2.100753525344226,0.29192606497061424,B,1059,Correct
2,new_learn,54,592,A,29.94727072197508,40.188896289850945,1.497363536098754,0.6312857067003891,A,1223,Correct
2,new_learn,54,593,B,41.34791523649978,29.312184332310167,2.0673957618249887,0.46043471479527726,A,1861,Correct
2,new_learn,54,594,B,63.43557721774303,44.18290504087324,3.171778860887151,0.694023449453314,B,732,Correct
2,new_learn,54,595,A,36.68173352235795,51.9525045645686,1.8340866761178976,0.8160680333781944,B,1366,Incorrect
2,new_learn,54,596,A,64.4619312520123,82.54768180879815,3.223096562600615,1.2966559537069404,B,488,Incorrect
2,new_learn,54,597,A,45.75886365091619,59.88852688284529,2.2879431825458094,0.940726780447308,A,1428,Incorrect
2,new_learn,54,598,B,69.95328971376729,57.19386822725542,3.4976644856883645,0.8983991812656416,B,820,Correct
2,new_learn,54,599,A,36.76726010991176,51.48321685099606,1.8383630054955882,0.8086964792112972,A,11121,Correct
2,new_learn,54,600,A,36.23849061921601,85.51899020433459,1.8119245309608005,1.3433291568417751,A,1017,Correct
2,new_learn,54,601,A,39.26588383397346,77.76212857851579,1.9632941916986733,1.2214846593488506,A,1667,Correct
2,new_learn,54,602,A,46.73552217602111,80.93399197498874,2.3367761088010552,1.2713081730715994,A,765,Correct
2,new_learn,54,603,B,60.10698403741738,23.80128190294063,3.0053492018708687,0.37386966186148984,B,653,Correct
2,new_learn,54,604,B,51.822857649776054,37.936053334957435,2.5911428824888025,0.5958981323164643,B,877,Correct
2,new_learn,54,605,B,50.40419635324189,24.870629081580077,2.520209817662095,0.39066692806424314,B,803,Correct
2,new_learn,54,606,A,76.39618860470412,36.89775373367539,3.819809430235206,0.5795885603183998,B,630,Incorrect
2,new_learn,54,607,B,39.40297076971256,33.70064939861474,1.970148538485628,0.5293685628594668,B,1431,Correct
2,new_learn,54,608,B,15.087534611175421,62.236787763647335,0.754376730558771,0.9776131761065081,A,577,Incorrect
2,new_learn,54,609,A,79.26844798765632,35.54178680886339,3.9634223993828157,0.5582890816708992,B,2145,Incorrect
2,new_learn,54,610,A,71.69177820851209,43.28858845022098,3.584588910425605,0.679975557297431,B,1292,Incorrect
2,new_learn,54,611,A,43.578158603659396,83.97138798563434,2.17890793018297,1.3190194780370352,A,991,Correct
2,new_learn,54,612,A,66.98177148474517,64.53465390237837,3.3490885742372587,1.0137079730083587,A,1081,Correct
2,new_learn,54,613,A,61.230825056518725,68.16226275035847,3.0615412528259363,1.0706903195429167,A,498,Correct
2,new_learn,54,614,A,65.3980424848185,49.07627412900925,3.269902124240925,0.7708883113462713,B,779,Incorrect
2,new_learn,54,615,A,43.687857323666975,79.75451305339298,2.184392866183349,1.2527809614958532,A,653,Correct
2,new_learn,54,616,B,61.19801280134111,26.202950358940797,3.0599006400670556,0.41159498175013215,B,839,Correct
2,new_learn,54,617,B,40.96005671409086,27.842159166715277,2.048002835704543,0.4373436134911522,B,765,Correct
2,new_learn,54,618,B,16.846684387202956,67.03706372500687,0.8423342193601477,1.053015734583562,A,747,Incorrect
2,new_learn,54,619,A,52.566311736216655,61.59148772467603,2.6283155868108325,0.9674768267975407,B,6390,Incorrect
2,new_learn,54,620,A,37.03726774567808,78.47051496983758,1.851863387283904,1.232611966763248,A,7971,Correct
2,new_learn,54,621,B,52.831863784314514,34.47087696855971,2.6415931892157256,0.5414672692361239,B,2032,Correct
2,new_learn,54,622,A,67.40835946328905,61.44419364060708,3.3704179731644524,0.9651631367353996,B,1102,Incorrect
2,new_learn,54,623,A,58.055152027809626,61.81540480296902,2.9027576013904817,0.9709941080384333,A,908,Correct
2,new_learn,54,624,B,41.52383110318259,41.500908978429656,2.0761915551591295,0.6518947538196664,A,1265,Incorrect
2,new_learn,54,625,A,62.5845761028989,63.863140972288754,3.1292288051449453,1.0031598725685584,A,784,Correct
2,new_learn,54,626,B,54.74245258220023,21.033460355319164,2.737122629110012,0.33039282265921427,B,717,Correct
2,new_learn,54,627,B,50.91308876133621,27.33825704454233,2.5456544380668107,0.429428337465418,B,609,Correct
2,new_learn,54,628,A,49.19259842425581,58.79359348638596,2.4596299212127906,0.9235276068748743,A,1200,Correct
2,new_learn,54,629,A,43.25852886765525,81.37942498178201,2.1629264433827626,1.2783050183806401,A,1847,Correct
2,new_learn,54,630,B,58.627365857330844,20.870205578459775,2.9313682928665425,0.3278284226209897,B,927,Correct
2,new_learn,54,631,B,40.679686759558095,47.512709560156594,2.0339843379779046,0.7463278965316674,A,1365,Incorrect
2,new_learn,54,632,B,36.172697979082436,36.502793065907326,1.8086348989541219,0.5733845326568144,B,974,Correct
2,new_learn,54,633,B,37.46483971337094,38.18206423226815,1.873241985668547,0.5997624624549361,B,628,Correct
2,new_learn,54,634,B,24.07776251826325,47.51233354725191,1.2038881259131626,0.7463219901347724,B,825,Correct
2,new_learn,54,635,B,24.945530044012713,54.113044956111466,1.2472765022006356,0.8500057224874701,B,569,Correct
2,new_learn,54,636,B,35.00459851678077,35.095170396777135,1.7502299258390384,0.5512736474749851,B,635,Correct
2,new_learn,54,637,A,51.11493779777446,66.08660658244315,2.5557468898887232,1.0380859887004115,A,787,Correct
2,new_learn,54,638,B,61.63115634107977,26.363202355105827,3.0815578170539886,0.414112214219508,B,715,Correct
2,new_learn,54,639,B,30.09011134919203,42.47518127509815,1.5045055674596015,0.6671985872687155,A,1068,Incorrect
2,new_learn,54,640,B,49.38487086973738,34.13737490019243,2.469243543486869,0.5362286309964256,B,1073,Correct
2,new_learn,54,641,B,22.296808465380995,47.23005410981106,1.1148404232690496,0.7418879551001542,A,746,Incorrect
2,new_learn,54,642,A,76.52268585896904,34.85757554795005,3.8261342929484523,0.5475415163169554,B,651,Incorrect
2,new_learn,54,643,A,55.903946123175274,59.90956515077728,2.7951973061587636,0.941057248787205,A,1455,Correct
2,new_learn,54,644,A,54.94426925395139,57.75653941366162,2.7472134626975695,0.9072375995936434,A,687,Correct
2,new_learn,54,645,B,48.69039613818955,27.081991669556274,2.4345198069094773,0.42540293036828974,B,1422,Correct
2,new_learn,54,646,B,32.64595271476593,48.14823812069319,1.6322976357382968,0.7563107558163089,A,700,Incorrect
2,new_learn,54,647,B,28.46270966291173,53.63162560731695,1.4231354831455867,0.8424436050401258,A,1118,Incorrect
2,new_learn,54,648,B,18.975655816035,50.57982038492889,0.9487827908017501,0.7945059607059193,A,858,Incorrect
2,new_learn,54,649,A,59.98786523063266,53.90635939845462,2.9993932615316328,0.8467591133397805,B,820,Incorrect
2,new_learn,54,650,A,42.325035974765356,73.30056545311827,2.1162517987382676,1.1514025896574709,A,751,Correct
2,new_learn,54,651,B,30.384698534418593,48.43793625794178,1.5192349267209297,0.7608613235150028,B,900,Correct
2,new_learn,54,652,B,41.77158133637626,50.40920171670186,2.088579066818813,0.7918258889325827,A,794,Incorrect
2,new_learn,54,653,A,82.09474492102159,39.844310846698846,4.104737246051079,0.625872971216686,B,682,Incorrect
2,new_learn,54,654,A,45.01808447087683,73.12451361816451,2.2509042235438415,1.148637173900762,A,6343,Correct
2,new_learn,54,655,B,38.93354484207513,38.11400545687685,1.9466772421037564,0.598693397711028,B,1320,Correct
2,new_learn,54,656,A,46.19966578968134,64.01885936024988,2.3099832894840673,1.0056058912867958,A,661,Correct
2,new_learn,54,657,A,77.61514974687503,51.10963536430871,3.8807574873437516,0.8028282749408265,B,697,Incorrect
2,new_learn,54,658,B,21.134595813688634,49.43112005779609,1.0567297906844317,0.7764622181614362,A,714,Incorrect
2,new_learn,54,659,A,83.32051007924424,38.79621798965071,4.166025503962212,0.6094095671167742,B,3528,Incorrect
2,new_learn,54,660,B,39.741396369690726,28.363739132084845,1.9870698184845363,0.44553657242847544,A,824,Incorrect
2,new_learn,54,661,B,28.919572591806713,61.832448913553826,1.4459786295903356,0.9712618363014345,A,618,Incorrect
2,new_learn,54,662,B,43.44040064868352,35.09462307683472,2.172020032434176,0.551265050193434,B,866,Correct
2,new_learn,54,663,A,62.303255196528355,48.69193682367139,3.115162759826418,0.7648511550715218,A,1865,Correct
2,new_learn,54,664,B,31.08084257695848,36.28159376398666,1.554042128847924,0.5699099421473487,A,1923,Incorrect
2,new_learn,54,665,A,75.61837542393478,53.01002643673977,3.7809187711967387,0.832679548101312,B,735,Incorrect
2,new_learn,54,666,A,62.73622283969212,64.88888397131413,3.136811141984606,1.0192722059196047,A,881,Correct
2,new_learn,54,667,A,49.90689966954833,72.56332095682191,2.4953449834774166,1.13982198019015,A,1027,Correct
2,new_learn,54,668,B,23.894694656128383,54.58464272820487,1.194734732806419,0.8574135629687596,A,866,Incorrect
2,new_learn,54,669,B,22.15606271405016,52.15830961194081,1.1078031357025082,0.8193008115026755,A,874,Incorrect
2,new_learn,54,670,A,40.712259356375704,76.82290741713734,2.035612967818785,1.2067314078454374,A,683,Correct
2,new_learn,54,671,B,32.13046181454567,52.171240297572325,1.6065230907272834,0.8195039262376048,B,805,Correct
2,new_learn,54,672,B,30.570911687735588,51.904691756094664,1.5285455843867795,0.8153169915389483,A,1122,Incorrect
2,new_learn,54,673,B,32.7610749293692,57.792110321181816,1.6380537464684601,0.9077963461023781,B,475,Correct
2,new_learn,54,674,B,36.50329919824857,50.00062274169715,1.8251649599124284,0.7854079454011526,B,425,Correct
2,new_learn,54,675,B,32.12614029342072,58.016151763369365,1.6063070146710359,0.9113155808467587,A,856,Incorrect
2,new_learn,54,676,B,43.49346019783066,31.88919308047369,2.174673009891533,0.5009142735526131,B,1223,Correct
2,new_learn,54,677,B,30.986491985592686,55.15139448304487,1.5493245992796343,0.866316078715832,B,628,Correct
2,new_learn,54,678,B,53.2837786952364,29.146168342551235,2.66418893476182,0.45782694172625177,A,139,Incorrect
2,new_learn,54,679,B,42.954244903857195,25.214256996068002,2.1477122451928596,0.39606462272286136,B,401,Correct
2,new_learn,54,680,A,57.655457008526035,74.82920388323397,2.882772850426302,1.1754143859677033,A,716,Correct
2,new_learn,54,681,B,26.092570711351485,56.63101509036496,1.3046285355675742,0.8895579048661163,B,1209,Correct
2,new_learn,54,682,B,55.90960343516218,32.23754075859432,2.795480171758109,0.5063861060850072,B,982,Correct
2,new_learn,54,683,B,40.213254817114674,43.403404307620086,2.0106627408557336,0.6817790805680343,A,763,Incorrect
2,new_learn,54,684,A,79.91301821040004,35.869631133985465,3.995650910520002,0.5634388482875223,B,1015,Incorrect
2,new_learn,54,685,A,54.697356566779874,61.18134303964022,2.734867828338994,0.9610342891504536,A,765,Correct
2,new_learn,54,686,A,86.86219181472028,38.401929242220604,4.343109590736014,0.6032160939551765,A,705,Correct
2,new_learn,54,687,A,60.84105665484343,50.31372318108306,3.0420528327421716,0.7903261156022051,A,709,Correct
2,new_learn,54,688,A,40.756126429597415,77.98578431808647,2.037806321479871,1.2249978354906927,B,901,Incorrect
2,new_learn,54,689,A,64.8592873054344,46.39395591164519,3.24296436527172,0.7287545553149665,A,917,Correct
2,new_learn,54,690,B,21.682929463371874,54.540221762202165,1.0841464731685937,0.8567158000664624,A,853,Incorrect
2,new_learn,54,691,A,70.46693142975337,50.69492619083949,3.5233465714876684,0.7963140384770906,A,974,Correct
2,new_learn,54,692,B,26.989042868869742,45.93762662911537,1.349452143443487,0.7215865517068984,B,811,Correct
2,new_learn,54,693,A,58.255975175224805,50.632474254908445,2.9127987587612405,0.7953330457614736,B,847,Incorrect
2,new_learn,54,694,A,60.21901548347442,67.7080012245878,3.0109507741737214,1.0635547961820688,B,1242,Incorrect
2,new_learn,54,695,B,51.874043783916136,32.08289702908539,2.593702189195807,0.5039569680622622,A,405,Incorrect
2,new_learn,54,696,A,74.76840828920956,38.93806125493201,3.738420414460478,0.6116376359176188,A,718,Correct
2,new_learn,54,697,A,40.2742261369102,79.04542090164765,2.01371130684551,1.2416425680226466,A,940,Correct
2,new_learn,54,698,B,15.759549581448582,59.186346286768895,0.7879774790724291,0.9296969534366735,A,2827,Incorrect
2,new_learn,54,699,B,18.54221301311307,53.27478056418494,0.9271106506556535,0.8368382962102585,B,678,Correct
2,new_learn,54,700,A,52.83429312634636,68.37633307464748,2.6417146563173177,1.0740529283336064,A,1135,Correct
2,new_learn,54,701,A,66.46971479531446,43.15295293966268,3.323485739765723,0.6778449996797516,A,908,Correct
2,new_learn,54,702,A,69.02339171212414,62.83449970060275,3.451169585606207,0.9870020132570182,A,991,Correct
2,new_learn,54,703,B,67.63793281143239,18.021987489184966,3.3818966405716195,0.28308871749555325,A,695,Incorrect
2,new_learn,54,704,A,51.658172693292435,59.7132015095733,2.5829086346646215,0.9379727759240123,B,1510,Incorrect
2,new_learn,54,705,A,38.278997871071454,85.82923221778917,1.9139498935535726,1.348202426993294,B,2136,Incorrect
2,new_learn,54,706,B,49.79694074157278,21.915222213111647,2.489847037078639,0.344243505532497,B,1125,Correct
2,new_learn,54,707,A,59.88852688284529,54.24113634908381,2.9944263441422647,0.8520177773832199,A,2337,Correct
2,new_learn,54,708,B,55.49689480373519,20.410445717519963,2.7748447401867593,0.32060653161326985,A,893,Incorrect
2,new_learn,54,709,A,46.58592774828082,74.12626436761889,2.329296387414041,1.164372637876832,B,1312,Incorrect
2,new_learn,54,710,A,37.698551763968496,77.46564788487379,1.8849275881984249,1.216827551503466,A,2986,Correct
2,new_learn,54,711,B,60.682377324532084,28.564968156886977,3.034118866226604,0.4486974705585125,B,757,Correct
2,new_learn,54,712,B,11.300676845253733,63.324692630157124,0.5650338422626866,0.9947019457886667,A,2376,Incorrect
2,new_learn,54,713,A,51.830369912319185,79.8189316875507,2.591518495615959,1.2537928470349742,B,1139,Incorrect
2,new_learn,54,714,A,48.17794908429989,67.86988088432349,2.4088974542149946,1.066097595931025,A,1224,Correct
2,new_learn,54,715,A,61.33229883183866,62.127664355975014,3.066614941591933,0.9758990696271177,A,1218,Correct
2,new_learn,54,716,A,54.705352749724156,65.80838023681468,2.735267637486208,1.0337156194831036,B,1841,Incorrect
2,new_learn,54,717,B,20.075174749995753,55.22203670637313,1.0037587374997876,0.8674257241650387,A,805,Incorrect
2,new_learn,54,718,A,60.048654566028326,72.49447138662413,3.0024327283014163,1.1387404936704693,A,2414,Correct
2,new_learn,54,719,A,72.47719469843918,43.15021504838131,3.623859734921959,0.6778019929840724,B,903,Incorrect
2,new_learn,54,720,B,18.58459050297562,57.98492949311547,0.9292295251487809,0.9108251425724685,B,943,Correct
2,new_learn,54,721,A,48.239925487548476,68.45448254121055,2.4119962743774237,1.075280497283789,B,2362,Incorrect
2,new_learn,54,722,A,45.48929490272553,66.74064490901338,2.2744647451362767,1.0483595987100074,B,1852,Incorrect
2,new_learn,54,723,B,52.004753302539086,36.35646079269036,2.6002376651269543,0.571085950684207,B,623,Correct
2,new_learn,54,724,A,74.89227364839756,45.94044343335713,3.744613682419878,0.7216307979644612,B,783,Incorrect
2,new_learn,54,725,B,59.926755963867194,19.046310697087776,2.99633779819336,0.2991787488197982,A,1025,Incorrect
2,new_learn,54,726,B,46.781305107158346,22.790733195121845,2.339065255357917,0.3579959998785992,B,4561,Correct
2,new_learn,54,727,A,81.08292123576877,34.83587694718223,4.054146061788439,0.5472006754931287,A,3886,Correct
2,new_learn,54,728,A,69.26720064341926,40.18771312782907,3.4633600321709626,0.6312671216348096,A,671,Correct
2,new_learn,54,729,B,26.867745941900022,49.3509071489359,1.3433872970950012,0.7752022367354453,B,779,Correct
2,new_learn,54,730,A,67.19525328647404,47.8143012510392,3.359762664323702,0.7510652877339701,B,686,Incorrect
2,new_learn,54,731,B,34.97446786807348,43.15874193034703,1.748723393403674,0.67793593293278,A,778,Incorrect
2,new_learn,54,732,A,58.24465902153262,50.09849998265945,2.9122329510766307,0.7869453975069566,B,620,Incorrect
2,new_learn,54,733,A,64.2018146236993,48.15101811133923,3.210090731184965,0.756354423807262,B,628,Incorrect
2,new_learn,54,734,B,29.237341386263225,60.50525663229844,1.461867069313161,0.9504143486979696,A,635,Incorrect
2,new_learn,54,735,B,28.915248233802764,60.3917767230063,1.4457624116901382,0.9486318104511584,B,577,Correct
2,new_learn,54,736,B,30.126255862061665,37.882710089793214,1.506312793103083,0.5950602185808315,B,645,Correct
2,new_learn,54,737,B,40.6422022007122,42.030634439378716,2.03211011003561,0.6602156619023516,A,498,Incorrect
2,new_learn,54,738,B,40.901056315480425,49.450995484950724,2.0450528157740213,0.7767744206411161,B,389,Correct
2,new_learn,54,739,B,43.02390165154243,34.11977407329937,2.1511950825771216,0.5359521578541039,B,413,Correct
2,new_learn,54,740,A,32.628213501683824,82.57621839983031,1.6314106750841912,1.297104205430666,A,519,Correct
2,new_learn,54,741,A,44.23192330460542,63.339127016695,2.2115961652302705,0.9949286806021991,A,494,Correct
2,new_learn,54,742,A,50.844225592741694,70.6179310439494,2.5422112796370846,1.10926386689691,A,548,Correct
2,new_learn,54,743,A,30.803257834449624,89.16799997033634,1.5401628917224812,1.4006476682105176,A,485,Correct
2,new_learn,54,744,A,41.31090618575984,70.60318969677218,2.0655453092879923,1.1090323103569302,A,424,Correct
2,new_learn,54,745,B,18.412133184202677,62.35091634612907,0.9206066592101338,0.9794059036879541,A,957,Incorrect
2,new_learn,54,746,B,42.34790328537243,33.51014654988958,2.1173951642686215,0.5263761511092523,B,1108,Correct
2,new_learn,54,747,B,53.882327791054585,25.21411815622659,2.694116389552729,0.3960624418317324,B,1310,Correct
2,new_learn,54,748,A,76.98543212356844,38.39696288125121,3.849271606178422,0.603138082539494,B,601,Incorrect
2,new_learn,54,749,A,44.568978861432825,80.61458334538989,2.228448943071641,1.266290914050395,A,1237,Correct
2,new_learn,54,750,A,42.612290727055466,66.51918129724697,2.1306145363527733,1.0448808564311933,A,821,Correct
2,new_learn,54,751,A,63.696463939096276,56.62339030679073,3.1848231969548135,0.8894381350458062,B,901,Incorrect
2,new_learn,54,752,A,46.3073074856642,63.03829711956094,2.3153653742832097,0.9902032556281163,B,824,Incorrect
2,new_learn,54,753,B,47.094757784050934,39.67914063708481,2.354737889202547,0.6232784836311092,A,680,Incorrect
2,new_learn,54,754,B,58.02362047593383,22.934038258562225,2.9011810237966915,0.36024703055123164,B,730,Correct
2,new_learn,54,755,A,59.38977899110101,61.52529914779457,2.9694889495550507,0.9664371390631288,A,649,Correct
2,new_learn,54,756,B,60.73893872945267,18.967142410006673,3.0369469364726336,0.29793517627434185,B,851,Correct
2,new_learn,54,757,A,75.91281816768219,45.603272950272356,3.7956409083841094,0.7163345364011289,A,552,Correct
2,new_learn,54,758,B,31.936038400459392,39.810548633889276,1.5968019200229697,0.6253426356180286,A,944,Incorrect
2,new_learn,54,759,A,73.02153810100596,47.42953682573787,3.6510769050502976,0.7450214222745231,A,1237,Correct
2,new_learn,54,760,B,44.78215318242001,24.89471629918684,2.2391076591210006,0.39104528919363724,B,2813,Correct
2,new_learn,54,761,B,39.213464315457855,29.25002400295591,1.9606732157728928,0.45945830262505694,B,793,Correct
2,new_learn,54,762,B,43.85715138181873,31.88129232976769,2.1928575690909367,0.500790168850734,A,1413,Incorrect
2,new_learn,54,763,B,62.98033816369494,23.552107399537817,3.1490169081847466,0.3699556379147291,B,632,Correct
2,new_learn,54,764,A,43.360269981618984,77.50478932596047,2.168013499080949,1.2174423838223103,A,688,Correct
2,new_learn,54,765,B,38.49426152259332,50.06457206827897,1.924713076129666,0.78641245907411,B,734,Correct
2,new_learn,54,766,A,53.074439690417194,64.88965215529761,2.6537219845208595,1.0192842725254003,A,517,Correct
2,new_learn,54,767,B,14.75598049028973,67.45518373795471,0.7377990245144865,1.0595835483885412,A,732,Incorrect
2,new_learn,54,768,A,42.56180243668011,78.22621534623023,2.128090121834006,1.2287745172492501,A,548,Correct
2,new_learn,54,769,B,49.49892137492831,37.47151254771559,2.4749460687464153,0.5886011426940053,B,667,Correct
2,new_learn,54,770,B,19.68974922182991,50.527453610699354,0.9844874610914955,0.7936833853398609,A,633,Incorrect
2,new_learn,54,771,B,32.823582580958664,58.423347374745376,1.6411791290479332,0.9177117945531231,A,644,Incorrect
2,new_learn,54,772,A,88.15714043594019,32.943962788677,4.4078570217970094,0.5174825573852159,B,471,Incorrect
2,new_learn,54,773,A,43.48391236354,69.98608590507227,2.1741956181770004,1.0993388666643962,A,661,Correct
2,new_learn,54,774,B,54.81468061339972,23.090442318056034,2.740734030669986,0.3627038197727186,B,769,Correct
2,new_learn,54,775,A,55.27044358083353,75.23642813966688,2.7635221790416766,1.1818110496295693,A,742,Correct
2,new_learn,54,776,A,59.633715190678146,68.95167923485519,2.981685759533907,1.0830904446845047,A,2016,Correct
2,new_learn,54,777,B,60.727763953551126,28.059831739568935,3.0363881976775566,0.4407628062699774,B,686,Correct
2,new_learn,54,778,A,74.54652211303231,41.536518690165565,3.7273261056516156,0.6524541098635963,A,975,Correct
2,new_learn,54,779,B,24.602208800433807,61.16032452402712,1.2301104400216902,0.9607041310792562,A,689,Incorrect
2,new_learn,54,780,B,46.75363111053374,40.44310437709429,2.337681555526687,0.6352787979972233,B,458,Correct
2,new_learn,54,781,A,35.76844496788365,86.95189442305917,1.7884222483941827,1.36583716367599,A,939,Correct
2,new_learn,54,782,B,45.65581806925698,40.06889909930866,2.282790903462849,0.6294007952390939,B,476,Correct
2,new_learn,54,783,B,51.18434086176375,39.35832123221287,2.5592170430881875,0.6182390642037356,B,968,Correct
2,new_learn,54,784,A,56.87260434412566,54.72343940228432,2.843630217206283,0.8595937760269133,A,619,Correct
2,new_learn,54,785,A,85.71992029442737,34.591224655662344,4.285996014721368,0.5433576862845148,B,583,Incorrect
2,new_learn,54,786,B,69.23460836176287,12.942859421473017,3.4617304180881434,0.20330596037472534,A,823,Incorrect
2,new_learn,54,787,B,19.390105112807824,60.61681126302817,0.9695052556403911,0.9521666447398415,A,640,Incorrect
2,new_learn,54,788,A,48.57700720678591,61.524204896071296,2.4288503603392955,0.9664199505972538,B,684,Incorrect
2,new_learn,54,789,B,66.7590725748442,12.67974905158357,3.33795362874221,0.19917303234908548,A,704,Incorrect
2,new_learn,54,790,B,18.002489712544335,55.4429234909737,0.9001244856272167,0.8708954056639198,B,884,Correct
2,new_learn,54,791,A,67.39735962082648,46.18115531428155,3.369867981041324,0.7254118913481807,A,861,Correct
2,new_learn,54,792,A,66.06060800597754,63.654299476263894,3.3030304002988773,0.9998793980201763,A,841,Correct
2,new_learn,54,793,A,67.3244940752187,57.242005067969174,3.3662247037609347,0.8991553129914084,A,680,Correct
2,new_learn,54,794,B,24.47195277614507,56.04010305920725,1.2235976388072536,0.8802758803861018,B,3658,Correct
2,new_learn,54,795,A,77.48871483289821,41.674040920563854,3.8744357416449104,0.6546143040072191,A,848,Correct
2,new_learn,54,796,A,35.470856925984954,87.90810523154391,1.7735428462992475,1.3808572879320842,B,1206,Incorrect
2,new_learn,54,797,B,23.531540732128317,49.12700978929579,1.1765770366064159,0.7716852652344275,A,831,Incorrect
2,new_learn,54,798,B,50.11991880278444,41.465199785480905,2.505995940139222,0.6513338351284994,A,771,Incorrect
2,new_learn,54,799,B,58.11347171104224,28.38535397252403,2.905673585552112,0.4458760975481367,B,457,Correct
2,new_learn,54,800,B,58.59950429115604,15.565436953496572,2.929975214557802,0.2445013119150996,B,543,Correct
2,new_learn,54,801,B,21.355156760292292,58.22877895638187,1.0677578380146147,0.9146555209843663,A,738,Incorrect
2,new_learn,54,802,B,26.926509183809017,41.66122893366756,1.3463254591904508,0.6544130537876627,B,1110,Correct
2,new_learn,54,803,A,44.18601234970817,69.64553250394361,2.2093006174854084,1.093989466348692,B,683,Incorrect
2,new_learn,54,804,A,79.80979666196976,44.253258499517685,3.9904898330984877,0.6951285589974742,B,543,Incorrect
2,new_learn,54,805,B,44.34490454698091,39.86010882580731,2.2172452273490455,0.6261211252922296,A,575,Incorrect
2,new_learn,54,806,A,59.62950794323332,48.05133171915756,2.981475397161666,0.754788553620558,A,1258,Correct
2,new_learn,54,807,B,27.55971546901626,43.312579179878156,1.377985773450813,0.6803524027976572,A,614,Incorrect
2,new_learn,54,808,A,72.87011250146598,37.454154765256135,3.643505625073299,0.5883284872847191,B,653,Incorrect
2,new_learn,54,809,A,55.41037055483577,71.18974468559544,2.770518527741789,1.1182458945759983,A,774,Correct
2,new_learn,54,810,B,43.25180657198419,31.314923010205206,2.1625903285992094,0.4918936603829533,B,665,Correct
2,new_learn,54,811,B,44.18290504087324,36.56442278225697,2.209145252043662,0.5743526099774487,A,655,Incorrect
2,new_learn,54,812,B,47.55447035652567,31.730354936576447,2.377723517826283,0.49841924982272595,B,450,Correct
2,new_learn,54,813,A,37.681144975311774,83.78623880463904,1.8840572487655889,1.3161111615028704,A,619,Correct
2,new_learn,54,814,A,79.10929174420887,33.46470235345306,3.9554645872104435,0.5256623153408861,B,648,Incorrect
2,new_learn,54,815,B,29.15650002451612,42.14465832295221,1.4578250012258058,0.662006744877193,B,1506,Correct
2,new_learn,54,816,A,47.30707818269664,74.42111541927035,2.365353909134832,1.1690041473656891,A,670,Correct
2,new_learn,54,817,B,24.19440171608452,53.70775806907972,1.2097200858042259,0.843639490952994,B,1716,Correct
2,new_learn,54,818,B,63.68876866888999,18.680759859593195,3.1844384334445,0.29343668969186537,B,662,Correct
2,new_learn,54,819,A,68.97036142140777,51.30942217080744,3.448518071070389,0.8059665187587295,B,538,Incorrect
2,new_learn,54,820,A,58.53891969522762,55.388986313610076,2.926945984761381,0.870048162463115,A,638,Correct
2,new_learn,54,821,A,33.84046653375965,86.67898866378957,1.6920233266879825,1.3615503700337714,A,1097,Correct
2,new_learn,54,822,A,62.62517518454646,52.198924865223574,3.131258759227323,0.8199387944093598,B,703,Incorrect
2,new_learn,54,823,A,45.71880468571776,82.32479624642994,2.285940234285888,1.2931548754803044,A,592,Correct
2,new_learn,54,824,A,50.36089622310405,69.63129216199414,2.5180448111552023,1.0937657795804268,B,754,Incorrect
2,new_learn,54,825,B,48.59551170256102,29.346796259676694,2.429775585128051,0.46097839767898363,A,461,Incorrect
2,new_learn,54,826,B,36.58822409453225,53.035266818422514,1.8294112047266124,0.8330760230896535,A,634,Incorrect
2,new_learn,54,827,B,47.70225695314958,33.32697428015267,2.3851128476574788,0.523498887824518,B,434,Correct
2,new_learn,54,828,A,46.92215579234735,63.11273794499591,2.3461077896173674,0.9913725693796845,A,613,Correct
2,new_learn,54,829,B,55.24318097008888,22.279773036547795,2.762159048504444,0.34996985647633255,B,544,Correct
2,new_learn,54,830,A,36.86494878441236,83.51046322242082,1.8432474392206182,1.3117792887871893,A,424,Correct
2,new_learn,54,831,A,69.91679733716774,46.35869039500779,3.495839866858387,0.7282006058750009,B,363,Incorrect
2,new_learn,54,832,A,79.04444166418425,39.308733636130995,3.9522220832092128,0.6174601440659355,B,430,Incorrect
2,new_learn,54,833,A,69.46567352369392,40.75084554465037,3.473283676184696,0.6401127849532298,A,603,Correct
2,new_learn,54,834,A,67.21738460641454,55.943435345316665,3.360869230320727,0.8787574274871122,A,795,Correct
2,new_learn,54,835,B,54.209372993840304,35.83679706014931,2.7104686496920154,0.5629230918617669,A,603,Incorrect
2,new_learn,54,836,B,39.86692283250511,45.683947873216994,1.9933461416252556,0.717601775127388,B,764,Correct
2,new_learn,54,837,B,25.85751058552151,60.81032377810088,1.2928755292760754,0.9552063322184923,A,1163,Incorrect
2,new_learn,54,838,B,67.46438892906852,19.01026851249175,3.3732194464534255,0.29861259950806723,B,572,Correct
2,new_learn,54,839,B,21.154864422959783,54.80084785235027,1.0577432211479891,0.8608097051171782,A,618,Incorrect
2,new_learn,54,840,B,52.092254824592224,23.21469993278565,2.6046127412296114,0.36465565382065435,B,1685,Correct
2,new_learn,54,841,B,60.25652120861814,21.99923604258241,3.012826060430907,0.34556319167982347,B,756,Correct
2,new_learn,54,842,A,48.018544316552415,79.06792177479896,2.4009272158276205,1.2419960109116044,A,625,Correct
2,new_learn,54,843,B,32.389257466438586,40.60691925103325,1.6194628733219292,0.6378519960197999,B,822,Correct
2,new_learn,54,844,A,37.363003562535795,82.391686945571,1.8681501781267897,1.2942055921253797,A,718,Correct
2,new_learn,54,845,B,46.989058658846886,34.481805973208935,2.349452932942344,0.5416389416397092,B,685,Correct
2,new_learn,54,846,A,59.48811667748312,72.63753126877513,2.974405833874156,1.1409876730444142,A,778,Correct
2,new_learn,54,847,B,19.810518654806835,53.27291080075336,0.9905259327403416,0.8368089260349556,A,1013,Incorrect
2,new_learn,54,848,B,57.65627694652841,15.303706827433473,2.88281384732642,0.2403900647087848,B,739,Correct
2,new_learn,54,849,A,66.1377120150895,46.64189266687386,3.3068856007544754,0.7326491367588727,B,1063,Incorrect
2,new_learn,54,850,A,82.36250720438468,45.86034779889665,4.118125360219234,0.7203726586804329,B,895,Incorrect
2,new_learn,54,851,A,79.07627691845414,37.17928603630551,3.9538138459227072,0.5840108593868549,A,640,Correct
2,new_learn,54,852,A,33.03857202915921,83.67873757983196,1.6519286014579606,1.314422536212341,B,851,Incorrect
2,new_learn,54,853,A,51.549294243458185,61.70765356527966,2.5774647121729095,0.9693015555547329,A,580,Correct
2,new_learn,54,854,A,68.88966412428951,53.44827222511598,3.4444832062144757,0.8395634968474588,A,752,Correct
2,new_learn,54,855,B,47.85458999219653,20.53836913433915,2.3927294996098265,0.32261594794577614,B,631,Correct
2,new_learn,54,856,B,53.34736675084275,32.11780917067975,2.6673683375421375,0.504505366700032,B,1352,Correct
2,new_learn,54,857,B,55.26200249694038,22.291903230697926,2.7631001248470195,0.35016039712047586,B,592,Correct
2,new_learn,54,858,B,31.304510422891433,46.5853268138676,1.5652255211445718,0.7317606024176303,A,602,Incorrect
2,new_learn,54,859,B,37.57505164623885,52.12462325068422,1.8787525823119424,0.8187716673774265,B,488,Correct
2,new_learn,54,860,A,52.24201843574394,74.90670910128914,2.6121009217871967,1.1766318350859883,B,472,Incorrect
2,new_learn,54,861,A,33.898244902335435,77.15806597858463,1.6949122451167715,1.2119960662175902,A,826,Correct
2,new_learn,54,862,A,70.56697855487421,45.074766605205966,3.5283489277437106,0.708032778145948,B,489,Incorrect
2,new_learn,54,863,B,14.741618444282857,62.9527274554488,0.7370809222141429,0.9888591304873923,A,629,Incorrect
2,new_learn,54,864,A,35.81202382841012,80.40602188675375,1.790601191420506,1.2630148383190283,A,552,Correct
2,new_learn,54,865,A,82.14289986084118,44.93972486908452,4.107144993042059,0.7059115475153123,B,803,Incorrect
2,new_learn,54,866,B,39.21783561294862,32.70278858357321,1.9608917806474309,0.5136942018302687,A,707,Incorrect
2,new_learn,54,867,B,48.325916405236995,44.12634627393326,2.41629582026185,0.6931350264197403,A,511,Incorrect
2,new_learn,54,868,B,32.231291062639265,36.49733056180679,1.6115645531319631,0.5732987278430522,B,1053,Correct
2,new_learn,54,869,A,66.3983424134274,45.41830661226858,3.3199171206713696,0.7134290919579585,B,592,Incorrect
2,new_learn,54,870,B,27.20795890454732,46.28456121917211,1.360397945227366,0.7270361875038908,A,610,Incorrect
2,new_learn,54,871,A,77.60455028130617,48.77240439525356,3.8802275140653086,0.7661151367301956,B,427,Incorrect
2,new_learn,54,872,B,41.041780591628054,29.32643157093682,2.0520890295814027,0.4606585098962945,B,748,Correct
2,new_learn,54,873,B,60.48476105429769,12.613824096891406,3.0242380527148844,0.19813748558233976,B,733,Correct
2,new_learn,54,874,B,61.08909804678522,24.764386182002113,3.054454902339261,0.3889980685001921,B,1029,Correct
2,new_learn,54,875,A,77.19040941792055,51.166903253265254,3.8595204708960273,0.8037278368369891,A,718,Correct
2,new_learn,54,876,B,29.79632304833375,41.50899369880166,1.4898161524166875,0.6520217483103016,A,1096,Incorrect
2,new_learn,54,877,A,44.11978162049239,65.70450372868586,2.2059890810246197,1.0320839311090135,A,613,Correct
2,new_learn,54,878,A,35.14488670958336,76.28281015425577,1.7572443354791683,1.198247579878974,A,1054,Correct
2,new_learn,54,879,B,57.9304553135114,26.639501492092194,2.89652276567557,0.4184523109142558,B,664,Correct
2,new_learn,54,880,B,49.749669389252844,24.66358959013874,2.487483469462642,0.3874147593376678,B,1318,Correct
2,new_learn,54,881,B,39.230715569881866,52.65288753586641,1.9615357784940932,0.8270696233648375,A,3312,Incorrect
2,new_learn,54,882,A,32.623043624378155,82.49668065495496,1.6311521812189078,1.2958548294557486,A,770,Correct
2,new_learn,54,883,A,37.56515612148185,74.21142974356553,1.8782578060740922,1.1657104124739026,A,685,Correct
2,new_learn,54,884,A,78.63689034562337,35.87185107507496,3.931844517281169,0.563473719040613,B,639,Incorrect
2,new_learn,54,885,B,41.25753503292609,44.89107594348491,2.0628767516463045,0.7051473719789683,B,1741,Correct
2,new_learn,54,886,A,53.47387704982758,57.604939811953,2.673693852491379,0.9048562786185689,B,564,Incorrect
2,new_learn,54,887,B,43.346749071422806,49.28589355433055,2.1673374535711405,0.7741810055794668,A,629,Incorrect
2,new_learn,54,888,B,10.43750413947938,64.68001520858554,0.5218752069739689,1.0159913030668422,B,1748,Correct
2,new_learn,54,889,A,65.17956367762746,49.91391740467355,3.258978183881373,0.7840459811520508,B,860,Incorrect
2,new_learn,54,890,A,32.68503684053452,87.84260441115495,1.634251842026726,1.3798284034513937,A,718,Correct
2,new_learn,54,891,A,48.049625013413326,64.60086514226742,2.4024812506706663,1.0147480167324614,A,971,Correct
2,new_learn,54,892,B,36.8589295379801,30.236598684284857,1.842946476899005,0.47495538148046057,B,1005,Correct
2,new_learn,54,893,A,81.8320076376937,37.640381648687324,4.091600381884685,0.5912537323291609,B,806,Incorrect
2,new_learn,54,894,A,84.76366549892708,33.98721084295218,4.238183274946354,0.5338698595011296,B,730,Incorrect
2,new_learn,54,895,A,46.876369094222675,83.48009739972068,2.343818454711134,1.3113023035596143,A,771,Correct
2,new_learn,54,896,A,51.48321685099606,63.23273989008824,2.5741608425498033,0.9932575555252774,A,493,Correct
2,new_learn,54,897,B,61.88885255296795,19.453900312722894,3.094442627648397,0.3055811515305921,A,604,Incorrect
2,new_learn,54,898,A,77.97683863811017,48.81875220455859,3.8988419319055083,0.7668431664163091,B,1020,Incorrect
