experiment,condition,subject,trial,cat,x,y,xt,yt,resp,rt,fb
2,new_learn,52,0,A,35.942288611368504,51.246412253623376,1.797114430568425,0.8049767612940858,B,5620,Incorrect
2,new_learn,52,1,B,49.97962482692775,38.02644245395456,2.4989812413463874,0.5973179612774934,A,6510,Incorrect
2,new_learn,52,2,B,42.99695486400711,27.895799918198918,2.1498477432003553,0.4381862004451224,A,9762,Incorrect
2,new_learn,52,3,B,35.40592977005136,19.08503480981513,1.7702964885025678,0.29978702576010346,B,4108,Correct
2,new_learn,52,4,A,59.81998446573232,68.99054029691764,2.990999223286616,1.0837008728199353,B,3778,Incorrect
2,new_learn,52,5,B,53.25189171145836,36.13658010067871,2.662594585572918,0.5676320728507567,B,4255,Correct
2,new_learn,52,6,A,36.96592285001334,60.97536916393984,1.848296142500667,0.9577988590767951,A,3045,Correct
2,new_learn,52,7,B,30.390267473394605,11.490547023962609,1.5195133736697304,0.18049309058104496,B,2377,Correct
2,new_learn,52,8,B,84.29930982277796,61.20922195553352,4.214965491138898,0.9614722101372559,A,1831,Incorrect
2,new_learn,52,9,B,56.53201805890472,37.764078312970355,2.826600902945236,0.5931967549880864,B,4068,Correct
2,new_learn,52,10,A,31.66355731485305,48.44551999352096,1.5831778657426525,0.7609804485549145,A,2241,Correct
2,new_learn,52,11,A,18.590475329274412,42.52533469275374,0.9295237664637206,0.6679863953110114,A,4000,Correct
2,new_learn,52,12,B,68.23994789934956,53.773715790412176,3.411997394967478,0.8446755524169218,B,3077,Correct
2,new_learn,52,13,A,68.35830252712417,89.34005099759577,3.4179151263562084,1.4033502394269217,A,3114,Correct
2,new_learn,52,14,A,41.88986194248338,74.66649660109746,2.094493097124169,1.172858585956475,B,3034,Incorrect
2,new_learn,52,15,B,61.61737941843304,48.882493957486574,3.080868970921652,0.7678444195299363,B,1309,Correct
2,new_learn,52,16,A,39.27061891679797,68.68909035717641,1.9635309458398984,1.0789657082393544,A,1079,Correct
2,new_learn,52,17,B,30.96986849517062,12.07480584720884,1.548493424758531,0.18967060671557182,B,1150,Correct
2,new_learn,52,18,A,55.944738557587684,78.94717881407274,2.7972369278793843,1.2400993849196533,A,1696,Correct
2,new_learn,52,19,B,40.37696782847715,24.019536638845604,2.0188483914238575,0.37729799923614105,B,1387,Correct
2,new_learn,52,20,B,70.28721337589052,37.25234300559877,3.514360668794526,0.585158435576981,B,2459,Correct
2,new_learn,52,21,B,52.051134903860806,41.84010911148535,2.60255674519304,0.6572228970501887,B,1776,Correct
2,new_learn,52,22,B,46.16404735876756,19.76878044353885,2.308202367938378,0.31052727705925615,B,1137,Correct
2,new_learn,52,23,A,35.408504164268614,58.94390579595306,1.7704252082134306,0.9258887071122746,A,2213,Correct
2,new_learn,52,24,B,44.49181066813805,35.32334031495058,2.2245905334069023,0.5548577321685045,B,1082,Correct
2,new_learn,52,25,B,49.085772068708984,25.720479350534657,2.454288603435449,0.40401634487223825,B,1886,Correct
2,new_learn,52,26,B,69.1200206618612,46.131588252634515,3.45600103309306,0.724633293764529,B,3110,Correct
2,new_learn,52,27,B,49.122792242349604,29.453159553066584,2.45613961211748,0.4626491483846101,A,1538,Incorrect
2,new_learn,52,28,B,60.08676277115192,40.20759230561178,3.004338138557596,0.6315793830292173,B,1284,Correct
2,new_learn,52,29,A,46.76411615182649,76.16215367849856,2.338205807591325,1.1963523123897393,A,846,Correct
2,new_learn,52,30,B,71.744469827093,43.96597276148502,3.5872234913546497,0.6906158851770514,B,2097,Correct
2,new_learn,52,31,B,84.1840878699052,66.2788716917131,4.209204393495259,1.041106081974532,A,1791,Incorrect
2,new_learn,52,32,B,77.90543224269786,65.00902121435395,3.895271612134893,1.021159317320387,B,1327,Correct
2,new_learn,52,33,A,58.21854607396733,74.57509772213153,2.9109273036983665,1.1714228957229467,A,5948,Correct
2,new_learn,52,34,A,15.226629318885863,44.630121977569516,0.7613314659442932,0.7010483166677438,B,1525,Incorrect
2,new_learn,52,35,A,59.49264401050492,76.39343130975679,2.974632200525246,1.1999852129262423,A,1758,Correct
2,new_learn,52,36,B,80.88061395269901,50.51639233372491,4.044030697634951,0.7935096352074495,B,1897,Correct
2,new_learn,52,37,B,59.9053951847738,34.02345118255047,2.99526975923869,0.5344391214243576,B,1011,Correct
2,new_learn,52,38,A,33.58916096568559,41.4658090586378,1.6794580482842798,0.651343405568868,B,954,Incorrect
2,new_learn,52,39,A,53.756053625493905,75.52746081117641,2.6878026812746953,1.186382580143414,A,1391,Correct
2,new_learn,52,40,A,35.187445994255384,66.43471708540046,1.759372299712769,1.043554095694052,A,2724,Correct
2,new_learn,52,41,B,58.29613562352368,35.0720570533412,2.914806781176184,0.550910583925294,B,801,Correct
2,new_learn,52,42,B,41.521223784638096,25.548537298959182,2.076061189231905,0.40131548544187495,B,1280,Correct
2,new_learn,52,43,B,70.08411880192526,54.811234851659435,3.5042059400962624,0.8609728637207905,B,1899,Correct
2,new_learn,52,44,B,52.02584998565259,35.011717815200726,2.6012924992826294,0.5499627773889674,B,808,Correct
2,new_learn,52,45,B,43.70271222823423,34.748649902172495,2.1851356114117118,0.545830516274144,B,1707,Correct
2,new_learn,52,46,B,59.401568664246774,38.27811228596035,2.9700784332123384,0.6012711817542912,B,2844,Correct
2,new_learn,52,47,A,14.94737380291581,31.139197791877496,0.7473686901457904,0.4891333751082092,B,1323,Incorrect
2,new_learn,52,48,A,43.56382245043105,55.791412789744,2.1781911225215524,0.8763694627682769,B,975,Incorrect
2,new_learn,52,49,B,82.73373314783339,63.976730567662386,4.136686657391669,1.0049441337603084,B,1752,Correct
2,new_learn,52,50,B,54.047747497896026,24.917079478016504,2.7023873748948013,0.39139656918524823,B,1824,Correct
2,new_learn,52,51,A,24.663457455626382,36.068195524676824,1.2331728727813192,0.5665578904428248,B,1539,Incorrect
2,new_learn,52,52,B,64.09706696925426,46.62530504959069,3.2048533484627124,0.7323885790758861,B,3478,Correct
2,new_learn,52,53,A,53.49044085087163,72.0120780466379,2.6745220425435816,1.131163076805262,B,3002,Incorrect
2,new_learn,52,54,B,55.12066650016374,41.519749397858284,2.7560333250081874,0.6521906984360041,B,700,Correct
2,new_learn,52,55,A,50.530102908792294,77.13576341547255,2.526505145439615,1.2116457383754446,A,805,Correct
2,new_learn,52,56,A,40.470084779179004,53.73377748113946,2.02350423895895,0.844048202921882,B,672,Incorrect
2,new_learn,52,57,A,33.96593327652338,44.17306818224934,1.698296663826169,0.6938689324393779,B,1026,Incorrect
2,new_learn,52,58,B,52.057637024185226,26.272532787544264,2.6028818512092613,0.41268797998273016,B,1037,Correct
2,new_learn,52,59,B,61.36819224915667,49.64759477199547,3.0684096124578337,0.7798625950205198,B,887,Correct
2,new_learn,52,60,B,61.83372490281534,35.482330508911936,3.0916862451407674,0.5573551442952136,B,1209,Correct
2,new_learn,52,61,B,71.78107061165773,54.29501774218701,3.589053530582886,0.8528641443269109,A,1482,Incorrect
2,new_learn,52,62,B,60.67302784248113,51.444758401852894,3.0336513921240567,0.8080923753048143,B,1469,Correct
2,new_learn,52,63,B,71.0126906730685,53.23842569988772,3.550634533653425,0.8362672353372663,B,2325,Correct
2,new_learn,52,64,A,37.670399354713794,58.93904481807067,1.8835199677356897,0.925812351050252,A,3468,Correct
2,new_learn,52,65,B,71.03280775643996,61.9991514194617,3.5516403878219984,0.9738803931409102,A,2538,Incorrect
2,new_learn,52,66,B,58.40002872204454,26.00267030581876,2.9200014361022273,0.4084489900323884,B,1226,Correct
2,new_learn,52,67,A,50.29419447142058,74.10714071464973,2.514709723571029,1.1640722442384432,A,2935,Correct
2,new_learn,52,68,B,76.65249214357988,55.34566083115085,3.832624607178994,0.8693676073760793,B,2605,Correct
2,new_learn,52,69,B,67.40184861994048,53.97123922025701,3.3700924309970244,0.8477782431974836,B,1140,Correct
2,new_learn,52,70,B,67.34664192255121,46.2535843826258,3.367332096127561,0.726549604493264,B,1247,Correct
2,new_learn,52,71,B,63.96393805761933,53.087043754505814,3.1981969028809663,0.8338893332997769,B,1856,Correct
2,new_learn,52,72,B,65.88457877981675,53.38144492289457,3.2942289389908375,0.8385137760388688,B,898,Correct
2,new_learn,52,73,A,32.457611614094255,65.8503220579321,1.6228805807047126,1.034374440068607,A,1005,Correct
2,new_learn,52,74,A,38.24357818483428,63.88334915957893,1.912178909241714,1.0034773020322243,A,926,Correct
2,new_learn,52,75,A,47.66246192125139,69.65987738575643,2.38312309606257,1.0942147952252907,A,853,Correct
2,new_learn,52,76,A,40.234529297230424,52.265113746664085,2.011726464861521,0.8209784869277741,B,1149,Incorrect
2,new_learn,52,77,A,43.09772924382712,65.93467560931956,2.154886462191356,1.0356994625553222,A,817,Correct
2,new_learn,52,78,A,33.761191037490754,49.718395047378316,1.6880595518745378,0.7809747231455942,B,737,Incorrect
2,new_learn,52,79,A,62.77435092703045,81.35414241479796,3.1387175463515224,1.2779078807471353,A,853,Correct
2,new_learn,52,80,B,80.8708077337362,62.175644044602016,4.043540386686811,0.9766527328136783,B,2221,Correct
2,new_learn,52,81,B,64.63484998004004,54.06027669655785,3.231742499002002,0.8491768406046881,B,1528,Correct
2,new_learn,52,82,B,77.2484575849011,60.992633895527476,3.862422879245055,0.9580700528464047,A,3160,Incorrect
2,new_learn,52,83,A,37.69834055632025,51.60679967928193,1.8849170278160126,0.8106377137385609,A,2123,Correct
2,new_learn,52,84,A,18.53932462654738,44.20352691380069,0.926966231327369,0.6943473770757748,A,1690,Correct
2,new_learn,52,85,B,38.201406088541866,17.571631177311858,1.9100703044270932,0.27601453709116147,B,948,Correct
2,new_learn,52,86,A,20.276489149949757,32.70392498822669,1.0138244574974877,0.5137120524328231,B,2515,Incorrect
2,new_learn,52,87,B,61.39954214623192,32.491004401675184,3.069977107311596,0.5103675036802819,B,1207,Correct
2,new_learn,52,88,A,19.21068272364074,50.587771643212456,0.9605341361820371,0.7946308587789714,A,1022,Correct
2,new_learn,52,89,A,60.394010469945584,71.84424354218615,3.019700523497279,1.1285267385742397,A,2771,Correct
2,new_learn,52,90,A,11.79591719572247,36.31747270372638,0.5897958597861235,0.5704735272148731,A,2164,Correct
2,new_learn,52,91,B,35.51405829480522,14.460062721389349,1.7757029147402608,0.22713813407982203,B,2291,Correct
2,new_learn,52,92,B,51.82919850005426,39.52282112419667,2.591459925002713,0.6208230224645986,B,2224,Correct
2,new_learn,52,93,A,40.50479247812462,54.55518717817109,2.025239623906231,0.8569508762707918,A,1209,Correct
2,new_learn,52,94,B,70.96662582824959,51.076991604029246,3.548331291412479,0.802315507953429,B,1749,Correct
2,new_learn,52,95,B,54.281118388813546,28.303197169429712,2.7140559194406775,0.44458558150291905,B,884,Correct
2,new_learn,52,96,A,47.553055253696854,62.07372982364135,2.3776527626848427,0.9750518679743466,A,1061,Correct
2,new_learn,52,97,B,34.21933470119276,15.83660173534301,1.710966735059638,0.24876075834790484,B,1163,Correct
2,new_learn,52,98,B,79.93163224490593,58.6874251963185,3.996581612245296,0.9218599192742736,A,855,Incorrect
2,new_learn,52,99,B,56.05921576311161,47.15743364033844,2.802960788155581,0.7407472354331771,B,790,Correct
2,new_learn,52,100,B,58.23841412129476,38.08034682541233,2.911920706064738,0.5981646891643339,B,925,Correct
2,new_learn,52,101,A,39.3498729226896,50.51370637366253,1.9674936461344799,0.7934674442454505,B,1933,Incorrect
2,new_learn,52,102,B,78.01012627055199,66.44985851817309,3.9005063135276,1.0437919367638684,100,2923,Incorrect
2,new_learn,52,103,B,73.66237962860455,61.30679941023705,3.6831189814302276,0.9630049532115189,B,794,Correct
2,new_learn,52,104,B,66.60198495253732,50.26515277190036,3.3300992476268663,0.7895631733988541,B,888,Correct
2,new_learn,52,105,B,35.273992751418604,24.731626032382195,1.7636996375709302,0.38848347327330995,B,2133,Correct
2,new_learn,52,106,A,28.192104803484206,48.9869380216125,1.4096052401742103,0.7694850230527818,A,2387,Correct
2,new_learn,52,107,B,45.55174442889097,26.04648007559713,2.2775872214445485,0.4091371522868444,B,731,Correct
2,new_learn,52,108,A,54.74304849527922,77.04653705670798,2.737152424763961,1.2102441740094378,A,1328,Correct
2,new_learn,52,109,A,33.69083049631107,49.59133002706021,1.6845415248155535,0.7789787904737964,A,2552,Correct
2,new_learn,52,110,B,79.54826454664638,51.75435254418217,3.9774132273323186,0.8129554687204946,A,1845,Incorrect
2,new_learn,52,111,A,41.769976363646315,53.56282395949395,2.0884988181823156,0.8413628712833477,B,929,Incorrect
2,new_learn,52,112,B,68.91498715461832,38.0068824979216,3.4457493577309157,0.597010714206605,B,1795,Correct
2,new_learn,52,113,A,48.66808838881926,76.58646964104618,2.4334044194409628,1.203017451943442,A,524,Correct
2,new_learn,52,114,A,66.37812677468696,87.86786235355268,3.3189063387343483,1.3802251542828012,A,805,Correct
2,new_learn,52,115,B,61.68915977689798,39.76016634660648,3.0844579888448993,0.6245512325000353,B,1219,Correct
2,new_learn,52,116,B,33.57305181494954,11.905187107409233,1.6786525907474767,0.18700624178124384,B,1013,Correct
2,new_learn,52,117,A,16.74989656998257,34.41329905844242,0.8374948284991285,0.5405628375389562,A,787,Correct
2,new_learn,52,118,A,31.764554817719613,59.97361764647657,1.5882277408859806,0.9420633830368699,A,1041,Correct
2,new_learn,52,119,A,42.056024503894996,57.17297325588219,2.10280122519475,0.898070963822826,A,1895,Correct
2,new_learn,52,120,A,64.06740054599554,76.58134698700746,3.203370027299777,1.2029369854819674,A,824,Correct
2,new_learn,52,121,A,31.64804231121073,41.61265381269851,1.5824021155605366,0.6536500375717448,A,942,Correct
2,new_learn,52,122,B,74.49566422519175,48.59600466184193,3.724783211259587,0.7633442561972897,A,1289,Incorrect
2,new_learn,52,123,A,34.6729533394607,51.748331159258214,1.7336476669730347,0.8128608850272869,A,892,Correct
2,new_learn,52,124,B,39.003465618093564,19.960413860079115,1.9501732809046783,0.3135374477271822,B,711,Correct
2,new_learn,52,125,B,56.38321621954897,48.37907629049811,2.8191608109774484,0.7599367533084451,B,1084,Correct
2,new_learn,52,126,A,41.12290942067851,67.84368288316699,2.0561454710339255,1.065686078691165,A,894,Correct
2,new_learn,52,127,B,54.71268889237953,23.407524548136532,2.735634444618977,0.36768453579574234,B,706,Correct
2,new_learn,52,128,B,76.05991588534889,43.42382317269518,3.8029957942674444,0.682099819350607,B,2507,Correct
2,new_learn,52,129,A,56.15215623068727,66.63220832112978,2.8076078115343637,1.0466562807706299,A,1344,Correct
2,new_learn,52,130,A,64.2753798720904,84.18660097985907,3.21376899360452,1.3224000358451027,A,797,Correct
2,new_learn,52,131,B,49.34383814057206,36.23039647295781,2.467191907028603,0.5691057369804491,B,916,Correct
2,new_learn,52,132,B,59.95246978565431,40.31720924663556,2.997623489282715,0.6333012419123638,B,684,Correct
2,new_learn,52,133,B,58.199071867887206,42.40118140203831,2.9099535933943605,0.6660361999808586,B,1089,Correct
2,new_learn,52,134,A,26.05450597102014,53.616660427260925,1.3027252985510072,0.8422085325415074,A,502,Correct
2,new_learn,52,135,A,62.69340762197836,72.62899662829727,3.134670381098918,1.140853611225283,A,1054,Correct
2,new_learn,52,136,A,28.447480658294126,40.8787156912025,1.4223740329147063,0.6421213645183379,A,903,Correct
2,new_learn,52,137,B,69.38542229518727,44.08893583778831,3.4692711147593633,0.6925473846629375,B,1916,Correct
2,new_learn,52,138,A,40.69258831232347,60.043384531480925,2.0346294156161737,0.9431592787038375,A,671,Correct
2,new_learn,52,139,A,10.494596815149603,32.970554933105845,0.5247298407574802,0.5179002658131202,107,1056,Correct
2,new_learn,52,140,B,51.39564622948056,35.30933071920588,2.5697823114740284,0.554637669953148,B,2388,Correct
2,new_learn,52,141,A,58.75723489360312,79.13874747000752,2.937861744680156,1.2431085383303673,A,729,Correct
2,new_learn,52,142,B,64.41679466918427,32.5958724116182,3.220839733459213,0.5120147665284498,B,812,Correct
2,new_learn,52,143,A,41.609152351808746,74.15442219717606,2.0804576175904375,1.164814940029221,A,674,Correct
2,new_learn,52,144,B,78.33447252395574,52.831815406602026,3.916723626197787,0.8298802157859648,B,919,Correct
2,new_learn,52,145,B,43.51031908018973,19.485096695167304,2.1755159540094864,0.30607118316012183,B,665,Correct
2,new_learn,52,146,A,38.32314886404632,49.998805511939075,1.9161574432023158,0.7853794004228634,B,3786,Incorrect
2,new_learn,52,147,A,27.632689723892213,41.58091307495621,1.3816344861946106,0.653151455229191,A,877,Correct
2,new_learn,52,148,A,46.308174861326606,74.88229982198193,2.3154087430663304,1.1762484150232335,A,585,Correct
2,new_learn,52,149,A,25.96135234773928,42.03584203204414,1.2980676173869639,0.6602974625766544,A,808,Correct
2,new_learn,52,150,B,42.127287223420176,16.932822415620713,2.106364361171009,0.26598015252727303,B,1207,Correct
2,new_learn,52,151,A,47.64890249906168,64.47984651573567,2.382445124953084,1.012847060592163,A,992,Correct
2,new_learn,52,152,A,25.159710909828284,40.82655318648693,1.2579855454914142,0.6413019978103016,A,1016,Correct
2,new_learn,52,153,B,41.44423734701904,33.53041757102309,2.072211867350952,0.5266945675646212,A,1026,Incorrect
2,new_learn,52,154,A,46.474472212826726,72.22992598724252,2.3237236106413364,1.134585024254278,A,709,Correct
2,new_learn,52,155,B,69.84095678530488,36.55346500182665,3.4920478392652443,0.574180485564951,B,1251,Correct
2,new_learn,52,156,A,45.43256752664969,70.23563108649212,2.2716283763324845,1.1032587132078326,B,1449,Incorrect
2,new_learn,52,157,B,66.19020479336575,41.28706262398822,3.3095102396682874,0.6485356631391156,B,2105,Correct
2,new_learn,52,158,A,48.40095779969819,69.81634140258389,2.420047889984909,1.0966725262543724,A,2146,Correct
2,new_learn,52,159,A,41.521573910933654,69.33851802863212,2.076078695546683,1.0891668942477706,A,1552,Correct
2,new_learn,52,160,A,37.758934993150646,56.398027159516396,1.8879467496575324,0.8858981390064716,A,1061,Correct
2,new_learn,52,161,A,39.2958371800768,47.106710970498355,1.96479185900384,0.7399504855984766,B,853,Incorrect
2,new_learn,52,162,A,32.34636035303805,49.062082787952455,1.6173180176519026,0.7706653942822284,A,716,Correct
2,new_learn,52,163,A,50.140233404392205,58.93930502022709,2.5070116702196104,0.9258164382961673,A,1172,Correct
2,new_learn,52,164,A,49.748088478706634,77.69046518442403,2.4874044239353315,1.2203589733868008,A,1799,Correct
2,new_learn,52,165,B,54.32884378985276,40.351024378622064,2.716442189492638,0.6338324087635085,B,1278,Correct
2,new_learn,52,166,B,36.82765222207633,20.419153541671037,1.8413826111038165,0.32074331379517873,A,855,Incorrect
2,new_learn,52,167,B,82.17336936731922,67.63040920367914,4.108668468365961,1.0623359835677495,A,951,Incorrect
2,new_learn,52,168,A,48.969701897306855,70.56295509726715,2.448485094865343,1.1084003067458046,A,1841,Correct
2,new_learn,52,169,A,36.438302097524506,66.78200339236388,1.8219151048762254,1.049009256247295,A,1236,Correct
2,new_learn,52,170,A,47.35922747376145,67.83341977576157,2.3679613736880727,1.0655248661770256,A,5029,Correct
2,new_learn,52,171,A,32.76326421740706,50.590338479912425,1.638163210870353,0.7946711785555696,A,870,Correct
2,new_learn,52,172,A,13.886839161427648,39.32128295616063,0.6943419580713823,0.6176572683239989,A,1919,Correct
2,new_learn,52,173,A,52.89765009195633,60.333100605119704,2.6448825045978164,0.9477101281466898,A,3025,Correct
2,new_learn,52,174,B,38.259528796127086,27.188267684952677,1.9129764398063542,0.42707231011440056,B,918,Correct
2,new_learn,52,175,B,70.09588761728637,38.509104226384736,3.5047943808643187,0.6048995946696698,B,1331,Correct
2,new_learn,52,176,A,24.998466529809967,38.2116884871565,1.2499233264904985,0.6002277991625627,A,1333,Correct
2,new_learn,52,177,A,46.47794928612184,66.75296754630538,2.323897464306092,1.0485531622439543,B,791,Incorrect
2,new_learn,52,178,B,73.75545303227652,43.106220368997846,3.6877726516138263,0.6771109261763316,B,682,Correct
2,new_learn,52,179,A,18.83524489880089,42.69181331621563,0.9417622449400446,0.6706014354132497,A,1339,Correct
2,new_learn,52,180,A,45.25518216780734,77.30674048422219,2.262759108390367,1.2143314398910254,A,1983,Correct
2,new_learn,52,181,A,27.57006901270742,41.266426681440606,1.378503450635371,0.6482115145115781,A,1143,Correct
2,new_learn,52,182,B,71.36319901980958,56.70810353732979,3.5681599509904793,0.8907688073594231,A,929,Incorrect
2,new_learn,52,183,B,48.298097363047475,26.68521090303264,2.414904868152374,0.419170312662308,A,815,Incorrect
2,new_learn,52,184,A,28.785868666812217,54.223004293386694,1.4392934333406109,0.8517329597183573,A,2028,Correct
2,new_learn,52,185,B,40.93799412897289,24.607220054381916,2.0468997064486443,0.3865293087405683,B,842,Correct
2,new_learn,52,186,A,50.78131422696435,69.5766270292823,2.5390657113482176,1.0929071016837517,A,656,Correct
2,new_learn,52,187,B,68.84415689027745,52.877225445676956,3.442207844513872,0.8305935150117502,B,998,Correct
2,new_learn,52,188,A,17.845593457514035,41.965866742047794,0.8922796728757018,0.6591982932917279,A,742,Correct
2,new_learn,52,189,B,47.33338323931208,36.355507532495224,2.366669161965604,0.571070976908077,B,2906,Correct
2,new_learn,52,190,A,53.17508308527185,78.50159991030168,2.6587541542635926,1.2331002478662445,A,849,Correct
2,new_learn,52,191,A,40.23916166155471,54.93065018842058,2.0119580830777353,0.8628486354442645,A,864,Correct
2,new_learn,52,192,A,19.38512206040665,46.59708094290036,0.9692561030203325,0.7319452358447236,A,1293,Correct
2,new_learn,52,193,A,45.25997184925276,72.18290497841049,2.262998592462638,1.1338464199747225,A,628,Correct
2,new_learn,52,194,B,52.288622082117875,34.01195363415305,2.614431104105894,0.5342585183564595,B,983,Correct
2,new_learn,52,195,B,83.8241251486264,59.923147647602384,4.19120625743132,0.9412706021484205,B,2301,Correct
2,new_learn,52,196,A,23.824859000907203,39.485397215904854,1.19124295004536,0.6202351690878078,A,1561,Correct
2,new_learn,52,197,B,52.47140400055813,35.22284213673362,2.6235702000279066,0.5532791104765766,A,677,Incorrect
2,new_learn,52,198,A,27.494203329596097,41.719757686460994,1.374710166479805,0.6553324212866608,B,895,Incorrect
2,new_learn,52,199,B,54.828789906563834,30.92020380580081,2.741439495328192,0.4856934256190149,B,1027,Correct
2,new_learn,52,200,A,52.83453151762249,61.819925498044874,2.6417265758811244,0.9710651189506305,B,2101,Incorrect
2,new_learn,52,201,A,46.91110284926819,68.01648033307477,2.3455551424634096,1.0684003746871118,A,812,Correct
2,new_learn,52,202,A,23.753278596927277,49.748977390542834,1.1876639298463638,0.7814551094686704,A,824,Correct
2,new_learn,52,203,B,72.3321916893833,60.239531026659435,3.616609584469165,0.9462403406452383,A,913,Incorrect
2,new_learn,52,204,A,25.716424594002277,48.21969629363787,1.2858212297001137,0.7574332181721185,A,2361,Correct
2,new_learn,52,205,B,36.52878197817665,25.38112086258679,1.8264390989088326,0.3986857142088865,B,1126,Correct
2,new_learn,52,206,B,83.41445771946876,53.252644248638305,4.170722885973438,0.8364905797787643,B,3039,Correct
2,new_learn,52,207,B,48.45991283166447,24.367051140478765,2.4229956415832232,0.3827567442628744,B,1326,Correct
2,new_learn,52,208,B,82.8651916813503,55.91609019321177,4.143259584067515,0.8783278908422919,B,1407,Correct
2,new_learn,52,209,A,52.377525854568745,75.10793486183206,2.618876292728437,1.1797926819411617,A,860,Correct
2,new_learn,52,210,B,33.79518457628115,20.902140324087,1.6897592288140575,0.3283300524322735,B,670,Correct
2,new_learn,52,211,B,74.96309343539518,62.81833828426181,3.7481546717697594,0.9867481503227766,A,794,Incorrect
2,new_learn,52,212,A,31.322007523109484,55.69886476636691,1.5661003761554741,0.8749157218165483,B,832,Incorrect
2,new_learn,52,213,A,56.841039384677586,80.44906875588345,2.842051969233879,1.263691016958118,A,1108,Correct
2,new_learn,52,214,B,44.54090040637533,37.1186843336919,2.2270450203187666,0.5830589300682251,B,753,Correct
2,new_learn,52,215,A,33.20843257683477,59.32274033017837,1.6604216288417382,0.9318394260605165,A,1405,Correct
2,new_learn,52,216,A,59.18945659617431,68.58848718454553,2.9594728298087154,1.0773854372990295,B,894,Incorrect
2,new_learn,52,217,A,47.36313248671276,66.14076944694585,2.368156624335638,1.0389367769865068,A,994,Correct
2,new_learn,52,218,A,56.88136195139468,78.23811360665883,2.844068097569734,1.228961414687015,A,1389,Correct
2,new_learn,52,219,A,40.87671248394174,69.0599866178688,2.043835624197087,1.0847917330785302,A,1320,Correct
2,new_learn,52,220,B,67.56650316264833,44.206631574248924,3.3783251581324167,0.6943961449680551,B,2610,Correct
2,new_learn,52,221,B,61.76439283756652,33.55922293493906,3.0882196418783256,0.5271470411629332,B,1218,Correct
2,new_learn,52,222,B,78.06474747616882,46.21985840885875,3.903237373808441,0.7260198381361552,B,661,Correct
2,new_learn,52,223,B,65.47116687903049,37.06748670178192,3.2735583439515246,0.5822547195467771,B,681,Correct
2,new_learn,52,224,A,48.809671167814855,61.38129866612853,2.440483558390743,0.9641751847865518,B,1526,Incorrect
2,new_learn,52,225,A,48.724040140826446,75.45028699606841,2.4362020070413224,1.18517033669045,A,784,Correct
2,new_learn,52,226,A,31.996562852818467,45.68675474266707,1.5998281426409233,0.7176458653296074,A,1318,Correct
2,new_learn,52,227,A,20.483541485248146,44.90139025178248,1.0241770742624072,0.705309388754841,A,624,Correct
2,new_learn,52,228,A,62.083631981128256,79.86933726984168,3.104181599056413,1.2545846160701002,A,1178,Correct
2,new_learn,52,229,B,75.07755090175269,50.59898157593946,3.7538775450876347,0.7948069439904836,B,1098,Correct
2,new_learn,52,230,A,63.34568666688713,79.42945269577588,3.1672843333443566,1.2476749253385377,A,730,Correct
2,new_learn,52,231,B,47.84857297894414,28.940155056140824,2.392428648947207,0.4545908925906076,B,1049,Correct
2,new_learn,52,232,B,32.7397042296837,10.227654701008511,1.636985211484185,0.16065562436070727,A,922,Incorrect
2,new_learn,52,233,B,63.2719357496598,38.905801083272216,3.1635967874829896,0.6111308943261691,B,1204,Correct
2,new_learn,52,234,B,37.992522250652435,20.37939176023911,1.8996261125326217,0.32011873719297773,B,630,Correct
2,new_learn,52,235,B,37.41443311689753,22.446885559368972,1.8707216558448763,0.35259485384642186,B,1043,Correct
2,new_learn,52,236,A,66.2214494232309,89.37388107139051,3.3110724711615442,1.4038816409834416,A,782,Correct
2,new_learn,52,237,A,11.058295124205724,30.92290635049574,0.5529147562102863,0.4857358770918129,A,872,Correct
2,new_learn,52,238,A,24.74347317960811,51.40579202866273,1.2371736589804057,0.8074802929460579,A,947,Correct
2,new_learn,52,239,A,45.6331920142514,64.4174922136738,2.28165960071257,1.0118676015057764,A,1119,Correct
2,new_learn,52,240,B,50.37802989090269,24.52748987163143,2.5189014945451347,0.3852769099585768,B,1054,Correct
2,new_learn,52,241,A,25.236469079360027,47.617516148538904,1.2618234539680016,0.7479741945722158,B,3802,Incorrect
2,new_learn,52,242,A,32.93403176623639,57.205764642713426,1.6467015883118195,0.8985860497226762,A,743,Correct
2,new_learn,52,243,A,42.00376192256649,51.67664152757741,2.1001880961283246,0.8117347869261522,A,1670,Correct
2,new_learn,52,244,A,48.75469563636044,71.68086724202706,2.437734781818022,1.1259604296524872,A,825,Correct
2,new_learn,52,245,A,25.45623210315066,42.668782082306336,1.2728116051575329,0.6702396616369868,A,953,Correct
2,new_learn,52,246,A,63.783681591730044,75.39618930089989,3.1891840795865023,1.1843205720818624,A,953,Correct
2,new_learn,52,247,B,70.69199981344305,57.08957143493858,3.5345999906721524,0.8967608910829636,B,2418,Correct
2,new_learn,52,248,B,79.0239539208356,48.30419442347501,3.95119769604178,0.7587605116918106,B,683,Correct
2,new_learn,52,249,B,41.89504631923468,25.367424032716368,2.094752315961734,0.3984705649083945,B,959,Correct
2,new_learn,52,250,B,76.20817476893185,62.154966679895324,3.8104087384465926,0.9763279335283876,B,1652,Correct
2,new_learn,52,251,B,64.76046568047747,37.06975862073647,3.2380232840238734,0.582290406766263,B,732,Correct
2,new_learn,52,252,B,89.0726853520696,64.3187651235854,4.45363426760348,1.0103168000011162,B,796,Correct
2,new_learn,52,253,A,53.51741718537217,66.57199606502054,2.675870859268608,1.0457104688633858,A,4564,Correct
2,new_learn,52,254,A,16.50736998962325,45.34845315570744,0.8253684994811624,0.7123318364281569,A,1199,Correct
2,new_learn,52,255,B,61.03465941230053,51.44930821085154,3.0517329706150265,0.8081638435374411,A,996,Incorrect
2,new_learn,52,256,B,47.52400998308678,28.63479330204515,2.376200499154339,0.4497942813738363,B,982,Correct
2,new_learn,52,257,A,63.488177892660396,83.93890559444463,3.17440889463302,1.3185092458293723,A,1947,Correct
2,new_learn,52,258,B,76.18361979745052,46.061038983550475,3.809180989872526,0.7235251084371763,B,829,Correct
2,new_learn,52,259,A,17.25198783756636,40.22665942885383,0.862599391878318,0.6318788887007288,A,1071,Correct
2,new_learn,52,260,B,64.24756338783419,41.24622284378412,3.2123781693917097,0.6478941533717985,B,1659,Correct
2,new_learn,52,261,A,53.316272960935194,70.39973750709045,2.6658136480467594,1.1058364908346259,A,1281,Correct
2,new_learn,52,262,A,66.37475549312435,88.07204835754268,3.3187377746562174,1.3834325005333057,A,723,Correct
2,new_learn,52,263,B,47.08942863716946,19.654132455866893,2.354471431858473,0.3087263906801608,B,650,Correct
2,new_learn,52,264,B,58.12987595309643,25.56227626863486,2.9064937976548215,0.40153129667288,B,665,Correct
2,new_learn,52,265,A,59.05705835702881,83.75283560468964,2.9528529178514407,1.315586465265033,A,648,Correct
2,new_learn,52,266,A,64.87469161085477,88.36115922333423,3.243734580542738,1.387973843393524,A,496,Correct
2,new_learn,52,267,A,27.20038813329412,57.7467563097302,1.360019406664706,0.9070839269564421,B,527,Incorrect
2,new_learn,52,268,B,57.48329423067129,29.129139384846,2.8741647115335645,0.4575594514841265,B,843,Correct
2,new_learn,52,269,B,30.95422635777861,10.763627656693949,1.5477113178889306,0.16907466786122816,B,1173,Correct
2,new_learn,52,270,B,54.79733946985678,30.710704077037338,2.739866973492839,0.482402611574953,B,610,Correct
2,new_learn,52,271,A,23.74984755155422,54.68377264036448,1.1874923775777109,0.8589706919877179,A,627,Correct
2,new_learn,52,272,A,28.884616132961476,55.02352433662409,1.4442308066480738,0.8643074991527873,A,656,Correct
2,new_learn,52,273,B,51.847776174154745,32.76454883064848,2.5923888087077374,0.5146643295227464,B,726,Correct
2,new_learn,52,274,A,27.244997499506447,46.688432237462095,1.3622498749753222,0.7333801786241789,A,2767,Correct
2,new_learn,52,275,B,67.8374999578414,48.14555633499354,3.39187499789207,0.7562686304250461,A,974,Incorrect
2,new_learn,52,276,A,28.405396249783756,46.95336215287186,1.420269812489188,0.7375416880040163,A,1110,Correct
2,new_learn,52,277,B,33.10820288377189,16.70970298680688,1.6554101441885944,0.26247540073509956,B,838,Correct
2,new_learn,52,278,A,13.880990543075825,33.06324178337808,0.6940495271537912,0.5193561874526184,A,1085,Correct
2,new_learn,52,279,B,52.75750519791692,42.625161758605856,2.637875259895846,0.6695544751945638,A,1282,Incorrect
2,new_learn,52,280,A,55.6409939940427,76.9105703754187,2.7820496997021347,1.2081084143740808,A,1817,Correct
2,new_learn,52,281,A,40.444305409194186,55.240754168889254,2.0222152704597094,0.8677197373787111,A,835,Correct
2,new_learn,52,282,B,66.59545003321215,38.79717018604906,3.3297725016606075,0.6094245241828233,B,985,Correct
2,new_learn,52,283,B,43.50284375062938,31.48386709960595,2.175142187531469,0.4945474279335972,B,896,Correct
2,new_learn,52,284,A,30.96703071589787,54.703431149528456,1.5483515357948934,0.8592794871275683,B,938,Incorrect
2,new_learn,52,285,B,73.3425421141607,61.43956231927983,3.6671271057080346,0.9650903881101088,A,4153,Incorrect
2,new_learn,52,286,A,47.22100626029045,66.15658098828584,2.3610503130145224,1.0391851440970847,A,1075,Correct
2,new_learn,52,287,A,21.667306481057654,48.11033578438719,1.0833653240528827,0.7557153873098446,A,648,Correct
2,new_learn,52,288,B,57.272815541971745,37.37517215401072,2.8636407770985874,0.5870878313284694,B,866,Correct
2,new_learn,52,289,A,46.75831229725483,65.9911793111482,2.337915614862742,1.0365870206281496,A,853,Correct
2,new_learn,52,290,B,39.07758489284383,16.602117057569973,1.9538792446421918,0.2607854449104981,B,996,Correct
2,new_learn,52,291,A,21.73838481934236,38.581079990008604,1.086919240967118,0.606030187320856,A,1820,Correct
2,new_learn,52,292,A,42.379341827830075,60.51645540384275,2.1189670913915037,0.9505902585900337,A,655,Correct
2,new_learn,52,293,B,65.27389445898744,55.62973215641301,3.2636947229493725,0.8738297893187751,A,938,Incorrect
2,new_learn,52,294,B,44.59677453616624,34.188581405641564,2.2298387268083117,0.5370329809031007,B,1092,Correct
2,new_learn,52,295,B,55.39676345800968,47.29933089897422,2.769838172900484,0.7429761523596505,B,742,Correct
2,new_learn,52,296,B,48.97351134749047,35.05208684536484,2.4486755673745235,0.550596892631948,B,765,Correct
2,new_learn,52,297,B,63.78414823178904,56.07648305284417,3.189207411589452,0.8808473359898388,A,576,Incorrect
2,new_learn,52,298,A,31.39480193478078,46.52944683549956,1.5697400967390391,0.7308828417700114,A,637,Correct
2,new_learn,52,299,B,56.19562632765187,30.530618870553816,2.8097813163825935,0.47957383976640894,B,692,Correct
2,new_learn,52,300,B,60.44665707006367,50.93396398973972,3.0223328535031833,0.8000688354418669,B,445,Correct
2,new_learn,52,301,A,34.04127296085593,65.2659692790943,1.7020636480427964,1.0251954480830991,A,613,Incorrect
2,new_learn,52,302,B,63.07831652955955,32.723759352392904,3.1539158264779776,0.5140236098965891,B,818,Correct
2,new_learn,52,303,B,69.97776940367731,55.793429336150815,3.4988884701838656,0.8764011386051632,B,726,Correct
2,new_learn,52,304,A,60.36764935797198,69.0140360872861,3.018382467898599,1.0840699438319943,B,882,Incorrect
2,new_learn,52,305,A,53.16709895965928,69.07093239271326,2.658354947982964,1.0849636689077262,A,751,Incorrect
2,new_learn,52,306,A,33.527081568931564,50.57250340724465,1.6763540784465782,0.794391025889223,A,2363,Correct
2,new_learn,52,307,B,85.32893505125598,57.44652943057446,4.266446752562799,0.9023679741666127,A,988,Incorrect
2,new_learn,52,308,B,74.77037064480712,48.74228497162927,3.7385185322403562,0.7656420219302534,B,760,Correct
2,new_learn,52,309,A,50.34049759252932,79.36395630935105,2.517024879626466,1.2466461105063928,A,1846,Incorrect
2,new_learn,52,310,B,33.32527701623381,13.337526048599248,1.6662638508116907,0.20950536925670948,B,879,Correct
2,new_learn,52,311,B,51.34612661057758,33.09277127506606,2.567306330528879,0.5198200356233744,B,637,Correct
2,new_learn,52,312,A,34.20233337938653,43.60459973671239,1.7101166689693263,0.6849394509778952,B,800,Incorrect
2,new_learn,52,313,A,26.901006040768838,50.00385929137458,1.345050302038442,0.7854587850046006,A,927,Incorrect
2,new_learn,52,314,B,72.11443275582606,43.1324992712282,3.605721637791303,0.6775237142072881,B,1141,Correct
2,new_learn,52,315,A,26.92126034400207,52.88022389954092,1.3460630172001036,0.8306406146149058,A,1185,Correct
2,new_learn,52,316,A,60.068931338232304,79.04577485890323,3.003446566911615,1.2416481279702158,A,1013,Incorrect
2,new_learn,52,317,A,27.51120657332864,57.71772727808267,1.375560328666432,0.9066279399936186,B,1253,Incorrect
2,new_learn,52,318,A,62.0234538470219,75.94289566863316,3.1011726923510947,1.19290821562457,B,2084,Incorrect
2,new_learn,52,319,B,40.97828116576416,22.66488641405673,2.048914058288208,0.3560192032642387,B,933,Incorrect
2,new_learn,52,320,A,59.32318587771423,82.96459535342197,2.9661592938857115,1.3032048163518017,A,1640,Correct
2,new_learn,52,321,A,56.38342665082177,82.82513353128334,2.8191713325410883,1.3010141551723668,A,665,Correct
2,new_learn,52,322,A,33.388113007272935,42.518806186457596,1.6694056503636465,0.6678838457739172,A,1567,Incorrect
2,new_learn,52,323,A,12.697360798532696,37.31513982597359,0.6348680399266349,0.5861448457247728,B,1866,Incorrect
2,new_learn,52,324,B,50.167309256885964,40.531639133859635,2.5083654628442984,0.6366694987044299,B,2001,Correct
2,new_learn,52,325,B,82.85558527116963,58.10315265874813,4.142779263558482,0.9126821877156469,A,3177,Incorrect
2,new_learn,52,326,B,81.92449785263426,62.76685624208631,4.096224892631713,0.985939472295325,B,997,Correct
2,new_learn,52,327,A,48.35765977907361,70.96979013872598,2.4178829889536804,1.1147908566331546,B,1886,Incorrect
2,new_learn,52,328,B,70.18232645192182,60.29383448559201,3.5091163225960913,0.9470933373834738,B,1108,Correct
2,new_learn,52,329,B,72.58888373928842,47.49438425471407,3.6294441869644207,0.7460400433069023,B,614,Incorrect
2,new_learn,52,330,B,72.05851759922933,57.38821269337605,3.6029258799614667,0.9014519370007935,B,1958,Correct
2,new_learn,52,331,B,30.471864336511008,13.917177139658587,1.5235932168255504,0.21861050730329615,A,791,Incorrect
2,new_learn,52,332,A,33.87722449864443,51.73488755604606,1.6938612249322216,0.8126497134018417,A,849,Correct
2,new_learn,52,333,B,36.576583540189475,11.892381606690073,1.8288291770094736,0.18680509344631957,B,813,Correct
2,new_learn,52,334,A,55.501238630168274,74.50095972587931,2.7750619315084135,1.1702583388010575,B,2495,Incorrect
2,new_learn,52,335,B,49.819907914360286,37.12986007311528,2.490995395718014,0.5832344781725798,B,716,Correct
2,new_learn,52,336,A,21.58345906290413,49.97918421680201,1.0791729531452063,0.7850711898395806,A,3544,Correct
2,new_learn,52,337,B,77.24143938457446,61.262319222303574,3.862071969228723,0.9623062600533083,B,1228,Incorrect
2,new_learn,52,338,A,34.22791884716604,51.350688978161614,1.711395942358302,0.8066147362528344,A,1936,Correct
2,new_learn,52,339,B,54.54841191856654,47.65413417315916,2.7274205959283275,0.7485493891578956,B,1986,Correct
2,new_learn,52,340,B,61.234149600146495,41.31713011193812,3.0617074800073247,0.6490079621353921,B,738,Incorrect
2,new_learn,52,341,B,49.48497651129419,31.636666229525538,2.4742488255647093,0.4969475910537486,B,2706,Correct
2,new_learn,52,342,B,71.67800924216307,43.37499431659232,3.5839004621081534,0.6813328174725274,B,873,Incorrect
2,new_learn,52,343,B,69.76432617601314,57.61990300892202,3.488216308800657,0.9050913199669292,A,897,Correct
2,new_learn,52,344,A,38.086792096297216,46.44225998774371,1.9043396048148609,0.7295133139680142,A,1875,Correct
2,new_learn,52,345,B,73.46723509311914,61.91757075021397,3.673361754655957,0.9725989269849923,A,602,Correct
2,new_learn,52,346,B,83.40854418815861,67.4932214242761,4.17042720940793,1.0601810429680751,A,691,Correct
2,new_learn,52,347,A,37.43801102079021,53.67858642365823,1.8719005510395106,0.8431812638182475,A,994,Correct
2,new_learn,52,348,A,55.18100913095642,74.07327340567062,2.759050456547821,1.1635402577930152,A,639,Incorrect
2,new_learn,52,349,B,36.88714524745283,16.875795560814808,1.8443572623726414,0.2650843767866952,B,1194,Correct
2,new_learn,52,350,A,29.201722447221485,46.07868382015591,1.4600861223610742,0.7238022728824433,A,797,Correct
2,new_learn,52,351,B,70.42012519011978,49.11384767005485,3.521006259505989,0.7714785151488626,B,2043,Correct
2,new_learn,52,352,B,55.9709792184974,46.83136057427786,2.7985489609248697,0.7356252916888301,B,2427,Correct
2,new_learn,52,353,A,46.75742745822208,73.24575970147436,2.337871372911104,1.1505417029237757,A,795,Correct
2,new_learn,52,354,A,51.24662196577635,67.40193996681742,2.5623310982888174,1.0587471971872695,A,669,Incorrect
2,new_learn,52,355,B,60.50849614189251,32.714290721905705,3.0254248070946255,0.5138748769966984,B,749,Correct
2,new_learn,52,356,B,67.24844706260792,45.596323443414136,3.362422353130396,0.7162253738026697,B,2863,Incorrect
2,new_learn,52,357,A,61.50100095442311,84.3632873477361,3.0750500477211555,1.3251754188216625,A,599,Incorrect
2,new_learn,52,358,A,38.451030248936256,61.58879012268101,1.9225515124468129,0.9674344529644916,A,551,Correct
2,new_learn,52,359,B,31.261459433052934,10.58290179461764,1.5630729716526468,0.1662358326581651,B,1700,Incorrect
2,new_learn,52,360,B,39.87740233238611,14.81753842147533,1.9938701166193056,0.23275334924595698,A,977,Correct
2,new_learn,52,361,B,42.739735560095866,32.67781176397176,2.1369867780047933,0.5133018668654189,A,2268,Correct
2,new_learn,52,362,A,67.69330932501197,87.20369138251394,3.384665466250598,1.3697923810660866,A,1040,Incorrect
2,new_learn,52,363,B,54.19817605815847,37.45950870092222,2.7099088029079237,0.5884125867095009,B,699,Incorrect
2,new_learn,52,364,A,31.53460901543796,48.783337522576225,1.5767304507718982,0.7662868738925838,101,3426,Correct
2,new_learn,52,365,B,75.45398031429511,48.24005504173153,3.7726990157147555,0.7577530126393551,B,1360,Correct
2,new_learn,52,366,B,30.929572320624228,11.611482129525346,1.5464786160312114,0.18239273477702997,B,1099,Correct
2,new_learn,52,367,B,68.03126315345301,44.49890693699577,3.4015631576726504,0.698987195630209,B,1889,Correct
2,new_learn,52,368,A,47.972623096711914,60.526106947060626,2.398631154835596,0.9507418646763791,A,1014,Incorrect
2,new_learn,52,369,B,49.8074851667966,31.136362116994718,2.49037425833983,0.4890888324313107,B,589,Correct
2,new_learn,52,370,A,31.501911764038393,53.76888837749181,1.5750955882019195,0.8445997235920895,A,830,Correct
2,new_learn,52,371,A,34.59150971717132,48.885297283636724,1.7295754858585661,0.7678884540741311,A,632,Correct
2,new_learn,52,372,A,32.96464361004208,58.778588267212385,1.648232180502104,0.9232919054432682,A,1634,Correct
2,new_learn,52,373,A,57.03420523009451,71.06586133769841,2.851710261504725,1.116299939497721,B,1235,Incorrect
2,new_learn,52,374,A,20.768535489966357,51.865900090859824,1.0384267744983178,0.8147076534863369,A,702,Correct
2,new_learn,52,375,B,75.12410814688258,53.27713154309396,3.7562054073441287,0.8368752253006051,B,2008,Correct
2,new_learn,52,376,A,47.58222416387559,74.12007575405929,2.3791112081937795,1.1642754273623581,A,1260,Correct
2,new_learn,52,377,A,53.915463680561245,67.36939500920859,2.695773184028062,1.058235982188593,A,6335,Incorrect
2,new_learn,52,378,A,15.343019603881562,31.595458122880896,0.767150980194078,0.49630029562823297,A,748,Correct
2,new_learn,52,379,B,52.09182153426897,44.397931617050574,2.604591076713449,0.6974010790135404,B,2120,Correct
2,new_learn,52,380,B,89.25245040298549,68.96879981260993,4.462622520149274,1.0833593740910024,B,2986,Correct
2,new_learn,52,381,B,51.23507273297456,31.57555353752724,2.561753636648728,0.4959876351326339,B,708,Correct
2,new_learn,52,382,A,30.944619888855886,47.38626190772404,1.5472309944427942,0.7443416614519385,A,2223,Incorrect
2,new_learn,52,383,B,79.35170989042922,53.59544193736688,3.967585494521461,0.8418752332816505,B,845,Correct
2,new_learn,52,384,B,74.41416365676926,45.19250707294067,3.7207081828384627,0.7098822410882758,B,817,Correct
2,new_learn,52,385,A,13.330358728661405,38.3065225157864,0.6665179364330703,0.6017174486008326,A,1031,Incorrect
2,new_learn,52,386,B,50.998635473482764,30.738721994996148,2.549931773674138,0.48284271600109446,B,831,Correct
2,new_learn,52,387,A,32.708450625099736,53.38464062224099,1.6354225312549868,0.8385639739668176,B,762,Correct
2,new_learn,52,388,A,50.06495656420103,63.53813206508617,2.5032478282100517,0.9980546445924638,B,1511,Incorrect
2,new_learn,52,389,A,59.34503551077075,83.87227285928998,2.9672517755385375,1.3174625812731202,A,4771,Correct
2,new_learn,52,390,B,77.92452782212229,66.33611372918126,3.896226391106114,1.0420052377964644,B,1325,Correct
2,new_learn,52,391,B,64.29273415432083,39.543162563475775,3.2146367077160414,0.6211425450456121,B,931,Incorrect
2,new_learn,52,392,A,48.935226112236066,56.77824576368275,2.4467613056118034,0.8918705988745075,A,667,Correct
2,new_learn,52,393,B,67.80262495854855,43.06212948530819,3.3901312479274277,0.6764183481948831,B,873,Correct
2,new_learn,52,394,B,66.07896143441887,37.47302012240562,3.303948071720944,0.5886248236218599,B,753,Incorrect
2,new_learn,52,395,A,54.2686808779293,81.3539940819946,2.7134340438964646,1.2779055507409087,A,1362,Correct
2,new_learn,52,396,A,33.767499597463186,55.673410238529954,1.6883749798731593,0.8745158830282823,A,1281,Incorrect
2,new_learn,52,397,A,60.335864974062474,75.13725355442038,3.0167932487031237,1.1802532188874033,A,2600,Correct
2,new_learn,52,398,B,77.0966010015782,65.11411867369489,3.854830050078909,1.0228101843512694,B,1162,Correct
2,new_learn,52,399,B,82.63855468134487,52.59615602923816,4.131927734067244,0.8261784869425856,B,3377,Correct
2,new_learn,52,400,B,48.75639932204742,41.39875553682405,2.437819966102371,0.6502901313112309,B,3078,Incorrect
2,new_learn,52,401,A,44.34193986907793,61.60186622911438,2.2170969934538967,0.9676398519640346,A,1255,Correct
2,new_learn,52,402,A,43.992919240266154,70.1629048748562,2.199645962013308,1.1021163325468386,A,808,Incorrect
2,new_learn,52,403,B,48.10074493108012,35.20347711633851,2.405037246554006,0.5529749254475274,B,763,Correct
2,new_learn,52,404,A,27.30932329732592,49.81438660279703,1.365466164866296,0.7824825549721448,A,812,Correct
2,new_learn,52,405,B,65.52666267557505,49.35101425920173,3.2763331337787527,0.7752039192195666,B,539,Correct
2,new_learn,52,406,A,60.95281299632829,70.77874915025197,3.047640649816415,1.111789991803532,A,780,Correct
2,new_learn,52,407,A,59.2480546694387,75.44381867272641,2.962402733471935,1.185068732504989,B,1383,Correct
2,new_learn,52,408,A,54.59811590231012,75.19700685010538,2.729905795115506,1.181191821461162,A,1537,Incorrect
2,new_learn,52,409,B,37.96035449805753,17.227013385469792,1.8980177249028765,0.2706012934754247,B,701,Incorrect
2,new_learn,52,410,B,33.37379963860418,11.892254421215416,1.668689981930209,0.18680309562155545,A,986,Correct
2,new_learn,52,411,B,82.44733884082277,59.101532477465796,4.122366942041139,0.9283647012355255,A,1669,Incorrect
2,new_learn,52,412,B,72.17595278721453,43.46786953205952,3.6087976393607266,0.6827916979455889,B,1523,Correct
2,new_learn,52,413,A,61.954915107474875,71.9749776627408,3.097745755373744,1.1305803053377799,A,687,Correct
2,new_learn,52,414,B,45.66928355700952,36.52265315253384,2.283464177850476,0.5736964941680421,B,1184,Incorrect
2,new_learn,52,415,A,22.797221638015174,51.812456750304506,1.1398610819007586,0.8138681674559777,A,616,Incorrect
2,new_learn,52,416,A,52.007189881222196,81.6848465570669,2.60035949406111,1.2831025692664544,A,840,Correct
2,new_learn,52,417,B,60.146893617485254,39.22418629956157,3.0073446808742625,0.6161320776087003,B,750,Incorrect
2,new_learn,52,418,A,47.361630721851256,66.6045104500061,2.368081536092563,1.0462212036284189,A,4270,Incorrect
2,new_learn,52,419,A,28.18876139711544,55.37189270282347,1.409438069855772,0.8697796566527626,B,1579,Incorrect
2,new_learn,52,420,A,11.717426578096998,34.071209940154056,0.5858713289048498,0.5351893142345175,A,1186,Correct
2,new_learn,52,421,A,27.476872972931258,39.17701765700399,1.3738436486465628,0.6153911543040066,A,713,Correct
2,new_learn,52,422,B,63.90622013851169,48.872484782524154,3.195311006925585,0.7676871957772842,A,1521,Correct
2,new_learn,52,423,A,24.236787134654584,42.67826532218091,1.211839356732729,0.670388624020598,B,1291,Incorrect
2,new_learn,52,424,B,51.69091273094441,25.711547867041958,2.5845456365472206,0.40387604945760663,B,745,Correct
2,new_learn,52,425,B,58.32339015122863,37.77948325295291,2.916169507561431,0.5934387352194773,A,1051,Incorrect
2,new_learn,52,426,B,40.817616056701475,15.748557387282197,2.0408808028350736,0.24737776096261505,B,1722,Correct
2,new_learn,52,427,A,35.44890924883599,48.49775139602953,1.7724454624417996,0.7618008975069525,A,895,Correct
2,new_learn,52,428,B,57.58989323146854,29.600167105630135,2.8794946615734265,0.4649583376203894,B,694,Incorrect
2,new_learn,52,429,B,67.67140956594054,37.94786206987596,3.3835704782970266,0.5960836234908053,B,1417,Correct
2,new_learn,52,430,A,65.140138645251,82.08487626830095,3.25700693226255,1.2893862212766072,A,885,Correct
2,new_learn,52,431,B,57.79250501365413,29.641014698804632,2.8896252506827063,0.46559997011355847,B,668,Correct
2,new_learn,52,432,A,39.94051901608879,54.32407749255887,1.9970259508044395,0.8533206138183279,A,1667,Incorrect
2,new_learn,52,433,B,86.1320323079108,69.25244749804224,4.3066016153955395,1.087814901514812,A,900,Incorrect
2,new_learn,52,434,B,88.79668779438666,65.10830241729971,4.4398343897193335,1.0227188228094566,B,629,Correct
2,new_learn,52,435,B,78.00469373984816,59.63237952618245,3.900234686992408,0.9367032271776659,B,1671,Incorrect
2,new_learn,52,436,A,38.02580138598941,47.77953263472483,1.9012900692994705,0.7505191435860266,A,4393,Correct
2,new_learn,52,437,B,71.0176493177341,45.18880543078057,3.550882465886705,0.7098240958291939,B,2108,Correct
2,new_learn,52,438,A,66.66011756257552,89.67458357355055,3.333005878128776,1.4086050648419517,A,698,Incorrect
2,new_learn,52,439,A,52.23238030334669,81.65500044156185,2.6116190151673346,1.28263374758041,A,3816,Correct
2,new_learn,52,440,A,37.95228396597255,68.35443749811023,1.8976141982986274,1.0737089934216288,B,814,Incorrect
2,new_learn,52,441,B,54.66461408032358,31.878072777799886,2.733230704016179,0.5007395962466844,B,718,Correct
2,new_learn,52,442,A,17.28326204569963,45.467678526192124,0.8641631022849815,0.7142046241683379,A,829,Incorrect
2,new_learn,52,443,A,33.47696131528014,44.72397518999346,1.6738480657640071,0.7025225594810782,A,2055,Incorrect
2,new_learn,52,444,A,54.16999136304292,64.14253750185419,2.7084995681521455,1.0075486229921646,A,909,Incorrect
2,new_learn,52,445,B,43.14021804874945,15.624430287447034,2.157010902437473,0.24542797703784727,A,883,Correct
2,new_learn,52,446,B,56.34288407217585,26.314928744541575,2.8171442036087924,0.41335393411795346,B,2950,Incorrect
2,new_learn,52,447,B,49.59822685346519,18.825792919622696,2.4799113426732595,0.295714863671447,A,1822,Incorrect
2,new_learn,52,448,A,40.970497160970375,54.164370461328815,2.048524858048519,0.8508119416381329,A,2814,Correct
2,new_learn,52,449,B,79.66057465720257,55.71359880987784,3.9830287328601286,0.8751471636308064,B,1345,Correct
2,new_learn,52,450,A,58.40253414897961,70.26552403913425,2.9201267074489805,1.1037282706099059,A,1679,Incorrect
2,new_learn,52,451,B,61.738745732808084,32.0295723324254,3.086937286640404,0.5031193456858527,B,2317,Incorrect
2,new_learn,52,452,A,47.26657501719298,78.30348271312364,2.3633287508596488,1.229988230210223,A,719,Correct
2,new_learn,52,453,A,54.03059183763797,61.41818827041158,2.701529591881899,0.9647546453355991,B,1876,Correct
2,new_learn,52,454,A,22.560723459169154,41.727046100188474,1.1280361729584576,0.6554469074217737,A,860,Incorrect
2,new_learn,52,455,A,55.678271802799614,70.49935417227023,2.7839135901399805,1.1074012657521453,B,1354,Incorrect
2,new_learn,52,456,B,49.070188314610476,36.364083711460346,2.4535094157305237,0.5712056912122404,B,675,Incorrect
2,new_learn,52,457,A,19.944454678633292,44.216681459936055,0.9972227339316646,0.6945540082032755,A,1089,Correct
2,new_learn,52,458,B,32.27348454781267,15.43771147888759,1.6136742273906335,0.24249500485156036,B,725,Correct
2,new_learn,52,459,B,71.51566072021767,40.89944899436821,3.5757830360108835,0.642447042482888,B,4564,Correct
2,new_learn,52,460,A,28.43026456519415,54.566777145908155,1.4215132282597074,0.8571329310582824,A,4623,Incorrect
2,new_learn,52,461,A,47.04292186365989,63.652035482279494,2.3521460931829945,0.9998438352858304,B,1432,Incorrect
2,new_learn,52,462,B,66.24090737100715,38.829009678054256,3.3120453685503577,0.6099246577537111,A,2362,Correct
2,new_learn,52,463,B,67.88200959052334,55.81732201838908,3.394100479526167,0.8767764439801348,A,3316,Correct
2,new_learn,52,464,A,31.4830418249822,51.30252555126902,1.57415209124911,0.805858186912347,A,3845,Correct
2,new_learn,52,465,A,55.97669501903423,69.60119602063892,2.7988347509517113,1.093293030497512,B,2792,Incorrect
2,new_learn,52,466,B,56.69467952982606,39.87737971618464,2.8347339764913033,0.6263924158038815,B,821,Correct
2,new_learn,52,467,B,82.13156940001355,64.32633428410531,4.106578470000677,1.0104356960965326,B,1762,Correct
2,new_learn,52,468,A,41.03836946282901,52.09920480660475,2.05191847314145,0.8183723953914978,B,1884,Incorrect
2,new_learn,52,469,B,33.301565215757584,13.252286487077562,1.6650782607878793,0.2081664293553508,A,1024,Correct
2,new_learn,52,470,A,49.51133172955406,71.97871963877893,2.475566586477703,1.1306390841599363,A,873,Incorrect
2,new_learn,52,471,B,47.36887751320742,32.162884675928055,2.368443875660371,0.5052134110807566,B,1094,Correct
2,new_learn,52,472,A,38.90660079165824,47.34691790501949,1.945330039582912,0.7437236473026414,B,1666,Incorrect
2,new_learn,52,473,A,45.024532532823656,61.63463271959274,2.251226626641183,0.9681545467928881,B,1715,Incorrect
2,new_learn,52,474,B,88.28964809393324,67.35534189636994,4.4144824046966615,1.058015236408323,B,1868,Incorrect
2,new_learn,52,475,B,41.4513688286947,26.75687405424545,2.0725684414347345,0.4202959948092242,B,1243,Correct
2,new_learn,52,476,B,46.24753987684584,21.73274087955383,2.312376993842292,0.34137709544788447,A,1005,Incorrect
2,new_learn,52,477,A,61.979012085961585,74.39334800301168,3.0989506042980794,1.168567977811052,A,1048,Incorrect
2,new_learn,52,478,A,37.64456668458856,69.36561111433971,1.8822283342294281,1.0895924714428808,B,10231,Incorrect
2,new_learn,52,479,B,75.14424191423308,49.356620079796016,3.7572120957116537,0.7752919752435482,B,868,Incorrect
2,new_learn,52,480,A,32.067865053984576,43.729705578295565,1.6033932526992287,0.6869046089420897,A,973,Correct
2,new_learn,52,481,B,61.81904095278052,39.591566062784146,3.0909520476390258,0.6219028654347881,B,1970,Correct
2,new_learn,52,482,B,83.35644498520658,63.28798789641672,4.167822249260329,0.9941253891793126,B,1124,Incorrect
2,new_learn,52,483,A,16.34742980410658,38.19899485247463,0.817371490205329,0.600028408015243,A,779,Incorrect
2,new_learn,52,484,B,41.63404614810023,17.510276518916612,2.0817023074050116,0.2750507803707714,A,1106,Incorrect
2,new_learn,52,485,B,69.20318632832982,52.723678042846856,3.460159316416491,0.8281815980482059,B,1442,Correct
2,new_learn,52,486,A,29.307264999628153,61.870523835145114,1.4653632499814078,0.9718599157712203,B,2462,Incorrect
2,new_learn,52,487,A,68.52704214071528,88.9198254561427,3.426352107035764,1.396749352057523,A,985,Incorrect
2,new_learn,52,488,A,38.761653087720575,56.532009553448084,1.9380826543860286,0.8880027295289026,B,3269,Incorrect
2,new_learn,52,489,B,79.86543555680652,58.79261323842448,3.993271777840326,0.9235122091759019,B,780,Correct
2,new_learn,52,490,B,41.39367608955204,22.467063379819535,2.069683804477602,0.35291180630888663,B,2533,Incorrect
2,new_learn,52,491,A,40.835403475125624,52.01048910120043,2.041770173756281,0.8169788523497162,B,1681,Correct
2,new_learn,52,492,A,12.697647517013031,36.02366581926849,0.6348823758506515,0.565858419465938,B,1784,Incorrect
2,new_learn,52,493,B,66.18707926761742,41.6454732494319,3.3093539633808713,0.6541655640784275,B,3832,Correct
2,new_learn,52,494,B,54.796796885356436,35.64304455722977,2.739839844267822,0.5598796346628335,B,1784,Correct
2,new_learn,52,495,B,60.15663543800063,36.36408466451999,3.0078317719000314,0.5712057061828664,B,904,Incorrect
2,new_learn,52,496,B,88.62793492279425,62.551409120685975,4.431396746139712,0.9825552368261833,A,1061,Correct
2,new_learn,52,497,B,55.93157354108134,44.09053939601051,2.7965786770540673,0.6925725732965898,B,1236,Correct
2,new_learn,52,498,A,30.80730785209181,57.70348073983104,1.5403653926045906,0.9064041558940666,B,2610,Incorrect
2,new_learn,52,499,A,38.69444736510107,64.70990915553179,1.9347223682550534,1.0164608760874076,A,895,Incorrect
2,new_learn,52,500,B,57.95394588770676,30.366967986680137,2.897697294385338,0.4770032176937538,B,3804,Incorrect
2,new_learn,52,501,A,63.39040581939709,84.14267991686248,3.1695202909698543,1.321710125400863,A,1163,Correct
2,new_learn,52,502,B,53.170944741624524,28.697599345484143,2.658547237081226,0.45078083639718125,B,3072,Correct
2,new_learn,52,503,B,89.26998926967097,68.97335350622394,4.463499463483549,1.0834309033430247,B,3293,Correct
2,new_learn,52,504,A,39.12378423382164,66.82093635443353,1.956189211691082,1.0496208137853975,B,4528,Incorrect
2,new_learn,52,505,A,48.93356668460784,70.28992192341798,2.446678334230392,1.1041115116800502,A,1092,Correct
2,new_learn,52,506,A,54.53626334983043,63.85144072423174,2.7268131674915215,1.002976085501853,B,1350,Correct
2,new_learn,52,507,A,25.145556312505644,41.53293478404824,1.2572778156252822,0.6523978139979495,B,5541,Correct
2,new_learn,52,508,B,56.76629458948419,26.982908305288447,2.8383147294742095,0.423846532521906,B,1271,Correct
2,new_learn,52,509,B,60.43702144754727,47.066809761977304,3.0218510723773635,0.7393237188806813,B,1740,Correct
2,new_learn,52,510,B,55.43677477713084,26.647917690738083,2.7718387388565424,0.4185845122534411,B,875,Incorrect
2,new_learn,52,511,B,69.7929720056493,47.10485297391905,3.489648600282465,0.739921300256457,B,1583,Incorrect
2,new_learn,52,512,B,78.31217041945436,58.75012669280851,3.9156085209727176,0.9228448320779841,A,994,Correct
2,new_learn,52,513,B,57.92105542493617,47.61884299760263,2.8960527712468087,0.7479950366685709,B,877,Incorrect
2,new_learn,52,514,A,34.5163833931193,60.220534197912926,1.7258191696559648,0.9459419391570806,A,912,Correct
2,new_learn,52,515,A,52.679218173017674,66.57537335130027,2.6339609086508835,1.0457635191522132,A,5634,Correct
2,new_learn,52,516,B,41.468063392190466,28.01891695733538,2.073403169609523,0.4401201183735366,B,766,Incorrect
2,new_learn,52,517,A,61.03130765914534,73.46288250733811,3.051565382957267,1.1539522599829175,A,1969,Incorrect
2,new_learn,52,518,A,14.635025282195052,31.451866431548332,0.7317512641097526,0.4940447626151983,A,2386,Correct
2,new_learn,52,519,A,44.24645141305816,74.54034499102114,2.212322570652908,1.1708770010992038,A,2159,Incorrect
2,new_learn,52,520,A,41.93073843066984,69.63800578675287,2.096536921533492,1.0938712369515315,B,10931,Incorrect
2,new_learn,52,521,A,59.90934656236246,83.68098850067454,2.9954673281181226,1.3144578935942555,A,1657,Incorrect
2,new_learn,52,522,B,48.86650770647808,39.694812376143005,2.443325385323904,0.6235246547325803,A,2512,Incorrect
2,new_learn,52,523,B,42.693295857868065,28.018415358689314,2.1346647928934033,0.44011223928042886,B,3151,Incorrect
2,new_learn,52,524,B,49.56496065206433,23.083403907437088,2.4782480326032164,0.3625932606772514,A,2755,Incorrect
2,new_learn,52,525,B,37.769475796236364,22.37765461911169,1.888473789811818,0.351507376779855,B,5583,Incorrect
2,new_learn,52,526,A,28.597624325592136,53.96305285187659,1.4298812162796068,0.847649652023666,A,2226,Incorrect
2,new_learn,52,527,A,32.00421890605529,58.0808390639837,1.6002109453027646,0.9123316865887114,B,2525,Correct
2,new_learn,52,528,A,46.861040225628585,66.81639443162068,2.3430520112814293,1.0495494694286873,B,6601,Incorrect
2,new_learn,52,529,B,77.86122417907279,51.003577611404026,3.8930612089536396,0.8011623236539187,B,1017,Correct
2,new_learn,52,530,B,52.363488845427064,21.980573264401794,2.618174442271353,0.3452700374456844,B,880,Incorrect
2,new_learn,52,531,A,38.891719772365406,46.981633037256046,1.9445859886182704,0.7379857660174755,A,3058,Correct
2,new_learn,52,532,A,11.526850932082173,32.134862881719926,0.5763425466041086,0.5047732457666333,A,2680,Incorrect
2,new_learn,52,533,A,53.97299852354159,80.3065925460983,2.6986499261770795,1.2614530058882563,A,696,Correct
2,new_learn,52,534,A,44.23342065502071,73.32265660855066,2.2116710327510356,1.1517495967155493,A,2761,Incorrect
2,new_learn,52,535,A,15.057729289670835,41.0973390737241,0.7528864644835417,0.6455554925805019,A,4567,Correct
2,new_learn,52,536,A,60.978456607828534,72.76442473332911,3.048922830391427,1.1429809109245708,A,1473,Correct
2,new_learn,52,537,B,79.1101296071504,65.36414555977117,3.9555064803575197,1.0267375974937551,A,3496,Correct
2,new_learn,52,538,A,48.67173095002969,63.050817999675544,2.4335865475014846,0.9903999331530389,A,4274,Correct
2,new_learn,52,539,B,59.846651863566684,32.255629965608414,2.992332593178334,0.5066702506843309,B,911,Correct
2,new_learn,52,540,A,34.217762837351636,58.98397641022978,1.7108881418675819,0.9265181348494578,A,1165,Incorrect
2,new_learn,52,541,A,23.80826729603852,54.853411145567776,1.190413364801926,0.861635367396281,A,1415,Correct
2,new_learn,52,542,B,52.21293202796991,41.72621734577417,2.610646601398496,0.6554338893778757,B,1014,Correct
2,new_learn,52,543,A,15.355055717012789,33.89171482323029,0.7677527858506394,0.5323698115311029,B,3497,Incorrect
2,new_learn,52,544,A,21.834365393085758,40.64490244718944,1.091718269654288,0.6384486346698206,B,1752,Correct
2,new_learn,52,545,B,73.77631480781238,43.360871798927775,3.688815740390619,0.6811109814838017,B,2329,Incorrect
2,new_learn,52,546,B,68.85553467422854,52.13640907416435,3.4427767337114266,0.8189567986597346,B,3453,Incorrect
2,new_learn,52,547,B,71.39061437819576,52.619590789066635,3.5695307189097885,0.8265465992891643,A,3419,Incorrect
2,new_learn,52,548,A,58.29794711183463,68.85620127578844,2.9148973555917315,1.0815906804105855,A,1202,Incorrect
2,new_learn,52,549,A,49.93353928205078,73.18710306443084,2.496676964102539,1.1496203266236749,A,2744,Correct
2,new_learn,52,550,A,29.27551859296844,45.84296480695594,1.4637759296484218,0.7200996072815411,A,8273,Incorrect
2,new_learn,52,551,A,35.0282790705233,51.125200916999724,1.7514139535261648,0.8030727780707423,B,1760,Incorrect
2,new_learn,52,552,B,68.5102237907131,59.52571154866395,3.425511189535655,0.9350276905049388,B,8492,Correct
2,new_learn,52,553,B,62.31603369638132,51.05942367018907,3.1158016848190657,0.8020395514939739,B,6317,Correct
2,new_learn,52,554,B,44.163830302554274,25.988460484450595,2.208191515127714,0.4082257826802932,B,4189,Correct
2,new_learn,52,555,A,26.645921983243166,50.25883229871285,1.3322960991621582,0.7894638916381885,A,10375,Correct
2,new_learn,52,556,B,71.71713751518904,62.405834112091185,3.5858568757594522,0.9802685499384449,B,784,Incorrect
2,new_learn,52,557,A,51.196454576303466,58.42728312611432,2.559822728815173,0.9177736171910581,A,864,Correct
2,new_learn,52,558,A,12.946759383593903,39.98037294521254,0.6473379691796951,0.6280102296622991,A,1646,Incorrect
2,new_learn,52,559,B,54.19754318961648,47.10212106127542,2.7098771594808237,0.7398783874729996,B,2732,Correct
2,new_learn,52,560,B,42.48821846019257,22.383411044918557,2.1244109230096284,0.35159779850498385,B,2347,Incorrect
2,new_learn,52,561,A,66.42924718669138,89.21927358584321,3.321462359334569,1.4014530722795147,A,1081,Correct
2,new_learn,52,562,A,43.24243237753307,50.486624233895185,2.1621216188766534,0.7930420389887677,A,4091,Correct
2,new_learn,52,563,B,44.11768392316493,21.908157275005873,2.2058841961582463,0.34413252974424113,A,2460,Correct
2,new_learn,52,564,B,45.583752014241114,31.05342408532139,2.2791876007120555,0.48778604487627014,A,1591,Correct
2,new_learn,52,565,A,16.008422915365436,38.14106223868721,0.8004211457682717,0.5991184046458541,A,1741,Correct
2,new_learn,52,566,A,55.774724180523606,81.64380868794696,2.7887362090261805,1.2824579479257234,A,893,Correct
2,new_learn,52,567,A,55.084248480681595,71.84603855498501,2.7542124240340797,1.12855493456935,A,1145,Correct
2,new_learn,52,568,B,86.50562899514304,67.17513306747499,4.325281449757153,1.0551845227434813,A,2180,Correct
2,new_learn,52,569,B,31.09055781269461,10.919124423693443,1.5545278906347304,0.17151720536554105,A,2112,Incorrect
2,new_learn,52,570,B,40.04531218550859,16.329677217175696,2.0022656092754296,0.2565059699048589,A,1809,Correct
2,new_learn,52,571,B,39.02918867085208,23.060252315438003,1.9514594335426039,0.36222959632053525,B,1963,Correct
2,new_learn,52,572,B,79.61506897068634,47.81846399244883,3.9807534485343172,0.7511306759231263,A,1284,Correct
2,new_learn,52,573,B,42.964691189730885,14.68909174739986,2.1482345594865446,0.23073571360768927,B,2533,Incorrect
2,new_learn,52,574,B,50.77599906876083,33.89762570703042,2.5387999534380414,0.5324626594767164,A,1104,Incorrect
2,new_learn,52,575,A,22.098409066553366,33.720553832341054,1.1049204533276682,0.5296812209733089,A,1663,Correct
2,new_learn,52,576,B,61.56181978695686,28.663036743239992,3.0780909893478428,0.4502379283106853,B,2975,Correct
2,new_learn,52,577,A,34.440900137202156,44.86336346528452,1.7220450068601079,0.7047120653893328,A,871,Correct
2,new_learn,52,578,A,15.806581344763448,33.25604809535487,0.7903290672381723,0.5223847819189784,A,1830,Correct
2,new_learn,52,579,B,52.118633166888074,20.54659095525262,2.6059316583444034,0.32274509600668055,B,1796,Incorrect
2,new_learn,52,580,B,84.09298424147843,68.18621148474655,4.204649212073922,1.0710665053829989,A,980,Incorrect
2,new_learn,52,581,B,84.74834308487378,69.20992906048458,4.23741715424369,1.0871470234594454,A,1238,Incorrect
2,new_learn,52,582,A,17.46789997757757,37.13744923337465,0.8733949988788785,0.5833536884231686,A,775,Incorrect
2,new_learn,52,583,B,77.35836211194324,55.357248234145914,3.8679181055971616,0.8695496218766967,B,1932,Incorrect
2,new_learn,52,584,A,54.94913200733444,67.85558235110118,2.7474566003667222,1.0658729950963832,A,1545,Correct
2,new_learn,52,585,B,42.725241578740295,26.323379601755754,2.1362620789370146,0.4134866798726564,B,856,Incorrect
2,new_learn,52,586,A,61.27155289529334,79.71052260761317,3.063577644764667,1.2520899611894034,B,4252,Correct
2,new_learn,52,587,B,60.928185522158884,40.789543884849365,3.0464092761079438,0.6407206570596061,B,2728,Correct
2,new_learn,52,588,B,43.686363842504775,35.04009816254545,2.1843181921252386,0.5504085748425899,B,1343,Correct
2,new_learn,52,589,A,57.46081314612954,66.18971293458863,2.8730406573064773,1.0397055794926047,B,3519,Incorrect
2,new_learn,52,590,A,57.68797889886967,78.24466828483764,2.884398944943484,1.229064375331081,A,734,Incorrect
2,new_learn,52,591,A,57.89139855214937,73.05241646255526,2.894569927607469,1.1475046744287283,B,1284,Correct
2,new_learn,52,592,A,41.02398548609259,49.20247744227317,2.0511992743046297,0.7728707083553147,A,3245,Correct
2,new_learn,52,593,B,49.9905023252556,23.444260489373168,2.4995251162627796,0.368261582611301,A,3256,Incorrect
2,new_learn,52,594,B,81.28302957892626,67.4602927340495,4.064151478946314,1.059663800311534,A,2252,Correct
2,new_learn,52,595,B,54.8994453111463,35.31872357142047,2.744972265557315,0.554785212530716,B,1574,Incorrect
2,new_learn,52,596,A,64.7804396213065,79.2920147763981,3.239021981065325,1.245516055549328,A,1620,Correct
2,new_learn,52,597,A,50.60097493406843,61.9930775562191,2.5300487467034216,0.973784985120201,B,1550,Incorrect
2,new_learn,52,598,A,44.30341544213663,75.58184776547724,2.215170772106832,1.1872368884238271,A,961,Correct
2,new_learn,52,599,A,16.645929268478657,40.383789072757295,0.8322964634239328,0.6343470753754704,A,786,Correct
2,new_learn,52,600,A,89.37388107139051,33.778550576769106,4.468694053569526,0.5305922317044455,B,863,Incorrect
2,new_learn,52,601,A,57.01634611542264,53.53397675268476,2.850817305771132,0.8409097404184058,B,3380,Incorrect
2,new_learn,52,602,A,70.1629048748562,56.007080759733846,3.5081452437428093,0.8797571673189506,A,1787,Correct
2,new_learn,52,603,A,50.486624233895185,56.75756762246693,2.524331211694759,0.8915457873918401,A,1913,Correct
2,new_learn,52,604,A,49.20247744227317,58.97601451390741,2.4601238721136585,0.9263930696744826,A,3352,Correct
2,new_learn,52,605,B,47.10212106127542,45.80245681038352,2.355106053063771,0.7194633091593232,B,4819,Correct
2,new_learn,52,606,A,67.36939500920859,46.084536319438755,3.368469750460429,0.7238942037262039,A,6446,Correct
2,new_learn,52,607,A,60.333100605119704,47.10234990804367,3.0166550302559854,0.7398819821896293,A,1875,Correct
2,new_learn,52,608,B,25.67630427321958,56.092125401994224,1.283815213660979,0.8810930454357123,A,1223,Incorrect
2,new_learn,52,609,B,19.485096695167304,56.48968091981027,0.9742548347583652,0.8873378329065371,A,2502,Incorrect
2,new_learn,52,610,A,39.98037294521254,87.0532406164061,1.9990186472606268,1.36742910595843,A,1050,Correct
2,new_learn,52,611,A,37.700334852847135,74.92168912038628,1.8850167426423567,1.1768671406757194,B,3602,Incorrect
2,new_learn,52,612,A,50.23847991259588,68.192442097982,2.511923995629794,1.0711643756268379,B,1083,Incorrect
2,new_learn,52,613,B,21.908157275005873,55.88231607683507,1.0954078637502938,0.8777973682628392,B,2800,Correct
2,new_learn,52,614,A,72.76442473332911,39.021543392171466,3.6382212366664555,0.6129489702629061,B,1406,Incorrect
2,new_learn,52,615,A,66.15658098828584,52.77899373970955,3.307829049414292,0.8290504949826659,A,1517,Correct
2,new_learn,52,616,A,36.33968582064135,80.80838412332457,1.8169842910320677,1.2693351295514927,A,2388,Correct
2,new_learn,52,617,B,55.357248234145914,22.641637888056763,2.767862411707296,0.35565401627179727,B,2199,Correct
2,new_learn,52,618,A,74.54034499102114,55.75354858694184,3.727017249551057,0.8757746932614903,A,2901,Correct
2,new_learn,52,619,B,25.56227626863486,41.87012404690357,1.2781138134317431,0.657694370553228,B,3489,Correct
2,new_learn,52,620,A,50.587771643212456,80.78931727635926,2.529388582160623,1.269035628219726,A,851,Correct
2,new_learn,52,621,A,30.92290635049574,88.94170487579427,1.546145317524787,1.3970930331777338,A,1445,Correct
2,new_learn,52,622,A,66.63220832112978,43.84784376931273,3.331610416056489,0.6887603193071293,A,4270,Correct
2,new_learn,52,623,B,36.55346500182665,30.159043214695117,1.8276732500913326,0.4737371430129164,B,7844,Correct
2,new_learn,52,624,B,19.933117258126266,59.7442074395952,0.9966558629063133,0.9384598159338848,A,1928,Incorrect
2,new_learn,52,625,A,79.8435188159454,34.980107438644055,3.99217594079727,0.5494662427551292,B,2495,Incorrect
2,new_learn,52,626,A,76.58134698700746,35.93259945400446,3.8290673493503733,0.5644279523454251,A,2832,Correct
2,new_learn,52,627,B,61.43956231927983,26.657457885839307,3.071978115963992,0.41873436928766034,A,3721,Incorrect
2,new_learn,52,628,A,70.96979013872598,51.64234022092639,3.5484895069362996,0.8111959832612353,A,999,Correct
2,new_learn,52,629,B,15.437711478887593,67.72651545218733,0.7718855739443796,1.0638456169891366,A,928,Incorrect
2,new_learn,52,630,A,57.5692309978605,59.74928975939572,2.8784615498930246,0.9385396488266273,B,2529,Incorrect
2,new_learn,52,631,A,66.81639443162068,53.138959774371415,3.340819721581034,0.8347048282328438,A,7189,Correct
2,new_learn,52,632,B,26.04648007559713,54.44825557110903,1.3023240037798565,0.8552711985148783,A,1802,Incorrect
2,new_learn,52,633,B,41.72621734577417,47.78706797203009,2.086310867288708,0.7506375083876291,A,3540,Incorrect
2,new_learn,52,634,A,54.566777145908155,71.56973543480585,2.728338857295408,1.1242147753067557,A,870,Correct
2,new_learn,52,635,B,38.02644245395456,50.02037517307225,1.901322122697728,0.7857182158676453,A,5960,Incorrect
2,new_learn,52,636,A,61.870523835145114,70.69273500037184,3.0935261917572556,1.110438884696691,A,978,Correct
2,new_learn,52,637,B,52.831815406602026,21.66552747604426,2.6415907703301014,0.3403213097744423,B,1248,Correct
2,new_learn,52,638,A,69.63800578675287,58.06926156933016,3.481900289337643,0.9121498277279586,B,1710,Incorrect
2,new_learn,52,639,A,51.748331159258214,65.32704666053931,2.5874165579629107,1.0261548493473396,B,1788,Incorrect
2,new_learn,52,640,A,46.89580941886024,81.75778437666763,2.344790470943012,1.2842482738575869,A,777,Correct
2,new_learn,52,641,B,23.407524548136532,45.28731110762047,1.1703762274068266,0.7113714193826794,A,3290,Incorrect
2,new_learn,52,642,B,30.366967986680137,42.04605411229324,1.518348399334007,0.6604578735580968,A,2923,Incorrect
2,new_learn,52,643,B,16.60374364995613,55.06486595491935,0.8301871824978064,0.8649568917744067,A,1543,Incorrect
2,new_learn,52,644,A,34.24953740375092,83.42556442707188,1.7124768701875461,1.3104457016283548,A,899,Correct
2,new_learn,52,645,B,39.52282112419667,48.17080149994574,1.9761410562098334,0.7566651805488086,B,1185,Correct
2,new_learn,52,646,A,69.33851802863212,58.478426089066346,3.466925901431606,0.9185769689745227,B,1239,Incorrect
2,new_learn,52,647,B,64.65522605980308,17.14671018943281,3.2327613029901543,0.26933989382177687,B,1419,Correct
2,new_learn,52,648,A,44.86336346528452,65.55909986279784,2.243168173264226,1.0297999325246265,B,1070,Incorrect
2,new_learn,52,649,B,42.064585254325344,32.8401650946106,2.103229262716267,0.5158521070195231,B,783,Correct
2,new_learn,52,650,A,64.8966026900074,64.30775526821907,3.24483013450037,1.0101438575974366,B,3679,Incorrect
2,new_learn,52,651,A,32.70392498822669,79.72351085005025,1.6351962494113343,1.25229398002452,A,2259,Correct
2,new_learn,52,652,B,37.1186843336919,55.45909959362467,1.8559342166845951,0.8711494992901799,A,4512,Incorrect
2,new_learn,52,653,A,57.205764642713426,67.06596823376361,2.8602882321356713,1.0534697655453908,B,3165,Incorrect
2,new_learn,52,654,B,36.364083711460346,50.929811685389524,1.8182041855730173,0.8000036111976565,A,7034,Incorrect
2,new_learn,52,655,B,38.08034682541233,41.76158587870524,1.9040173412706165,0.6559894569939981,B,922,Correct
2,new_learn,52,656,B,38.0068824979216,31.085012845381684,1.90034412489608,0.48828223995897724,A,7699,Incorrect
2,new_learn,52,657,A,51.51323528937232,74.72608532697143,2.575661764468616,1.1737946034736872,B,2623,Incorrect
2,new_learn,52,658,B,22.276382459420585,50.979219042779675,1.1138191229710293,0.8007797001527076,A,1105,Incorrect
2,new_learn,52,659,A,55.791412789744,56.43617754956895,2.7895706394872004,0.8864974039320752,B,3540,Incorrect
2,new_learn,52,660,B,68.96879981260993,10.747549597014512,3.4484399906304963,0.16882211429036367,B,1243,Correct
2,new_learn,52,661,B,62.154966679895324,23.791825231068145,3.107748333994766,0.37372111680707987,B,720,Correct
2,new_learn,52,662,B,58.6874251963185,20.068367755094073,2.934371259815925,0.31523318354470914,B,2634,Correct
2,new_learn,52,663,A,33.47174153376348,89.95334559614342,1.6735870766881737,1.4129838484533397,A,857,Correct
2,new_learn,52,664,B,47.15743364033844,43.94078423688839,2.357871682016922,0.6902202247579138,A,6965,Incorrect
2,new_learn,52,665,B,33.24004955513871,33.59211227792193,1.6620024777569355,0.5276636657544151,B,3784,Correct
2,new_learn,52,666,A,63.37018943472727,57.44976636447275,3.1685094717363635,0.9024188198053881,B,6994,Incorrect
2,new_learn,52,667,B,57.08957143493858,29.308000186556953,2.854478571746929,0.46036899038747797,B,2153,Correct
2,new_learn,52,668,B,34.748649902172495,56.29728777176577,1.7374324951086249,0.8843157284040492,A,2116,Incorrect
2,new_learn,52,669,A,41.58091307495621,72.36731027610779,2.0790456537478104,1.1367430516173667,A,615,Correct
2,new_learn,52,670,B,36.00373964006506,47.96626839254161,1.8001869820032528,0.753452382010625,A,1477,Incorrect
2,new_learn,52,671,A,31.595458122880896,84.65698039611844,1.5797729061440446,1.3297887384377043,A,631,Correct
2,new_learn,52,672,A,43.729705578295565,67.93213494601542,2.1864852789147786,1.0670754804453626,B,2362,Incorrect
2,new_learn,52,673,A,60.52606747061073,47.26218284454879,3.0263033735305362,0.7423926320852601,B,686,Incorrect
2,new_learn,52,674,A,71.78019141718404,41.845231586544564,3.589009570859202,0.6573033607002599,A,3116,Correct
2,new_learn,52,675,A,82.11288712530842,40.38667269084041,4.105644356265421,0.6343923711423988,A,5435,Correct
2,new_learn,52,676,A,37.4001858577004,72.38349882213119,1.8700092928850198,1.136997340703664,A,819,Correct
2,new_learn,52,677,B,36.23039647295781,50.65616185942794,1.8115198236478904,0.7957051297831714,A,1976,Incorrect
2,new_learn,52,678,A,63.85144072423174,45.46373665016957,3.1925720362115872,0.7141427053245688,B,4721,Incorrect
2,new_learn,52,679,A,84.14267991686248,36.60959418060291,4.207133995843123,0.5750621606434287,B,919,Incorrect
2,new_learn,52,680,A,60.220534197912926,65.4836166068807,3.011026709895646,1.028614244313335,A,575,Correct
2,new_learn,52,681,B,29.662071796044636,53.365107030499566,1.4831035898022318,0.8382571410252524,A,1037,Incorrect
2,new_learn,52,682,B,23.083403907437088,50.43503934793567,1.1541701953718544,0.7922317454949342,B,1546,Correct
2,new_learn,52,683,B,35.05208684536484,51.02648865250953,1.752604342268242,0.8015222094460343,B,741,Correct
2,new_learn,52,684,B,28.63479330204515,52.47599001691322,1.4317396651022574,0.8242909236349294,B,2679,Correct
2,new_learn,52,685,A,89.67458357355055,33.33988243742448,4.483729178677527,0.5237016486848005,B,3771,Incorrect
2,new_learn,52,686,B,38.509104226384736,29.904112382713635,1.925455211319237,0.4697326988682836,A,585,Incorrect
2,new_learn,52,687,B,69.20992906048458,15.251656915126219,3.460496453024229,0.2395724665981625,B,1888,Correct
2,new_learn,52,688,B,50.26515277190036,33.39801504746268,2.513257638595018,0.5246147935879506,B,4872,Correct
2,new_learn,52,689,A,44.216681459936055,80.05554532136671,2.210834072996803,1.2575095653036519,A,918,Correct
2,new_learn,52,690,B,21.73274087955383,53.75246012315416,1.0866370439776916,0.844341669176397,A,2805,Incorrect
2,new_learn,52,691,B,63.37689198929575,25.480111524785784,3.168844599464787,0.40024065589457813,B,2852,Correct
2,new_learn,52,692,A,53.85556620277859,56.870210938257884,2.6927783101389298,0.8933151844586643,A,2942,Correct
2,new_learn,52,693,A,79.8685020263107,34.365410922642695,3.993425101315535,0.5398106124608436,B,802,Incorrect
2,new_learn,52,694,B,19.654132455866893,52.91057136283054,0.9827066227933446,0.8311173114535344,A,949,Incorrect
2,new_learn,52,695,A,70.28992192341798,51.06643331539216,3.514496096170899,0.8021496587433453,B,2444,Incorrect
2,new_learn,52,696,A,79.71052260761317,38.72844710470666,3.9855261303806584,0.6083450245454367,B,2170,Incorrect
2,new_learn,52,697,A,71.94055365004454,50.75434701136817,3.597027682502227,0.7972474185433065,A,2036,Correct
2,new_learn,52,698,A,75.19700685010538,45.40188409768988,3.7598503425052687,0.7131711277021889,A,1466,Correct
2,new_learn,52,699,A,39.17701765700399,72.52312702706874,1.9588508828501994,1.1391906154179925,A,809,Correct
2,new_learn,52,700,B,54.811234851659435,29.915881198074743,2.7405617425829716,0.4699175629876831,B,1203,Correct
2,new_learn,52,701,A,56.616933612262606,74.83706404243898,2.8308466806131305,1.1755378530597758,A,652,Correct
2,new_learn,52,702,A,44.20352691380069,81.46067537345262,2.2101763456900345,1.2795812965485087,A,734,Correct
2,new_learn,52,703,B,25.367424032716368,58.10495368076532,1.2683712016358184,0.9127104781033376,A,1999,Incorrect
2,new_learn,52,704,A,71.76485904775603,56.646637259603146,3.5882429523878017,0.8898032973266754,A,872,Correct
2,new_learn,52,705,A,49.89013724795534,58.33285996933299,2.494506862397767,0.9162904217126933,A,4477,Correct
2,new_learn,52,706,A,71.06586133769841,42.96579476990549,3.5532930668849203,0.6749051260239092,B,2582,Incorrect
2,new_learn,52,707,A,48.9869380216125,71.8078951965158,2.449346901080625,1.127955780095599,A,617,Correct
2,new_learn,52,708,B,36.36408466451999,39.84336456199937,1.8182042332259996,0.6258581070113857,B,2246,Correct
2,new_learn,52,709,B,32.250168250418646,49.64125150346942,1.6125084125209324,0.779762955191514,A,2531,Incorrect
2,new_learn,52,710,A,33.06324178337808,86.11900945692418,1.6531620891689043,1.3527542372215144,A,655,Correct
2,new_learn,52,711,A,75.52746081117641,46.243946374506095,3.7763730405588207,0.7263982110157434,B,1288,Incorrect
2,new_learn,52,712,A,64.70990915553179,61.30555263489893,3.2354954577765898,0.9629853689103042,A,598,Correct
2,new_learn,52,713,B,29.453159553066584,50.877207757650396,1.4726579776533293,0.7991773106329805,A,1729,Incorrect
2,new_learn,52,714,B,36.17599123953252,55.723906827545775,1.8087995619766262,0.8753090815936996,B,732,Correct
2,new_learn,52,715,A,41.4658090586378,66.4108390343144,2.0732904529318903,1.043179020144682,B,1943,Incorrect
2,new_learn,52,716,A,74.07327340567062,44.81899086904358,3.703663670283531,0.7040150622774767,B,1255,Incorrect
2,new_learn,52,717,A,61.63463271959274,54.975467467176344,3.081731635979637,0.8635526236127292,A,936,Correct
2,new_learn,52,718,A,65.12588233659449,64.26647315742068,3.256294116829724,1.009495399717392,B,2610,Incorrect
2,new_learn,52,719,B,14.460062721389349,64.48594170519479,0.7230031360694674,1.012942803604298,A,1498,Incorrect
2,new_learn,52,720,B,68.97335350622394,10.730010730329028,3.448667675311197,0.1685466144167066,B,1286,Correct
2,new_learn,52,721,A,38.77250150685908,75.99149904889848,1.938625075342954,1.193671675736476,A,2420,Correct
2,new_learn,52,722,B,30.738721994996148,49.001364526517236,1.5369360997498074,0.7697116340619102,B,2768,Correct
2,new_learn,52,723,B,59.923147647602384,16.175874851373607,2.9961573823801193,0.25409004799231605,B,1074,Correct
2,new_learn,52,724,B,38.27811228596035,40.598431335753226,1.9139056142980173,0.63771866815836,B,1181,Correct
2,new_learn,52,725,A,72.0120780466379,46.50955914912837,3.600603902331895,0.7305704467230083,B,2358,Incorrect
2,new_learn,52,726,A,89.34005099759577,31.641697472875833,4.467002549879789,0.4970266216394873,B,785,Incorrect
2,new_learn,52,727,B,41.24622284378412,35.75243661216581,2.062311142189206,0.5615979610435743,B,1292,Correct
2,new_learn,52,728,A,65.9911793111482,53.24168770274517,3.29955896555741,0.8363184747583312,B,1131,Incorrect
2,new_learn,52,729,A,46.51751535327695,70.80490331792042,2.3258757676638475,1.1122008205085718,A,871,Correct
2,new_learn,52,730,B,49.21418515487823,24.01518627487333,2.4607092577439116,0.3772296638786624,B,842,Correct
2,new_learn,52,731,B,51.444758401852894,39.32697215751887,2.5722379200926446,0.617746634089958,B,982,Correct
2,new_learn,52,732,B,67.17513306747499,13.494371004856959,3.3587566533737494,0.21196908406836867,B,907,Correct
2,new_learn,52,733,A,50.00385929137458,73.09899395923117,2.500192964568729,1.1482363120356263,A,739,Correct
2,new_learn,52,734,B,42.40118140203831,41.800928132112794,2.1200590701019153,0.6566074436654024,B,2350,Correct
2,new_learn,52,735,B,32.76454883064848,48.152223825845255,1.638227441532424,0.7563733631264343,A,3467,Incorrect
2,new_learn,52,736,B,17.571631177311858,61.798593911458134,0.8785815588655929,0.9707300431720788,A,807,Incorrect
2,new_learn,52,737,B,36.88325007288535,43.94765222758293,1.8441625036442675,0.6903281069034681,B,910,Correct
2,new_learn,52,738,A,54.93065018842058,59.76083833844529,2.7465325094210287,0.938721053482135,B,2142,Incorrect
2,new_learn,52,739,B,48.30419442347501,20.976046079164405,2.4152097211737504,0.32949096131831945,B,1025,Correct
2,new_learn,52,740,B,32.162884675928055,52.63112248679258,1.608144233796403,0.8267277387734606,B,3319,Correct
2,new_learn,52,741,B,44.206631574248924,32.43349683735167,2.210331578712446,0.509464176972259,B,1626,Correct
2,new_learn,52,742,A,41.727046100188474,77.43927654083085,2.0863523050094237,1.2164133113999132,A,1163,Correct
2,new_learn,52,743,A,41.0973390737241,84.94227071032917,2.054866953686205,1.3342700682140278,A,672,Correct
2,new_learn,52,744,B,65.36414555977117,20.889870392849602,3.2682072779885583,0.32813731680309616,B,898,Correct
2,new_learn,52,745,B,49.11384767005485,29.579874809880224,2.4556923835027424,0.4646395869841275,B,1248,Correct
2,new_learn,52,746,A,58.12679737121487,70.02547114013544,2.9063398685607433,1.0999575284900678,B,3530,Incorrect
2,new_learn,52,747,B,53.15194477315549,39.05481956454888,2.6575972386577744,0.6134716711563084,B,594,Correct
2,new_learn,52,748,A,80.3065925460983,46.02700147645841,4.015329627304915,0.7229904485260416,B,3201,Incorrect
2,new_learn,52,749,B,15.748557387282197,59.182383943298525,0.7874278693641099,0.9296347130909859,A,689,Incorrect
2,new_learn,52,750,B,53.97123922025701,32.59815138005952,2.6985619610128504,0.5120505644810148,B,838,Correct
2,new_learn,52,751,A,50.57250340724465,66.47291843106844,2.5286251703622327,1.0441541610285907,B,3652,Incorrect
2,new_learn,52,752,A,47.106710970498355,60.7041628199232,2.3553355485249177,0.9535387597869468,B,666,Incorrect
2,new_learn,52,753,A,49.81438660279703,72.69067670267408,2.4907193301398514,1.1418224795679583,A,2609,Correct
2,new_learn,52,754,B,26.968701662009472,44.63824045307529,1.3484350831004734,0.7011758413827803,B,2166,Correct
2,new_learn,52,755,B,11.892254421215412,66.62620036139582,0.5946127210607706,1.0465619079598136,A,1332,Incorrect
2,new_learn,52,756,A,77.69046518442403,50.251911521293366,3.8845232592212016,0.7893551803206976,B,1497,Incorrect
2,new_learn,52,757,B,55.56269781364754,29.557100583440032,2.778134890682377,0.464281850271749,B,5036,Correct
2,new_learn,52,758,A,59.32274033017837,66.79156742316523,2.9661370165089185,1.0491594876918162,A,5976,Correct
2,new_learn,52,759,B,16.932822415620713,57.872712776579824,0.8466411207810356,0.9090624465110767,A,1174,Incorrect
2,new_learn,52,760,A,41.61265381269851,68.35195768878927,2.0806326906349257,1.0736700406679038,A,3877,Correct
2,new_learn,52,761,B,17.944839292012794,59.719320389363894,0.8972419646006398,0.9380688910630037,A,3708,Incorrect
2,new_learn,52,762,A,69.65987738575643,52.33753807874861,3.4829938692878217,0.8221161256758635,B,758,Incorrect
2,new_learn,52,763,A,68.61290756155194,63.287992255524806,3.430645378077597,0.9941254576520221,A,738,Correct
2,new_learn,52,764,A,74.10714071464973,49.70580552857942,3.7053570357324865,0.7807769674467402,A,3243,Correct
2,new_learn,52,765,B,20.01601230378798,49.38961181998258,1.0008006151893991,0.7758102082865445,B,2357,Correct
2,new_learn,52,766,A,70.24120504242006,49.981302073644095,3.512060252121003,0.7851044570570628,B,1800,Incorrect
2,new_learn,52,767,A,53.80681079030003,59.21103774289446,2.6903405395150015,0.9300848059225261,B,656,Incorrect
2,new_learn,52,768,B,55.91609019321177,17.134808318649704,2.7958045096605884,0.2691529396726959,B,926,Correct
2,new_learn,52,769,B,49.64759477199547,38.63180775084333,2.4823797385997737,0.6068270171247132,B,857,Correct
2,new_learn,52,770,B,50.79601380011143,32.61000659047018,2.539800690005572,0.5122367856906792,B,936,Correct
2,new_learn,52,771,A,83.93890559444463,36.511822107339604,4.1969452797222315,0.5735263605079776,B,803,Incorrect
2,new_learn,52,772,A,49.748977390542834,76.24672140307273,2.487448869527142,1.1976806991010045,A,877,Correct
2,new_learn,52,773,A,74.32436542880369,36.00659486844755,3.716218271440184,0.5655902695974938,B,2043,Incorrect
2,new_learn,52,774,B,24.607220054381916,59.06200587102711,1.2303610027190957,0.92774381875348,A,1331,Incorrect
2,new_learn,52,775,B,37.27307685505067,35.013111017775515,1.8636538427525335,0.549984661763837,B,873,Correct
2,new_learn,52,776,B,32.82159282685791,44.76399710265148,1.6410796413428954,0.7031512222150234,A,4437,Incorrect
2,new_learn,52,777,B,22.594768542622575,57.00158350004194,1.1297384271311288,0.8953787798335848,B,1254,Correct
2,new_learn,52,778,B,42.4910593870601,48.04538930069332,2.124552969353005,0.754695210329599,B,2923,Correct
2,new_learn,52,779,B,17.22701338546979,62.03964550194247,0.8613506692734895,0.9745164727010877,B,4681,Correct
2,new_learn,52,780,A,84.18660097985907,35.7246201279096,4.209330048992953,0.5611610207306342,B,950,Incorrect
2,new_learn,52,781,A,42.03584203204414,74.03864765226072,2.1017921016022068,1.1629963577303273,A,1606,Correct
2,new_learn,52,782,B,17.23182999710488,64.11851752676675,0.8615914998552441,1.0071713181057942,A,915,Incorrect
2,new_learn,52,783,A,51.67664152757741,57.99623807743351,2.5838320763788705,0.9110027773995488,B,742,Incorrect
2,new_learn,52,784,B,62.81833828426181,25.03690656460482,3.140916914213091,0.39327880865988285,A,648,Incorrect
2,new_learn,52,785,B,30.92020380580081,45.171210093436166,1.5460101902900405,0.7095477089165009,B,1232,Correct
2,new_learn,52,786,B,30.382742911529867,56.59586215707943,1.5191371455764935,0.8890057238813065,B,4137,Correct
2,new_learn,52,787,A,38.19899485247463,83.65257019589342,1.9099497426237315,1.3140114999066164,B,355,Incorrect
2,new_learn,52,788,A,89.21927358584321,33.570752813308616,4.460963679292161,0.5273281520688461,B,2363,Incorrect
2,new_learn,52,789,A,78.50159991030168,46.82491691472815,3.9250799955150844,0.7355240749213119,A,1524,Correct
2,new_learn,52,790,B,32.714290721905705,39.49150385810749,1.6357145360952854,0.6203310919992173,A,4371,Incorrect
2,new_learn,52,791,B,43.360871798927775,26.223685192187617,2.1680435899463886,0.41192068374914026,B,1343,Correct
2,new_learn,52,792,B,20.54659095525262,47.881366833111926,1.0273295477626307,0.7521187514337119,A,1287,Incorrect
2,new_learn,52,793,B,39.87737971618464,43.30532047017394,1.993868985809232,0.6802383832522507,B,684,Correct
2,new_learn,52,794,B,64.32633428410531,17.868430599986453,3.2163167142052655,0.2806766515204825,B,1489,Correct
2,new_learn,52,795,B,33.09277127506606,48.65387338942242,1.6546385637533032,0.7642532560444871,A,1195,Incorrect
2,new_learn,52,796,A,67.85558235110118,45.05086799266556,3.392779117555059,0.7076573796180082,B,1025,Incorrect
2,new_learn,52,797,A,59.95945517757085,71.7978943392316,2.9979727588785425,1.1277986869967311,A,1525,Correct
2,new_learn,52,798,A,61.819925498044874,47.16546848237751,3.0909962749022437,0.7408734464367905,B,2333,Incorrect
2,new_learn,52,799,B,28.303197169429712,45.718881611186454,1.4151598584714855,0.7181505130002243,A,1567,Incorrect
2,new_learn,52,800,A,61.60186622911438,55.65806013092207,3.0800933114557187,0.8742747641018186,A,3353,Correct
2,new_learn,52,801,B,22.37765461911169,62.230524203763636,1.1188827309555847,0.9775147883379283,A,1195,Incorrect
2,new_learn,52,802,B,33.53041757102309,58.55576265298096,1.6765208785511545,0.9197917688797628,A,2760,Incorrect
2,new_learn,52,803,B,37.77948325295291,41.67660984877137,1.8889741626476453,0.6546546566371407,B,1960,Correct
2,new_learn,52,804,B,39.591566062784146,38.18095904721948,1.9795783031392074,0.5997451022487873,B,1531,Correct
2,new_learn,52,805,A,44.17306818224934,66.03406672347663,2.2086534091124665,1.037260694525662,B,2570,Incorrect
2,new_learn,52,806,A,58.94390579595306,64.5914958357314,2.947195289797653,1.0146008440095473,B,2209,Incorrect
2,new_learn,52,807,A,35.541745734585184,79.4040656832198,1.7770872867292593,1.2472761470778235,A,820,Correct
2,new_learn,52,808,B,10.919124423693447,68.90944218730539,0.5459562211846724,1.0824269866930458,A,1815,Incorrect
2,new_learn,52,809,A,51.30252555126902,68.5169581750178,2.565126277563451,1.0762618622447753,B,635,Incorrect
2,new_learn,52,810,B,29.641014698804632,42.20749498634587,1.4820507349402317,0.662993780877661,B,904,Correct
2,new_learn,52,811,B,37.35710282900252,54.508821327173955,1.8678551414501259,0.8562225631864417,B,5074,Correct
2,new_learn,52,812,B,19.626928802469386,59.92520409040978,0.9813464401234694,0.9413029046765018,B,1627,Correct
2,new_learn,52,813,A,55.60748482235047,55.4062980612758,2.7803742411175234,0.8703200947595522,B,844,Incorrect
2,new_learn,52,814,B,69.25244749804224,13.867967692089195,3.462622374902112,0.2178375271084401,B,1121,Correct
2,new_learn,52,815,B,26.647917690738083,44.56322522286916,1.3323958845369044,0.6999975049021655,B,2674,Correct
2,new_learn,52,816,B,36.13658010067871,46.74810828854164,1.8068290050339355,0.7343175678425127,B,867,Correct
2,new_learn,52,817,A,33.736236917048934,80.52278048302952,1.6868118458524466,1.2648488780605456,A,919,Correct
2,new_learn,52,818,A,41.53293478404824,74.85444368749435,2.0766467392024115,1.1758108518859156,B,1673,Incorrect
2,new_learn,52,819,B,16.55540967965422,58.60444602437673,0.8277704839827109,0.9205564854894074,B,1472,Correct
2,new_learn,52,820,A,75.45028699606841,51.275959859173554,3.772514349803421,0.8054408939967238,B,764,Incorrect
2,new_learn,52,821,B,49.54310683039091,33.24953034427895,2.4771553415195458,0.5222824013244882,B,1011,Correct
2,new_learn,52,822,A,34.071209940154056,88.28257342190301,1.703560497007703,1.3867394205112602,A,876,Correct
2,new_learn,52,823,A,40.802245594661656,85.74065638754676,2.0401122797330826,1.3468110811054184,A,1055,Correct
2,new_learn,52,824,B,35.20347711633851,51.89925506891988,1.7601738558169258,0.8152315922565075,B,1102,Correct
2,new_learn,52,825,A,69.0140360872861,39.63235064202802,3.4507018043643054,0.6225435081074497,B,743,Incorrect
2,new_learn,52,826,A,49.718395047378316,66.23880896250924,2.485919752368916,1.0404767780957838,B,1861,Incorrect
2,new_learn,52,827,A,51.40579202866273,75.25652682039188,2.570289601433137,1.1821267589681317,A,1823,Correct
2,new_learn,52,828,A,57.71772727808267,72.48879342667136,2.8858863639041332,1.1386513044840942,A,1638,Correct
2,new_learn,52,829,B,65.10830241729971,11.203312205613344,3.2554151208649853,0.1759812166051387,B,1386,Correct
2,new_learn,52,830,A,47.55718554277564,82.70591010622887,2.377859277138782,1.299141397990932,A,744,Correct
2,new_learn,52,831,B,48.59600466184193,25.504335774808254,2.4298002330920965,0.4006211695241248,B,1445,Correct
2,new_learn,52,832,A,35.918301414469795,81.87097106989278,1.7959150707234897,1.2860262062771883,A,655,Correct
2,new_learn,52,833,B,11.987591393308008,62.11211307560346,0.5993795696654004,0.9756547906862718,A,1591,Incorrect
2,new_learn,52,834,A,81.65500044156185,47.76761969665331,4.082750022078093,0.7503320155923856,B,2479,Incorrect
2,new_learn,52,835,B,41.6454732494319,33.81292073238258,2.082273662471595,0.5311321168463355,B,1205,Correct
2,new_learn,52,836,B,35.04009816254545,56.313636157495225,1.7520049081272726,0.8845725282465777,B,3454,Correct
2,new_learn,52,837,B,54.53928143682913,18.725137360240453,2.7269640718414565,0.2941337698419559,B,645,Correct
2,new_learn,52,838,A,70.39973750709045,46.683727039064806,3.5199868753545225,0.7333062695405859,B,1901,Incorrect
2,new_learn,52,839,B,42.60398078115586,25.37413977056805,2.130199039057793,0.3985760554718859,B,694,Correct
2,new_learn,52,840,B,18.658082789243487,61.7905356365259,0.9329041394621743,0.9706034640854404,A,2833,Incorrect
2,new_learn,52,841,A,41.55044592449697,85.6426042367722,2.0775222962248483,1.3452708815227081,A,846,Correct
2,new_learn,52,842,A,82.96459535342197,40.67681412228577,4.148229767671098,0.6389499020900526,B,654,Incorrect
2,new_learn,52,843,B,33.54093252320317,58.04645571457125,1.6770466261601584,0.9117915941991115,A,821,Incorrect
2,new_learn,52,844,B,51.21250850740937,22.91188419612851,2.5606254253704686,0.35989903535228707,B,1165,Correct
2,new_learn,52,845,B,37.764078312970355,43.46798194109528,1.8882039156485178,0.6827934636625935,B,1488,Correct
2,new_learn,52,846,B,65.00878470718304,15.986139043069585,3.2504392353591522,0.25110968488486185,B,720,Correct
2,new_learn,52,847,A,67.24234664559354,53.73681257072652,3.362117332279677,0.8440958779976303,B,2669,Incorrect
2,new_learn,52,848,A,31.451866431548332,85.36497471780496,1.5725933215774166,1.3409098872366723,A,627,Correct
2,new_learn,52,849,A,42.69181331621563,81.1647551011991,2.134590665810782,1.274932991781709,A,1949,Correct
2,new_learn,52,850,A,81.41429950895721,33.04370074646451,4.070714975447861,0.5190492375625623,B,693,Incorrect
2,new_learn,52,851,A,36.31747270372638,88.20408280427753,1.815873635186319,1.3855064927727205,A,827,Correct
2,new_learn,52,852,B,57.64094941694868,17.682466905923945,2.882047470847434,0.27775554064497654,B,906,Correct
2,new_learn,52,853,B,51.076991604029246,29.03337417175041,2.5538495802014625,0.4560551750344737,B,1007,Correct
2,new_learn,52,854,A,72.45033242232185,49.3786387685234,3.6225166211160924,0.7756378439972863,B,1885,Incorrect
2,new_learn,52,855,B,37.37517215401072,42.727184458028255,1.868758607700536,0.6711570440095878,B,1310,Correct
2,new_learn,52,856,B,62.76685624208631,18.07550214736574,3.138342812104316,0.28392932378055374,B,686,Correct
2,new_learn,52,857,B,21.512144155922822,63.56922228573313,1.0756072077961412,0.9985430086363787,A,1714,Incorrect
2,new_learn,52,858,B,52.13640907416435,31.144465325771463,2.6068204537082176,0.48921611733712833,B,501,Correct
2,new_learn,52,859,B,53.70335945798493,33.201705130031556,2.6851679728992464,0.5215311646158084,B,549,Correct
2,new_learn,52,860,A,41.965866742047794,82.15440654248596,2.09829333710239,1.2904784002695158,A,794,Correct
2,new_learn,52,861,A,75.58184776547724,55.69658455786337,3.7790923882738614,0.8748799043851313,B,855,Incorrect
2,new_learn,52,862,B,39.60311421364286,47.55792117201257,1.9801557106821432,0.7470380788699857,B,964,Correct
2,new_learn,52,863,A,56.64224851247556,55.52023275355857,2.8321124256237784,0.872109776720875,B,720,Incorrect
2,new_learn,52,864,B,59.52571154866395,31.4897762092869,2.976285577433197,0.4946402480114119,B,729,Correct
2,new_learn,52,865,B,39.069172579833726,46.23117145461267,1.9534586289916862,0.7261975430433066,B,813,Correct
2,new_learn,52,866,B,63.28798789641672,16.64355501479342,3.164399394820836,0.26143635082046285,B,729,Correct
2,new_learn,52,867,A,88.36115922333423,35.12530838914523,4.418057961166711,0.5517470539520729,B,652,Incorrect
2,new_learn,52,868,B,16.15974629265409,55.59215819573873,0.8079873146327046,0.8732395789246721,A,764,Incorrect
2,new_learn,52,869,A,69.5766270292823,49.21868577303565,3.478831351464115,0.7731253082195663,B,612,Incorrect
2,new_learn,52,870,A,46.688432237462095,72.75500250049356,2.334421611873105,1.1428329068372878,A,3599,Correct
2,new_learn,52,871,A,78.24466828483764,42.31202110113033,3.912233414241882,0.6646356732492368,B,597,Incorrect
2,new_learn,52,872,B,25.883511144623924,63.21903904255919,1.2941755572311961,0.9930423431155515,A,1078,Incorrect
2,new_learn,52,873,A,73.05241646255526,42.10860144785063,3.6526208231277626,0.6614403648075403,B,556,Incorrect
2,new_learn,52,874,A,52.31307112125747,61.63063076318477,2.6156535560628735,0.9680916842086319,A,516,Correct
2,new_learn,52,875,B,46.196901002376265,36.76651502813416,2.3098450501188132,0.577527067552425,A,602,Incorrect
2,new_learn,52,876,A,52.265113746664085,59.765470702769576,2.6132556873332042,0.9387938184907845,B,581,Incorrect
2,new_learn,52,877,A,82.08487626830095,34.859861354749,4.104243813415048,0.547577421686191,A,453,Correct
2,new_learn,52,878,A,83.43254541614978,31.060938593116845,4.171627270807488,0.4879040824886978,B,1813,Incorrect
2,new_learn,52,879,B,22.383411044918557,57.51178153980743,1.1191705522459279,0.9033929519016006,A,721,Incorrect
2,new_learn,52,880,B,64.81799894888613,15.119703632549289,3.2408999474443068,0.23749974928235879,B,1312,Correct
2,new_learn,52,881,B,35.015999010883704,41.31017692596615,1.7507999505441854,0.6488987417455492,B,10243,Correct
2,new_learn,52,882,A,46.59708094290036,80.61487793959336,2.329854047145018,1.2662955415253219,B,2246,Incorrect
2,new_learn,52,883,B,55.00060736140569,26.330442365568146,2.7500303680702847,0.41359762150719165,A,5418,Incorrect
2,new_learn,52,884,B,47.65413417315916,45.45158808143346,2.382706708657958,0.7139518760531037,B,3656,Correct
2,new_learn,52,885,B,39.543162563475775,35.707265845679174,1.9771581281737889,0.5608884203028172,A,3222,Incorrect
2,new_learn,52,886,A,38.581079990008604,78.26161518065764,1.9290539995004303,1.2293305765481275,A,757,Correct
2,new_learn,52,887,A,68.01648033307477,53.08889715073181,3.400824016653738,0.8339184463796157,B,748,Incorrect
2,new_learn,52,888,B,32.0295723324254,38.261254267191916,1.6014786166212702,0.6010063766147062,A,6111,Incorrect
2,new_learn,52,889,B,28.018415358689314,57.306704142131935,1.4009207679344657,0.9001716036718272,B,924,Correct
2,new_learn,52,890,A,61.38129866612853,51.190328832185145,3.069064933306427,0.8040958049701931,B,2031,Incorrect
2,new_learn,52,891,B,30.530618870553816,43.80437367234813,1.5265309435276908,0.6880774926207551,A,3219,Incorrect
2,new_learn,52,892,B,13.252286487077562,66.69843478424241,0.662614324353878,1.0476965636205695,A,1199,Incorrect
2,new_learn,52,893,A,68.24135571584786,61.967723439700265,3.4120677857923933,0.973386723589232,B,1876,Incorrect
2,new_learn,52,894,A,66.43744851362892,54.961383703175585,3.321872425681446,0.863331396365131,A,2061,Correct
2,new_learn,52,895,B,51.75435254418217,20.45173545335362,2.5877176272091083,0.3212551092670882,B,894,Correct
2,new_learn,52,896,A,68.58848718454553,40.81054340382569,3.429424359227277,0.6410505167323308,A,4342,Correct
2,new_learn,52,897,B,46.62530504959069,35.90293303074574,2.3312652524795343,0.5639619532585858,B,2304,Correct
2,new_learn,52,898,A,74.94929780692348,45.486377828287445,3.747464890346174,0.7144983521187874,A,1816,Correct
