experiment,condition,subject,trial,cat,x,y,xt,yt,resp,rt,fb
2,new_learn,56,0,B,51.740727631585386,22.506402190456136,2.5870363815792694,0.3535297389013711,A,1738,Incorrect
2,new_learn,56,1,B,62.540048329549336,42.7926312721249,3.127002416477467,0.6721850801614222,B,1231,Correct
2,new_learn,56,2,A,56.956617556919355,69.67768966812217,2.8478308778459676,1.0944945899024103,B,928,Incorrect
2,new_learn,56,3,B,74.66139896086675,51.30240262557879,3.733069948043337,0.8058562560001203,B,885,Correct
2,new_learn,56,4,B,73.38473245700276,56.556681407597964,3.669236622850138,0.8883902741076408,B,934,Correct
2,new_learn,56,5,A,64.24638175371945,84.65567378824477,3.212319087685972,1.329768214289219,A,1070,Correct
2,new_learn,56,6,A,32.494836558400095,52.51437805086773,1.6247418279200048,0.8248939214622156,A,678,Correct
2,new_learn,56,7,B,89.54638632735139,64.51387593524025,4.477319316367569,1.0133815934637704,B,670,Correct
2,new_learn,56,8,A,41.17684355953064,48.59660037296388,2.058842177976532,0.7633536136057115,A,689,Correct
2,new_learn,56,9,A,33.62468773338517,56.668628673843315,1.6812343866692587,0.8901487376537702,A,637,Correct
2,new_learn,56,10,B,58.25618323001254,44.32733116732891,2.912809161500627,0.6962920897426118,B,641,Correct
2,new_learn,56,11,B,33.72092134354994,10.29488414761449,1.686046067177497,0.1617116620385185,A,581,Incorrect
2,new_learn,56,12,A,26.528526233432864,45.800285386062015,1.3264263116716433,0.7194292005058419,B,1175,Incorrect
2,new_learn,56,13,A,45.41038995124442,76.00187528541073,2.270519497562221,1.1938346652784702,B,962,Incorrect
2,new_learn,56,14,A,62.97637130108738,73.6196579866823,3.1488185650543694,1.1564148834537713,B,492,Incorrect
2,new_learn,56,15,B,53.82642854605745,30.14745593662575,2.6913214273028725,0.4735551304746272,B,1096,Correct
2,new_learn,56,16,B,53.41766837748191,25.719208511494294,2.6708834188740957,0.40399638257927273,B,705,Correct
2,new_learn,56,17,A,24.224594796819886,39.81697138555896,1.2112297398409944,0.6254435239653352,A,1067,Correct
2,new_learn,56,18,A,26.84005971596453,56.99750753441294,1.3420029857982263,0.8953147547152028,A,628,Correct
2,new_learn,56,19,B,89.12836504092266,67.20650411344161,4.456418252046133,1.0556772979812017,B,1886,Correct
2,new_learn,56,20,A,57.97919934904247,67.2738669809128,2.8989599674521234,1.0567354314290631,B,1411,Incorrect
2,new_learn,56,21,B,53.9546875848094,42.332479454928645,2.69773437924047,0.6649570323192234,A,1500,Incorrect
2,new_learn,56,22,B,61.539246398223305,48.21607821448024,3.076962319911165,0.75737638551761,B,978,Correct
2,new_learn,56,23,A,29.330817814724192,38.934790912364235,1.4665408907362094,0.6115862654966906,A,807,Correct
2,new_learn,56,24,A,35.3876728744227,52.695347121203845,1.7693836437211348,0.8277365769716903,A,921,Correct
2,new_learn,56,25,B,60.015130412732496,30.25274722708427,3.0007565206366245,0.47520904219758464,B,733,Correct
2,new_learn,56,26,A,50.332723860330915,66.95145819412639,2.516636193016546,1.0516710460489582,B,944,Incorrect
2,new_learn,56,27,B,77.81783933427042,52.06158239895328,3.8908919667135207,0.8177814239940564,B,844,Correct
2,new_learn,56,28,B,37.223423688792764,20.144390889433925,1.8611711844396381,0.31642735214643386,A,1081,Incorrect
2,new_learn,56,29,B,62.40707967709967,34.14392426657259,3.1203539838549834,0.5363315082029535,B,1133,Correct
2,new_learn,56,30,A,10.507749497760425,32.914615462568946,0.5253874748880213,0.517021570664698,A,1004,Correct
2,new_learn,56,31,A,25.571292718372717,55.93305490172733,1.2785646359186358,0.8785943718605057,A,599,Correct
2,new_learn,56,32,B,64.73317982133307,38.20802789600647,3.2366589910666534,0.6001702987312391,B,1176,Correct
2,new_learn,56,33,B,74.3531352956616,44.114392432204745,3.7176567647830803,0.6929472559129579,B,911,Correct
2,new_learn,56,34,B,57.6476632136983,37.3926087190471,2.882383160684915,0.58736172425158,B,922,Correct
2,new_learn,56,35,B,59.76186405845687,45.96066664836023,2.988093202922844,0.7219484634828895,B,2130,Correct
2,new_learn,56,36,A,50.949435198248096,78.29617395827798,2.547471759912405,1.2298734245575729,A,1020,Correct
2,new_learn,56,37,A,45.13786611834129,68.939545012489,2.256893305917065,1.0828998407652917,A,1083,Correct
2,new_learn,56,38,B,82.09352058601574,63.791578850957904,4.104676029300787,1.0020357773953168,B,792,Correct
2,new_learn,56,39,B,51.27557734125784,35.94057288823343,2.5637788670628923,0.5645531987574133,A,970,Incorrect
2,new_learn,56,40,B,51.7903536417391,41.906343465072126,2.589517682086955,0.6582633038434061,B,800,Correct
2,new_learn,56,41,B,40.65161168339536,23.511476067340144,2.032580584169768,0.3693174024410401,A,853,Incorrect
2,new_learn,56,42,A,13.776954215968832,35.513652235275714,0.6888477107984415,0.5578471448224246,A,695,Correct
2,new_learn,56,43,A,69.42078855279851,88.03279657046392,3.4710394276399255,1.3828159349036706,B,2155,Incorrect
2,new_learn,56,44,A,18.220218620819193,41.73008019026521,0.9110109310409596,0.6554945667972508,A,898,Correct
2,new_learn,56,45,B,85.54955640476255,60.2361497993669,4.277477820238127,0.9461872284511267,B,1214,Correct
2,new_learn,56,46,B,46.89932296646675,30.69184482599046,2.3449661483233375,0.4821063711522477,B,1375,Correct
2,new_learn,56,47,B,46.95987976155617,22.441414176542068,2.3479939880778087,0.35250890956595204,B,2154,Correct
2,new_learn,56,48,A,46.84580041533434,59.78672963365319,2.342290020766717,0.9391277529962202,B,2233,Incorrect
2,new_learn,56,49,A,46.34837781581137,72.85476021315839,2.3174188907905684,1.1443998973235214,A,765,Correct
2,new_learn,56,50,B,39.80122869694304,14.502906356453327,1.9900614348471521,0.22781112032567244,A,562,Incorrect
2,new_learn,56,51,B,60.815060915852285,29.167081943116784,3.0407530457926146,0.4581554517957359,B,1507,Correct
2,new_learn,56,52,A,14.832843267232196,31.38524507621678,0.7416421633616097,0.4929982768127893,A,831,Correct
2,new_learn,56,53,B,68.95943597718534,40.22597109469004,3.4479717988592666,0.6318680763729679,B,622,Correct
2,new_learn,56,54,A,58.214481808568465,85.27350133442319,2.910724090428423,1.3394730266905164,107,948,Incorrect
2,new_learn,56,55,B,71.36939167885939,49.355274904874946,3.5684695839429694,0.7752708452852989,B,589,Correct
2,new_learn,56,56,B,61.24022357369857,39.9304767406482,3.0620111786849287,0.6272264619137925,B,861,Correct
2,new_learn,56,57,B,57.656945626125626,49.59463517201716,2.8828472813062813,0.7790307075693754,B,715,Correct
2,new_learn,56,58,A,61.022213239653695,82.12184164561242,3.0511106619826847,1.2899668720656017,A,1044,Correct
2,new_learn,56,59,A,33.55450829699235,53.2773219544733,1.6777254148496177,0.8368782162755576,A,1828,Correct
2,new_learn,56,60,A,62.591726845605336,77.01313598723476,3.1295863422802666,1.2097195112370422,B,758,Incorrect
2,new_learn,56,61,A,42.79840236218652,51.79614871598605,2.139920118109326,0.8136120014519308,B,798,Incorrect
2,new_learn,56,62,B,62.54950987992094,50.75064518042811,3.1274754939960467,0.7971892703188761,B,886,Correct
2,new_learn,56,63,A,15.769508840410221,32.61258030780232,0.7884754420205111,0.5122772135479945,A,576,Correct
2,new_learn,56,64,B,63.95664808059424,32.20068882162349,3.1978324040297124,0.5058072372127166,B,1707,Correct
2,new_learn,56,65,A,13.775112989416304,36.12074998270954,0.6887556494708151,0.5673834139391697,A,621,Correct
2,new_learn,56,66,A,48.07502927670302,57.01206051274493,2.403751463835151,0.8955433523642811,A,1153,Correct
2,new_learn,56,67,B,75.8153649185285,65.06043451680283,3.7907682459264254,1.0219669155867377,A,1403,Incorrect
2,new_learn,56,68,B,55.23625862552817,26.071973825444104,2.7618129312764084,0.4095376071730028,B,2520,Correct
2,new_learn,56,69,A,25.30238937667027,51.60124628766339,1.2651194688335137,0.8105504812670046,A,721,Correct
2,new_learn,56,70,B,70.47565854484755,45.73772866171779,3.5237829272423773,0.7184465617776796,B,715,Correct
2,new_learn,56,71,B,68.00596266978957,50.752235372836694,3.400298133489479,0.797214249002819,B,1179,Correct
2,new_learn,56,72,B,35.10226746708358,20.445081030032764,1.7551133733541788,0.32115058182999484,B,2703,Correct
2,new_learn,56,73,B,73.52607232143943,54.16135171380262,3.676303616071971,0.8507645232628762,B,1564,Correct
2,new_learn,56,74,B,53.98101774069358,23.94655921693844,2.699050887034679,0.3761516725734338,B,1023,Correct
2,new_learn,56,75,A,47.947087539331996,70.19728048409155,2.3973543769665997,1.1026563033540209,A,734,Correct
2,new_learn,56,76,A,55.91416920588183,71.6557636311743,2.7957084602940916,1.1255661030553192,B,809,Incorrect
2,new_learn,56,77,A,17.90400642528851,41.2015322106035,0.8952003212644256,0.647192154547376,A,671,Correct
2,new_learn,56,78,B,69.33968581696016,38.6957702309129,3.4669842908480075,0.6078317374121728,B,2019,Correct
2,new_learn,56,79,A,25.771756397757542,51.121588092876515,1.288587819887877,0.8030160279621213,A,4759,Correct
2,new_learn,56,80,A,44.36721946455029,76.26985549868236,2.2183609732275142,1.1980440886250778,B,4009,Incorrect
2,new_learn,56,81,B,67.3485363148656,38.55590153919484,3.36742681574328,0.6056346851403295,A,2071,Incorrect
2,new_learn,56,82,A,53.26269993813746,61.3506516775554,2.663134996906873,0.9636937830157718,B,330,Incorrect
2,new_learn,56,83,B,53.33900830023191,21.682011501428317,2.6669504150115957,0.34058024023968303,B,569,Correct
2,new_learn,56,84,B,46.72061895415127,19.728906432915494,2.3360309477075636,0.30990093756503867,B,2213,Correct
2,new_learn,56,85,B,63.56695089672016,37.30641102923426,3.1783475448360083,0.5860077341062179,B,1262,Correct
2,new_learn,56,86,B,45.085613023951126,15.929139522112369,2.254280651197556,0.25021433850337527,B,1123,Correct
2,new_learn,56,87,A,65.56838422722055,87.0815707385711,3.2784192113610278,1.3678741144767743,B,1266,Incorrect
2,new_learn,56,88,A,18.378369241509922,40.936171921115786,0.9189184620754961,0.6430238848673306,A,1057,Correct
2,new_learn,56,89,B,77.93595220623165,65.37515994980367,3.8967976103115824,1.0269106111278044,B,629,Correct
2,new_learn,56,90,B,70.53944053479356,51.64695283087958,3.5269720267396782,0.8112684379689494,B,756,Correct
2,new_learn,56,91,A,40.370986289066565,55.6789165546037,2.0185493144533284,0.8746023760389106,B,864,Incorrect
2,new_learn,56,92,A,11.57598657719127,32.19919416088226,0.5787993288595635,0.5057837591366953,A,564,Correct
2,new_learn,56,93,A,23.2567260100872,39.463424154694266,1.1628363005043598,0.6198900170494276,A,650,Correct
2,new_learn,56,94,A,57.69242255896606,70.72899483462187,2.884621127948303,1.1110084528411925,B,628,Incorrect
2,new_learn,56,95,A,64.45367550034035,85.79288570751076,3.2226837750170176,1.3476314973449228,B,610,Incorrect
2,new_learn,56,96,A,49.46114283625875,75.18966341773249,2.4730571418129377,1.181076471095188,B,610,Incorrect
2,new_learn,56,97,B,70.36214146406735,38.38340930718077,3.5181070732033675,0.602925183495846,B,675,Correct
2,new_learn,56,98,A,62.07749709762408,76.76612050123262,3.1038748548812043,1.205839401056306,B,730,Incorrect
2,new_learn,56,99,B,50.89443771492567,27.25758147630964,2.544721885746284,0.4281610886029979,B,642,Correct
2,new_learn,56,100,A,31.282363762150776,40.829393573425975,1.5641181881075388,0.6413466145040068,B,604,Incorrect
2,new_learn,56,101,B,72.98974107976238,61.25531747460907,3.649487053988119,0.9621962768577117,B,590,Correct
2,new_learn,56,102,B,75.40926643916592,53.58355097317664,3.7704633219582955,0.8416884504529297,A,651,Incorrect
2,new_learn,56,103,B,53.20339578731773,26.653409381468883,2.6601697893658867,0.4186707755297196,B,943,Correct
2,new_learn,56,104,A,24.97869948623713,49.65660670473936,1.2489349743118565,0.7800041541290342,A,1661,Correct
2,new_learn,56,105,B,50.99285570795587,24.050508049790103,2.5496427853977934,0.3777844970216138,B,724,Correct
2,new_learn,56,106,B,80.75044838224642,53.105969432069216,4.037522419112321,0.8341866171477638,B,677,Correct
2,new_learn,56,107,A,17.709396763260997,31.932623839775914,0.8854698381630499,0.5015964823244315,A,1065,Correct
2,new_learn,56,108,B,62.86151413777862,52.08549291770741,3.143075706888931,0.8181570095443642,B,879,Correct
2,new_learn,56,109,A,40.33694016662015,52.044552074023294,2.0168470083310073,0.817513912275615,B,1324,Incorrect
2,new_learn,56,110,B,30.916354515695538,10.638283665721659,1.5458177257847767,0.1671057690551773,B,729,Correct
2,new_learn,56,111,B,48.21739271917265,25.417932373898772,2.410869635958633,0.3992639480764128,B,497,Correct
2,new_learn,56,112,B,72.49170447648957,59.32009570859694,3.6245852238244787,0.9317978844418577,B,1040,Correct
2,new_learn,56,113,A,43.930185227192865,50.9809917032751,2.196509261359643,0.8008075450386561,A,1725,Correct
2,new_learn,56,114,B,76.6450649370704,55.0057933285335,3.83225324685352,0.8640289811289965,B,650,Correct
2,new_learn,56,115,A,38.1370490958087,50.929482714350904,1.9068524547904349,0.7999984437326658,A,1414,Correct
2,new_learn,56,116,A,61.653060377798425,88.17666679407441,3.082653018889921,1.3850758430914962,A,2894,Correct
2,new_learn,56,117,A,60.52398072057812,70.98527497898061,3.0261990360289066,1.1150340919350843,A,736,Correct
2,new_learn,56,118,A,28.391240520657114,55.01266852211738,1.4195620260328556,0.864136976417272,A,817,Correct
2,new_learn,56,119,B,55.65101585425633,42.42668137542477,2.782550792712817,0.6664367526261469,B,1205,Correct
2,new_learn,56,120,A,69.5894159408034,86.27952724775886,3.4794707970401704,1.3552756447837981,A,992,Correct
2,new_learn,56,121,A,55.17402259344395,79.85782460094953,2.7587011296721977,1.2544037754900264,A,1867,Correct
2,new_learn,56,122,A,16.631923829938927,42.75054589690497,0.8315961914969463,0.6715240046333495,A,542,Correct
2,new_learn,56,123,B,69.20838618727824,49.59402739068313,3.4604193093639117,0.7790211605625056,B,2219,Correct
2,new_learn,56,124,B,80.34824757283732,49.198390052407476,4.017412378641866,0.7728065037854424,B,1293,Correct
2,new_learn,56,125,A,58.88265556249377,68.80019521934459,2.9441327781246884,1.0807109393331829,A,937,Correct
2,new_learn,56,126,A,14.08680805189086,33.563481269403695,0.7043404025945429,0.5272139309242864,A,422,Correct
2,new_learn,56,127,B,33.94971241346182,10.546646697430496,1.6974856206730908,0.1656663389232735,A,636,Incorrect
2,new_learn,56,128,A,41.02180945114338,59.01829836754434,2.0510904725571693,0.927057262894239,A,888,Correct
2,new_learn,56,129,A,44.73807703414124,74.18511958719156,2.236903851707062,1.1652971335040065,A,1030,Correct
2,new_learn,56,130,B,60.05150376306847,41.6433938100519,3.0025751881534233,0.6541329003210287,A,875,Incorrect
2,new_learn,56,131,B,60.570745613142435,37.15131412446212,3.0285372806571216,0.5835714776230845,B,932,Correct
2,new_learn,56,132,A,49.066675446869006,56.476197508081405,2.4533337723434503,0.8871260359703735,A,1763,Correct
2,new_learn,56,133,B,56.7871849278431,42.906813202064,2.839359246392155,0.673978645722769,A,709,Incorrect
2,new_learn,56,134,A,61.526727199647794,80.77538109794966,3.0763363599823896,1.2688167192411726,A,1973,Correct
2,new_learn,56,135,A,58.43977819171009,71.4287245317337,2.9219889095855045,1.1219997812209184,A,564,Correct
2,new_learn,56,136,A,23.593411414141055,44.876523343689534,1.1796705707070527,0.7049187802759295,A,1315,Correct
2,new_learn,56,137,A,17.122899482206723,44.27821514638507,0.8561449741103361,0.6955205770897582,A,544,Correct
2,new_learn,56,138,B,50.3908852357489,29.9381697589351,2.519544261787445,0.47026767088297305,B,914,Correct
2,new_learn,56,139,B,60.69626049801326,31.64644162482235,3.034813024900663,0.4971011426040007,B,993,Correct
2,new_learn,56,140,B,47.3948044243386,37.81978061820812,2.36974022121693,0.5940717247527014,B,1186,Correct
2,new_learn,56,141,B,63.19243230997507,43.24268973093372,3.1596216154987538,0.6792545819008209,B,1285,Correct
2,new_learn,56,142,A,37.68262287231268,45.15314693496913,1.8841311436156338,0.7092639734867975,A,860,Correct
2,new_learn,56,143,A,55.16560823800643,77.17623916161365,2.7582804119003215,1.2122815299090717,A,700,Correct
2,new_learn,56,144,B,68.10841878127775,39.42928685309299,3.4054209390638874,0.6193537895698078,A,379,Incorrect
2,new_learn,56,145,A,57.48468269410609,72.04975821703229,2.8742341347053046,1.1317549555377475,B,513,Incorrect
2,new_learn,56,146,A,24.716851351494327,45.12667753747342,1.2358425675747164,0.7088481931632101,A,545,Correct
2,new_learn,56,147,B,50.10254064988273,41.72359594991495,2.505127032494136,0.6553927125880084,A,712,Incorrect
2,new_learn,56,148,A,56.444551207284164,79.15711634949398,2.822227560364208,1.2433970760146138,A,1238,Correct
2,new_learn,56,149,A,67.76857195414408,81.55290831797319,3.388428597707204,1.2810300882531325,A,693,Correct
2,new_learn,56,150,A,40.557531575777006,73.2793908874335,2.02787657878885,1.1510699803574795,A,1181,Correct
2,new_learn,56,151,A,31.70094203000213,60.679996284050475,1.5850471015001064,0.9531591527291445,A,1335,Correct
2,new_learn,56,152,B,61.59420370892422,46.27978418828947,3.079710185446211,0.7269611500782562,B,3893,Correct
2,new_learn,56,153,A,51.512841483582555,80.46089854900296,2.5756420741791275,1.2638768389139068,A,654,Correct
2,new_learn,56,154,A,36.93263440742839,67.12360602390929,1.8466317203714195,1.054375137835845,A,534,Correct
2,new_learn,56,155,A,48.19603914509075,65.10406931170813,2.4098019572545377,1.0226523293423149,A,1231,Correct
2,new_learn,56,156,B,54.43802148020557,35.96959901832435,2.7219010740102783,0.5650091401426921,A,513,Incorrect
2,new_learn,56,157,A,35.512824774307056,49.369878666290774,1.7756412387153528,0.7755002406331927,A,678,Correct
2,new_learn,56,158,B,52.68480462471416,39.62965098394596,2.634240231235708,0.6225011019774607,B,850,Correct
2,new_learn,56,159,A,17.87272087773922,38.51836200026119,0.893636043886961,0.605045015441664,A,507,Correct
2,new_learn,56,160,B,78.44273248988162,57.79509964214185,3.922136624494081,0.9078433022462146,B,1383,Correct
2,new_learn,56,161,B,71.22371179243827,48.604949246097334,3.5611855896219136,0.7634847573982207,B,557,Correct
2,new_learn,56,162,A,28.70862074379619,55.66262472517731,1.4354310371898094,0.8743464645807131,A,555,Correct
2,new_learn,56,163,A,68.37576080878233,84.07758252655563,3.4187880404391167,1.3206875779850835,B,816,Incorrect
2,new_learn,56,164,A,61.740026752127434,87.06853490347945,3.087001337606372,1.3676693480579876,A,466,Correct
2,new_learn,56,165,A,18.65384666064621,45.57473363787982,0.9326923330323105,0.7158862419303743,A,636,Correct
2,new_learn,56,166,B,67.56593921475533,56.8992659079399,3.3782969607377664,0.8937715788551807,100,4433,Incorrect
2,new_learn,56,167,A,45.51409241437651,67.48064682409343,2.2757046207188254,1.0599835216102966,A,697,Correct
2,new_learn,56,168,B,67.23385066630419,53.79570028596487,3.3616925333152095,0.8450208840655279,B,719,Correct
2,new_learn,56,169,B,62.68140310601429,49.35916566284861,3.134070155300714,0.7753319611686338,B,851,Correct
2,new_learn,56,170,A,36.45154051628684,67.57815897119973,1.822577025814342,1.0615152388352214,B,1078,Incorrect
2,new_learn,56,171,B,76.35449073372116,54.11034915566401,3.817724536686058,0.8499633769530636,B,626,Correct
2,new_learn,56,172,A,33.9821642500846,52.50606715143509,1.69910821250423,0.8247633741592041,A,538,Correct
2,new_learn,56,173,A,21.847032234462624,43.97007589104529,1.0923516117231313,0.6906803369854678,A,554,Correct
2,new_learn,56,174,B,68.71530303569986,58.94309921852752,3.4357651517849934,0.9258760374237016,B,676,Correct
2,new_learn,56,175,B,48.45281588527928,35.56815466242836,2.422640794263964,0.5587032669461524,A,1374,Incorrect
2,new_learn,56,176,B,36.68303844346043,26.247284458156976,1.8341519221730216,0.41229138015213757,A,822,Incorrect
2,new_learn,56,177,A,21.01886160711661,43.90727131678372,1.0509430803558304,0.6896938050399078,A,639,Correct
2,new_learn,56,178,A,39.84513535091678,70.23481693858785,1.992256767545839,1.103245924602458,B,2281,Incorrect
2,new_learn,56,179,B,67.47436369156394,57.250812221162164,3.373718184578197,0.899293655430259,B,1253,Correct
2,new_learn,56,180,B,74.98237666318144,49.343439311588305,3.7491188331590717,0.7750849322206981,B,661,Correct
2,new_learn,56,181,B,39.59257942990622,22.83631055316216,1.979628971495311,0.3587119273445465,A,498,Incorrect
2,new_learn,56,182,B,60.44297825756609,35.576564561035546,3.022148912878304,0.5588353693245613,B,329,Correct
2,new_learn,56,183,A,61.70395548655566,76.27222927303184,3.0851977743277827,1.1980813757853659,A,775,Correct
2,new_learn,56,184,B,35.86095027361297,12.407786537954923,1.7930475136806485,0.19490105517474762,A,1078,Incorrect
2,new_learn,56,185,A,40.79184195939626,52.63983129832179,2.039592097969813,0.826864536465069,A,415,Correct
2,new_learn,56,186,B,53.90376666803482,32.949705280152386,2.695188333401741,0.5175727602303777,A,481,Incorrect
2,new_learn,56,187,A,64.83356496731186,77.68127333673974,3.2416782483655933,1.2202145881810111,A,592,Correct
2,new_learn,56,188,B,86.8106002853118,58.66991806850562,4.340530014265591,0.9215849179536616,B,1836,Correct
2,new_learn,56,189,B,44.04947803009185,29.052738822614398,2.202473901504592,0.45635935425894186,A,789,Incorrect
2,new_learn,56,190,B,68.68825212509707,35.67740533288037,3.434412606254853,0.5604193724646114,B,998,Correct
2,new_learn,56,191,B,77.13490752344002,52.104596279265735,3.8567453761720007,0.8184570844460165,B,1039,Correct
2,new_learn,56,192,A,45.20620206340868,52.79683453917726,2.260310103170434,0.8293307376053758,A,887,Correct
2,new_learn,56,193,B,62.482386648267,30.872286006406615,3.12411933241335,0.4849407345862499,B,1409,Correct
2,new_learn,56,194,B,49.01271404692163,40.252212726659984,2.450635702346082,0.6322802789640429,B,664,Correct
2,new_learn,56,195,A,43.33293894505348,68.39578364170612,2.166646947252674,1.0743584571265044,A,1084,Correct
2,new_learn,56,196,B,64.60826809734763,41.41246408560544,3.2304134048673814,0.650505464691946,B,761,Correct
2,new_learn,56,197,A,21.60808630809827,34.57930482015486,1.0804043154049134,0.5431704499462032,A,926,Correct
2,new_learn,56,198,B,45.935215796080904,30.97689137409096,2.296760789804045,0.48658387185946594,B,1430,Correct
2,new_learn,56,199,B,50.230713997547035,26.621453048469874,2.511535699877352,0.4181688066247928,A,975,Incorrect
2,new_learn,56,200,B,50.56587280580032,38.940132792692566,2.528293640290016,0.6116701755566698,B,734,Correct
2,new_learn,56,201,B,52.21138201232536,21.148479066646644,2.610569100616268,0.3321995323518731,B,575,Correct
2,new_learn,56,202,A,42.00941537623715,52.923583089671176,2.1004707688118573,0.8313216991807999,A,770,Correct
2,new_learn,56,203,B,73.04538082220138,44.834951153849005,3.6522690411100687,0.7042657658449462,B,587,Correct
2,new_learn,56,204,A,39.15473949954898,63.46130190845472,1.9577369749774491,0.9968477993142263,A,385,Correct
2,new_learn,56,205,B,66.11135533585485,36.35034845983018,3.3055677667927426,0.5709899383841577,B,858,Correct
2,new_learn,56,206,A,42.46306641562018,50.394503166611536,2.123153320781009,0.7915950046476719,A,317,Correct
2,new_learn,56,207,A,36.844267429762034,61.12816986152913,1.8422133714881017,0.9601990468218448,B,261,Incorrect
2,new_learn,56,208,B,42.18828322893798,20.814877427573165,2.109414161446899,0.3269593300591794,A,762,Incorrect
2,new_learn,56,209,A,45.37322067808707,71.06520516639873,2.268661033904354,1.1162896323830482,B,289,Incorrect
2,new_learn,56,210,A,51.667580020563506,62.067398486062686,2.583379001028175,0.974952415556224,B,328,Incorrect
2,new_learn,56,211,A,52.98101020668943,77.29018845012752,2.649050510334472,1.2140714411474565,B,497,Incorrect
2,new_learn,56,212,A,45.78369668130414,67.98660497991453,2.2891848340652072,1.0679310937370536,B,289,Incorrect
2,new_learn,56,213,A,47.612617635372665,66.60095754448416,2.3806308817686332,1.0461653947189855,A,241,Correct
2,new_learn,56,214,B,82.29984035765487,66.82152317781592,4.114992017882744,1.049630031585533,B,691,Correct
2,new_learn,56,215,B,50.5211034917831,21.649102095580506,2.526055174589155,0.3400633005014556,A,1169,Incorrect
2,new_learn,56,216,B,76.09732020103729,51.86084520576297,3.8048660100518648,0.814628251536912,B,830,Correct
2,new_learn,56,217,B,65.78571390392493,48.63484023536503,3.289285695196247,0.7639542839596805,B,687,Correct
2,new_learn,56,218,B,42.149103594777145,23.598666184351586,2.1074551797388574,0.37068698159638414,B,590,Correct
2,new_learn,56,219,B,71.73242488978363,46.042675771454405,3.5866212444891814,0.7232366597760896,B,900,Correct
2,new_learn,56,220,B,82.43197192301676,51.83815454035205,4.121598596150838,0.814271827398112,B,447,Correct
2,new_learn,56,221,A,51.43101798424887,67.12826008287969,2.5715508992124434,1.054448243623199,A,612,Correct
2,new_learn,56,222,A,35.84815094068904,47.74832826562402,1.7924075470344518,0.7500289865023915,A,876,Correct
2,new_learn,56,223,B,45.410681356306725,18.071305986044102,2.270534067815336,0.28386341063264703,A,682,Incorrect
2,new_learn,56,224,A,31.160714336259417,49.84904961667027,1.5580357168129708,0.783027040320822,B,284,Incorrect
2,new_learn,56,225,B,33.821623644269614,11.068672608099732,1.6910811822134806,0.17386630275298348,A,441,Incorrect
2,new_learn,56,226,A,36.27520191116265,62.73055954570762,1.8137600955581323,0.9853693251218606,A,690,Correct
2,new_learn,56,227,A,18.363358509334564,37.27426277869877,0.9181679254667281,0.5855027505676778,A,803,Correct
2,new_learn,56,228,A,66.2329614908765,83.94846025546101,3.3116480745438253,1.3186593300936553,B,3843,Incorrect
2,new_learn,56,229,A,30.98741237792548,50.02947720852775,1.549370618896274,0.7858611903062439,A,507,Correct
2,new_learn,56,230,A,35.24476009406575,54.85347995214383,1.7622380047032875,0.8616364482074502,A,498,Correct
2,new_learn,56,231,B,63.475226369935825,42.46394638240911,3.1737613184967914,0.6670221099870366,B,2067,Correct
2,new_learn,56,232,B,43.72918931095478,33.87763015467727,2.186459465547739,0.5321485700748307,B,1614,Correct
2,new_learn,56,233,A,27.06349750728544,45.177165460748604,1.3531748753642718,0.7096412556074918,A,707,Correct
2,new_learn,56,234,B,67.21364092591504,54.10360465273337,3.3606820462957523,0.8498574345487686,B,1541,Correct
2,new_learn,56,235,B,64.29394837949826,40.69524622140306,3.214697418974913,0.6392394328259382,B,539,Correct
2,new_learn,56,236,B,76.65458288335704,61.1576411924228,3.8327291441678515,0.9606619814049799,B,2902,Correct
2,new_learn,56,237,A,21.975837032191638,34.82775166598425,1.0987918516095818,0.5470730438745289,A,1251,Correct
2,new_learn,56,238,B,47.94075986665146,19.18438455259791,2.397037993332573,0.3013476078704155,B,2394,Correct
2,new_learn,56,239,B,35.838503302560056,11.794485743258235,1.791925165128003,0.18526734881944812,B,1416,Correct
2,new_learn,56,240,B,34.77177882581506,13.912805251524372,1.7385889412907531,0.21854183384507225,B,551,Correct
2,new_learn,56,241,A,53.00069293430873,76.32897642921218,2.6500346467154365,1.1989727580302072,A,1126,Correct
2,new_learn,56,242,A,26.62627588367164,38.58170597983995,1.331313794183582,0.606040020346133,A,960,Correct
2,new_learn,56,243,B,65.1524280040711,32.319038258474805,3.257621400203555,0.5076662658195595,B,633,Correct
2,new_learn,56,244,A,36.164113512840565,43.86172228185315,1.8082056756420284,0.6889783224723279,A,911,Correct
2,new_learn,56,245,B,54.411517093815085,26.46959760382643,2.7205758546907544,0.41578346687829554,B,2281,Correct
2,new_learn,56,246,A,47.25569278531095,60.09371147735223,2.362784639265547,0.9439498125209719,A,586,Correct
2,new_learn,56,247,B,78.8686015861092,64.77779326108138,3.9434300793054597,1.0175271971238584,B,864,Correct
2,new_learn,56,248,B,67.42167761804242,39.988499114910724,3.371083880902121,0.6281378752374273,B,1118,Correct
2,new_learn,56,249,A,38.97852058983689,61.46895158291552,1.9489260294918445,0.9655520335837705,A,855,Correct
2,new_learn,56,250,B,56.81147744819394,46.50476155853423,2.8405738724096974,0.7304950863461808,B,737,Correct
2,new_learn,56,251,A,48.18262995376635,71.74048837817747,2.4091314976883176,1.1268969562691313,B,812,Incorrect
2,new_learn,56,252,B,69.06654795926679,46.03910914509364,3.4533273979633394,0.7231806353402243,B,746,Correct
2,new_learn,56,253,A,33.017308054270586,41.309769508722006,1.6508654027135292,0.6488923420504433,A,698,Correct
2,new_learn,56,254,B,77.86638880707548,66.3300388308536,3.8933194403537743,1.0419098135166769,B,687,Correct
2,new_learn,56,255,A,20.721058016412503,44.49776515958967,1.0360529008206252,0.6989692606326537,A,659,Correct
2,new_learn,56,256,B,82.66015605526975,54.567159083575476,4.133007802763488,0.8571389305211312,B,551,Correct
2,new_learn,56,257,B,74.5379426421722,52.51192907692691,3.72689713210861,0.8248554530695091,B,1631,Correct
2,new_learn,56,258,B,68.44378131367547,56.27923029489539,3.4221890656837735,0.8840320822206574,A,1745,Incorrect
2,new_learn,56,259,A,31.434550838377735,52.53404243667819,1.5717275419188868,0.8252028089122133,A,568,Correct
2,new_learn,56,260,B,33.6828150803655,18.310031363361077,1.6841407540182751,0.2876133000906693,A,661,Incorrect
2,new_learn,56,261,A,46.6475218049293,60.01506486068991,2.3323760902464645,0.9427144343552917,B,1272,Incorrect
2,new_learn,56,262,A,26.700896711297446,42.90785338219678,1.3350448355648723,0.6739949848340867,A,534,Correct
2,new_learn,56,263,B,53.66510665224566,40.54000166703937,2.683255332612283,0.6368008570684442,B,696,Correct
2,new_learn,56,264,B,45.0397136397254,29.2365625906936,2.25198568198627,0.45924685125570597,B,1406,Correct
2,new_learn,56,265,A,19.281479295869058,36.768450660256235,0.964073964793453,0.5775574723906989,A,473,Correct
2,new_learn,56,266,A,54.782818131762625,65.11497715172126,2.739140906588131,1.0228236692925736,B,1028,Incorrect
2,new_learn,56,267,B,69.95796223704609,38.87645482963319,3.4978981118523045,0.6106699244519552,B,680,Correct
2,new_learn,56,268,B,49.63578287929538,20.19737870168747,2.481789143964769,0.3172596827549615,A,740,Incorrect
2,new_learn,56,269,A,21.76414703555098,37.486552705542735,1.088207351777549,0.5888373929406983,A,528,Correct
2,new_learn,56,270,A,27.679088184801152,38.72833022253532,1.3839544092400575,0.6083431885645827,A,515,Correct
2,new_learn,56,271,A,35.063757136322444,57.19770020548262,1.753187856816122,0.898459373838878,B,2302,Incorrect
2,new_learn,56,272,A,49.39255892342122,76.86613773315085,2.469627946171061,1.2074104680614395,A,737,Correct
2,new_learn,56,273,A,48.57120388656412,74.51396011401,2.428560194328206,1.1704625484202835,A,678,Correct
2,new_learn,56,274,B,43.55591049665652,26.76518054813933,2.177795524832826,0.42042647291019475,A,681,Incorrect
2,new_learn,56,275,A,28.907709170306767,50.57812818425593,1.4453854585153383,0.7944793796799065,B,789,Incorrect
2,new_learn,56,276,B,58.76851735622142,48.16490458567579,2.938425867811071,0.756572552036062,A,260,Incorrect
2,new_learn,56,277,B,40.716489911469026,24.43930639304665,2.035824495573451,0.38389172711612707,B,242,Correct
2,new_learn,56,278,A,39.22345121626853,64.56475074747941,1.9611725608134265,1.0141807331456871,B,247,Incorrect
2,new_learn,56,279,A,37.91797788018057,46.365743330824415,1.8958988940090284,0.7283113931317395,A,437,Correct
2,new_learn,56,280,B,45.571678118092706,23.61902353981737,2.278583905904635,0.37100675418827317,B,203,Correct
2,new_learn,56,281,A,37.46214880240713,62.05719488342644,1.8731074401203562,0.974792137740813,100,2634,Incorrect
2,new_learn,56,282,B,73.72687191819413,44.95254111641754,3.686343595909707,0.7061128646576524,B,641,Correct
2,new_learn,56,283,B,45.72580133217276,21.992865222053073,2.286290066608638,0.3454631190649619,A,534,Incorrect
2,new_learn,56,284,A,64.03253690583483,79.30873666469998,3.2016268452917416,1.2457787223565446,B,720,Incorrect
2,new_learn,56,285,B,47.99809576820911,38.912651797930685,2.3999047884104554,0.6112385051003836,B,488,Correct
2,new_learn,56,286,A,27.08878433949309,38.49559112911045,1.3544392169746544,0.604687331434049,A,661,Correct
2,new_learn,56,287,A,43.3947396141675,61.19397835170063,2.169736980708375,0.9612327641681776,B,526,Incorrect
2,new_learn,56,288,B,62.93482064665446,52.99693419057216,3.1467410323327227,0.832473895579416,B,578,Correct
2,new_learn,56,289,A,67.35952851803943,86.56720374333266,3.3679764259019715,1.3597944566093236,B,677,Incorrect
2,new_learn,56,290,B,32.29657035393906,17.629276751281793,1.6148285176969528,0.2769200316496411,B,445,Correct
2,new_learn,56,291,A,27.14529428987622,60.00198853668605,1.357264714493811,0.9425090319381593,A,1199,Correct
2,new_learn,56,292,A,37.930077978890516,50.25166546383802,1.896503898944526,0.7893513152592274,A,607,Correct
2,new_learn,56,293,B,85.56706084343519,64.23797905065183,4.2783530421717595,1.009047815334914,A,593,Incorrect
2,new_learn,56,294,B,40.7170139249323,20.83979883755533,2.035850696246615,0.32735079465176464,A,1305,Incorrect
2,new_learn,56,295,B,43.85298495956788,22.434120631221287,2.192649247978394,0.35239434282396004,B,304,Correct
2,new_learn,56,296,A,66.84389074032241,84.904892498787,3.3421945370161206,1.3336829326401018,B,370,Incorrect
2,new_learn,56,297,A,64.1115424187634,77.49552136553537,3.2055771209381705,1.217296803040384,B,479,Incorrect
2,new_learn,56,298,B,38.92628682670831,20.800439984718643,1.9463143413354158,0.3267325472371374,A,438,Incorrect
2,new_learn,56,299,A,55.66979109217006,84.57040818981501,2.7834895546085026,1.3284288654010648,B,1131,Incorrect
2,new_learn,56,300,A,60.352921761359454,74.25441233626967,3.0176460880679725,1.1663855814612605,A,1093,Correct
2,new_learn,56,301,A,16.660317047379444,32.663634558339645,0.8330158523689721,0.5130791718401077,A,558,Incorrect
2,new_learn,56,302,A,62.850025243229354,74.23797293904461,3.142501262161468,1.166127352013502,A,542,Correct
2,new_learn,56,303,B,81.48554598813621,58.89961739660783,4.074277299406811,0.9251930265621636,A,781,Correct
2,new_learn,56,304,A,51.8108500230531,67.18128608337385,2.590542501152655,1.0552811740912074,A,772,Incorrect
2,new_learn,56,305,A,25.244098379167706,41.3068217439627,1.2622049189583853,0.6488460386698817,A,639,Correct
2,new_learn,56,306,A,60.0440688373017,74.63129237048894,3.002203441865085,1.1723055991952,B,1238,Incorrect
2,new_learn,56,307,A,38.23541338923033,49.226512426306435,1.9117706694615166,0.7732482490016548,A,569,Incorrect
2,new_learn,56,308,B,31.262458162737733,10.932701393826154,1.5631229081368867,0.17173047191367571,B,731,Correct
2,new_learn,56,309,B,63.71292283761454,39.82378902049234,3.185646141880727,0.625550615124443,A,801,Incorrect
2,new_learn,56,310,B,69.91071240815633,41.30906686424353,3.495535620407816,0.6488813049367852,B,413,Incorrect
2,new_learn,56,311,A,25.033896740168558,51.57701672940299,1.251694837008428,0.8101698842558515,A,245,Correct
2,new_learn,56,312,A,34.15258131366141,55.1022945299234,1.7076290656830704,0.8655448184557419,A,519,Correct
2,new_learn,56,313,B,61.98961848417014,52.42297476156108,3.099480924208507,0.8234581619512171,B,625,Correct
2,new_learn,56,314,A,30.707013731270038,57.87770254953923,1.5353506865635018,0.9091408256814384,A,478,Correct
2,new_learn,56,315,B,62.2821506553316,32.20793038515458,3.11410753276658,0.5059209874266656,A,1401,Incorrect
2,new_learn,56,316,B,38.87362539969945,26.695407467834738,1.9436812699849724,0.4193304799276786,B,825,Incorrect
2,new_learn,56,317,B,58.739528051904095,46.481478007196515,2.9369764025952048,0.7301293491770207,A,988,Correct
2,new_learn,56,318,B,86.92492478761821,68.35883940263443,4.3462462393809105,1.0737781383762042,B,648,Correct
2,new_learn,56,319,B,35.128382208792885,22.456791664087113,1.7564191104396443,0.35275045857546294,A,843,Incorrect
2,new_learn,56,320,A,19.200342291597877,41.14253546462585,0.9600171145798939,0.6462654358286305,A,640,Incorrect
2,new_learn,56,321,B,42.3003960476276,34.273559133424826,2.11501980238138,0.538367807929714,B,633,Correct
2,new_learn,56,322,A,44.4792825175831,51.86188994855881,2.223964125879155,0.8146446623183735,B,4378,Correct
2,new_learn,56,323,B,59.664474216119515,27.448438814428243,2.9832237108059756,0.43115906865958353,B,864,Correct
2,new_learn,56,324,B,37.581326975858815,19.341505670474277,1.8790663487929407,0.3038156606186365,A,1820,Correct
2,new_learn,56,325,A,40.92271987977475,55.31074265071124,2.0461359939887376,0.8688191138803504,B,824,Incorrect
2,new_learn,56,326,A,47.88838399284891,77.45091921167155,2.3944191996424453,1.2165961940458194,B,450,Incorrect
2,new_learn,56,327,A,15.970381448933185,30.682448244390965,0.7985190724466592,0.48195876999363846,A,556,Correct
2,new_learn,56,328,A,36.07116848369854,62.34909239706993,1.8035584241849272,0.9793772531631306,B,821,Incorrect
2,new_learn,56,329,B,51.350015471260065,39.164631962070544,2.5675007735630033,0.6151966002629442,A,616,Correct
2,new_learn,56,330,A,52.155086188685814,76.9981158261897,2.6077543094342905,1.209483575099068,A,540,Correct
2,new_learn,56,331,B,34.27357987551012,18.564463771171496,1.713678993775506,0.2916099150067312,A,528,Correct
2,new_learn,56,332,A,11.280665146347229,32.639363771104854,0.5640332573173614,0.5126979272057393,A,550,Correct
2,new_learn,56,333,A,38.60176031799869,70.48545413573252,1.9300880158999345,1.1071829244887879,B,1266,Correct
2,new_learn,56,334,B,58.84241934935169,47.01870063437681,2.9421209674675843,0.7385680224714796,B,506,Correct
2,new_learn,56,335,B,46.206694560968074,32.23597275296967,2.3103347280484035,0.5063614759102513,B,482,Correct
2,new_learn,56,336,B,79.15125034088844,62.27768095399631,3.957562517044422,0.978255524838419,B,728,Correct
2,new_learn,56,337,B,80.56528239976603,50.65546660090756,4.028264119988302,0.7956942086878716,B,498,Correct
2,new_learn,56,338,A,57.50904297603018,71.7148472957603,2.875452148801509,1.1264941870883718,A,1408,Correct
2,new_learn,56,339,B,77.28348587399765,61.61410121355962,3.864174293699882,0.9678320386502842,B,700,Correct
2,new_learn,56,340,A,32.79038006227209,59.12241742328174,1.6395190031136047,0.9286927611972554,A,1162,Incorrect
2,new_learn,56,341,B,53.05330756103359,32.27493522621651,2.6526653780516796,0.5069734970088412,B,1050,Incorrect
2,new_learn,56,342,A,51.30054553841337,71.02679632495602,2.5650272769206683,1.1156863077125019,A,501,Correct
2,new_learn,56,343,A,48.128280290285474,78.24206322498408,2.406414014514274,1.2290234551465904,A,658,Correct
2,new_learn,56,344,B,39.19968077502638,29.85086219220321,1.9599840387513188,0.46889624683173453,B,1026,Correct
2,new_learn,56,345,B,61.057816558502886,48.97584365705774,3.052890827925144,0.7693107531818743,A,652,Correct
2,new_learn,56,346,B,47.537082009666506,28.275048961259053,2.3768541004833255,0.44414343048291577,B,588,Correct
2,new_learn,56,347,B,39.82264276395719,17.993509199602546,1.9911321381978595,0.2826413815688586,A,859,Correct
2,new_learn,56,348,B,40.754734028927516,17.308818488975803,2.037736701446376,0.27188628503642776,B,790,Correct
2,new_learn,56,349,A,15.475607384238309,39.52192133118353,0.7737803692119155,0.6208088885489995,A,850,Incorrect
2,new_learn,56,350,A,19.458820642543255,39.74918238741172,0.9729410321271628,0.6243786968724673,B,643,Incorrect
2,new_learn,56,351,B,82.86331347119138,57.236443311726404,4.143165673559569,0.8990679491286416,B,597,Correct
2,new_learn,56,352,A,34.54873720326103,45.569366854566795,1.7274368601630514,0.7158019406952262,A,683,Correct
2,new_learn,56,353,A,17.43016423639618,35.33685110031955,0.871508211819809,0.5550699590888014,A,560,Correct
2,new_learn,56,354,A,65.68876442225312,79.52511376190871,3.284438221112656,1.249177565851525,B,608,Incorrect
2,new_learn,56,355,B,57.05543256021045,50.17343166632189,2.852771628010522,0.7881224216415318,A,391,Correct
2,new_learn,56,356,B,71.64903893839988,55.52687705131777,3.5824519469199942,0.8722141451060179,A,841,Correct
2,new_learn,56,357,B,51.46362473740564,43.12917544326088,2.573181236870282,0.6774715036396685,A,447,Incorrect
2,new_learn,56,358,A,49.770573643024036,76.23950320518011,2.488528682151202,1.1975673159136468,B,309,Correct
2,new_learn,56,359,A,39.24390606473737,51.508539514743184,1.9621953032368682,0.8090942466832838,B,425,Incorrect
2,new_learn,56,360,A,35.08882418982039,64.03265808536509,1.7544412094910198,1.00582264115405,A,237,Incorrect
2,new_learn,56,361,B,39.155783003420055,30.600600438919738,1.9577891501710027,0.48067310767173427,B,167,Incorrect
2,new_learn,56,362,B,48.64914008164885,20.243751222438977,2.4324570040824427,0.3179881006075684,A,514,Incorrect
2,new_learn,56,363,A,46.53886433956646,57.23041473118006,2.326943216978323,0.8989732524068618,B,352,Incorrect
2,new_learn,56,364,B,48.33041596332765,24.74356048464641,2.4165207981663825,0.38867093921109924,B,324,Correct
2,new_learn,56,365,B,55.03056807371658,38.01256065252873,2.751528403685829,0.5970999064506034,B,332,Incorrect
2,new_learn,56,366,A,31.735649038595525,64.84032082627206,1.5867824519297762,1.0185093778211078,A,232,Correct
2,new_learn,56,367,A,54.51185249510372,66.92797931721859,2.725592624755186,1.0513022407129176,B,726,Correct
2,new_learn,56,368,A,37.892983625520806,53.776408934002966,1.8946491812760402,0.8447178562175214,A,744,Correct
2,new_learn,56,369,B,61.21971366954593,34.84103322652529,3.0609856834772966,0.5472816701396487,B,793,Correct
2,new_learn,56,370,A,44.5838057389041,56.39413076485976,2.229190286945205,0.8858369345823279,B,619,Correct
2,new_learn,56,371,B,67.18545411176859,43.73611896365594,3.3592727055884297,0.6870053501637536,B,572,Correct
2,new_learn,56,372,B,57.24413700476076,42.786388742138016,2.8622068502380382,0.672087022729689,B,639,Correct
2,new_learn,56,373,A,62.20050206816219,78.34611494261097,3.1100251034081094,1.2306578957050407,B,608,Incorrect
2,new_learn,56,374,B,71.94974694959605,58.84850651721873,3.5974873474798024,0.9243901787461272,A,468,Correct
2,new_learn,56,375,A,28.524942264037385,59.009514166654455,1.4262471132018693,0.9269192809893222,100,638,Incorrect
2,new_learn,56,376,A,18.739359473037375,41.38334737092554,0.9369679736518688,0.6500481004072709,A,567,Correct
2,new_learn,56,377,A,12.566524371636415,39.54913537820451,0.6283262185818208,0.6212363657999773,A,547,Incorrect
2,new_learn,56,378,A,48.537393174625684,59.84713241170558,2.426869658731284,0.9400765576151492,B,576,Correct
2,new_learn,56,379,B,56.29179550501116,40.08396504735225,2.8145897752505578,0.6296374505975594,B,1089,Incorrect
2,new_learn,56,380,B,53.248192803652984,27.414223748280403,2.662409640182649,0.43062161965732276,A,751,Correct
2,new_learn,56,381,B,38.61527542732389,28.944998294390544,1.9307637713661945,0.45466696999913214,A,605,Incorrect
2,new_learn,56,382,B,81.28781314898353,54.951790850095094,4.064390657449177,0.8631807121813078,B,730,Correct
2,new_learn,56,383,B,71.2549681430912,53.093182221145305,3.5627484071545603,0.8339857561082714,B,712,Incorrect
2,new_learn,56,384,A,41.47845013168083,61.96355402183138,2.0739225065840414,0.9733212305264987,A,646,Incorrect
2,new_learn,56,385,B,66.55810660620071,57.78288469962299,3.327905330310035,0.9076514303778083,B,997,Correct
2,new_learn,56,386,A,27.685507915918578,44.80644846324244,1.3842753957959288,0.7038180466278606,A,729,Correct
2,new_learn,56,387,A,40.69536290572346,61.53092909493945,2.034768145286173,0.9665255740660811,B,753,Incorrect
2,new_learn,56,388,B,37.51929853774931,16.52572852477108,1.8759649268874654,0.25958553664320055,A,142,Correct
2,new_learn,56,389,B,41.14913348843098,24.918979085403134,2.057456674421549,0.39142640814830093,A,619,Correct
2,new_learn,56,390,A,25.471341475976388,55.443083831598905,1.2735670737988194,0.8708979242885708,A,609,Correct
2,new_learn,56,391,B,68.78434114861305,54.07252998761475,3.439217057430653,0.8493693148505214,B,556,Incorrect
2,new_learn,56,392,A,16.331062540160275,37.65399483074579,0.8165531270080137,0.591467567692895,A,549,Correct
2,new_learn,56,393,B,45.505908942313965,29.786220251726583,2.275295447115698,0.46788085360515874,B,1102,Incorrect
2,new_learn,56,394,B,68.01948259833725,56.33446513496489,3.4009741299168628,0.8848997090595802,A,340,Incorrect
2,new_learn,56,395,B,36.562278663288595,20.249577102709875,1.8281139331644298,0.3180796133208672,B,917,Correct
2,new_learn,56,396,A,21.236797340567808,37.88897145843754,1.0618398670283904,0.5951585719295036,A,503,Correct
2,new_learn,56,397,B,84.8257219439214,69.43050188092658,4.2412860971960695,1.0906117732208562,B,593,Incorrect
2,new_learn,56,398,A,25.25235777113761,52.67153732669379,1.2626178885568806,0.8273625735941089,A,661,Correct
2,new_learn,56,399,A,28.766818997486588,38.07179142580237,1.4383409498743294,0.598030301261518,A,3589,Correct
2,new_learn,56,400,A,39.37132703674078,55.992185937574675,1.968566351837039,0.8795231999995917,B,1158,Correct
2,new_learn,56,401,B,68.84773762419618,60.08642260993579,3.442386881209809,0.9438353192593295,B,1131,Incorrect
2,new_learn,56,402,A,50.870984735408925,75.68797387106139,2.543549236770446,1.1889039133921135,B,496,Correct
2,new_learn,56,403,B,62.052223958414196,43.27111464862931,3.10261119792071,0.6797010794638776,B,514,Correct
2,new_learn,56,404,B,70.62338165306679,40.15814102893579,3.531169082653339,0.6308026041916376,B,669,Correct
2,new_learn,56,405,B,83.57364272545291,62.063545572582555,4.178682136272646,0.9748918941328033,B,768,Correct
2,new_learn,56,406,A,45.04992579708979,56.706402267278456,2.2524962898544896,0.8907420838719479,B,457,Correct
2,new_learn,56,407,A,50.19881378904855,76.67722915955042,2.5099406894524274,1.2044430991263235,B,632,Incorrect
2,new_learn,56,408,A,61.58698767998497,70.61849943140794,3.079349383999249,1.109272795106231,A,328,Correct
2,new_learn,56,409,A,13.661983743429637,40.80538255741808,0.6830991871714818,0.6409694503465286,B,18,Incorrect
2,new_learn,56,410,B,62.464901769189524,39.897592874364335,3.123245088459476,0.6267099233500973,B,682,Correct
2,new_learn,56,411,A,52.80734192967407,66.69818843570775,2.640367096483703,1.0476926939868358,A,1210,Correct
2,new_learn,56,412,A,18.110149367616625,33.47563956351138,0.9055074683808313,0.5258341166347359,100,609,Incorrect
2,new_learn,56,413,A,32.55305792878413,45.18306605240947,1.6276528964392065,0.7097339418845598,A,717,Correct
2,new_learn,56,414,A,32.693509613767965,61.06080285480699,1.634675480688398,0.9591408483547814,B,651,Correct
2,new_learn,56,415,B,68.4022809879684,59.17259342111352,3.42011404939842,0.9294809239281298,107,320,Incorrect
2,new_learn,56,416,B,40.53163052013312,29.28777193487916,2.026581526006656,0.46005124575314843,B,626,Correct
2,new_learn,56,417,A,13.23708320842086,40.89816505860874,0.661854160421043,0.6424268744671399,A,539,Correct
2,new_learn,56,418,B,85.21746219730002,59.03246819998431,4.260873109865002,0.9272798421017189,B,472,Incorrect
2,new_learn,56,419,A,49.49470559883403,78.58145871067416,2.4747352799417017,1.234354666969118,A,867,Correct
2,new_learn,56,420,B,54.949360573080284,36.42995020679477,2.7474680286540143,0.572240319701542,B,1208,Correct
2,new_learn,56,421,B,70.3615538927507,37.24270405868964,3.518077694637535,0.5850070273529907,B,1145,Correct
2,new_learn,56,422,A,62.68241384212078,80.65565783329441,3.1341206921060394,1.2669361105976487,A,707,Incorrect
2,new_learn,56,423,A,54.44556416635074,79.51355573145932,2.722278208317537,1.2489960127337758,B,908,Correct
2,new_learn,56,424,A,21.83462014270671,42.26186587156167,1.0917310071353357,0.6638478367454768,A,880,Correct
2,new_learn,56,425,A,62.71087345084198,75.09782127128506,3.135543672542099,1.1796338180323422,B,792,Incorrect
2,new_learn,56,426,A,19.548012870511922,42.067164309582765,0.9774006435255962,0.6607894717616998,A,1427,Correct
2,new_learn,56,427,A,32.36989257417995,59.415665267610315,1.6184946287089974,0.933299087564374,107,1463,Correct
2,new_learn,56,428,A,47.394300476686716,78.55577286584108,2.3697150238343356,1.2339511946619737,100,232,Correct
2,new_learn,56,429,B,37.168738386758214,13.583974131823304,1.8584369193379107,0.2133765666954494,100,1084,Correct
2,new_learn,56,430,A,68.5602120082367,82.91959886667993,3.4280106004118354,1.302498013190871,100,830,Incorrect
2,new_learn,56,431,B,41.53439129142245,14.437912763923563,2.0767195645711225,0.22679020336156286,B,100,Correct
2,new_learn,56,432,B,47.92366995284743,20.13444603753411,2.3961834976423715,0.31627113877808644,B,614,Correct
2,new_learn,56,433,B,86.42872689650558,59.89704515076761,4.321436344825279,0.9408605850869383,B,598,Correct
2,new_learn,56,434,B,53.639085012195885,29.59011194505746,2.681954250609794,0.4648003915274605,B,567,Incorrect
2,new_learn,56,435,B,51.641932154453364,37.714244861912384,2.582096607722668,0.5924139729693526,A,423,Incorrect
2,new_learn,56,436,B,74.24822804746155,59.09987622579237,3.712411402373078,0.9283386848950768,B,739,Correct
2,new_learn,56,437,A,30.947011886710584,53.5378412915639,1.5473505943355292,0.8409704444531672,A,642,Correct
2,new_learn,56,438,A,49.32128889695936,57.037920879733136,2.4660644448479676,0.8959495660590275,B,698,Incorrect
2,new_learn,56,439,B,36.74899539318256,11.020423167070085,1.8374497696591279,0.1731084023055907,B,772,Incorrect
2,new_learn,56,440,B,50.624868636838706,30.86635212337923,2.531243431841935,0.4848475253696195,B,1051,Incorrect
2,new_learn,56,441,A,15.374029151009314,43.34860409035423,0.7687014575504656,0.6809182807681465,A,480,Incorrect
2,new_learn,56,442,A,45.49332885141212,58.1784680204194,2.2746664425706062,0.9138652386502917,A,394,Incorrect
2,new_learn,56,443,A,65.21265466511265,88.5567840418737,3.260632733255633,1.3910467108574411,B,303,Incorrect
2,new_learn,56,444,A,32.20440923766547,45.32658262594582,1.6102204618832736,0.7119882949500108,B,656,Incorrect
2,new_learn,56,445,A,48.4599572456101,74.4170236646997,2.422997862280505,1.1689398742351917,A,280,Correct
2,new_learn,56,446,A,22.554781212682045,33.782188919872965,1.1277390606341022,0.5306493826642771,A,843,Incorrect
2,new_learn,56,447,B,52.8957954775171,40.35911471103579,2.644789773875855,0.633959491407889,B,947,Incorrect
2,new_learn,56,448,B,31.4379706021371,16.63295011318685,1.571898530106855,0.2612697694155666,B,281,Correct
2,new_learn,56,449,B,43.46141476542934,20.08921546881821,2.173070738271467,0.31556065866610855,B,560,Correct
2,new_learn,56,450,B,65.75588145645975,48.201873215268606,3.2877940728229875,0.7571532539117722,B,750,Correct
2,new_learn,56,451,B,39.151744061419876,18.656913788431883,1.957587203070994,0.2930621164819786,B,700,Correct
2,new_learn,56,452,A,30.109345964400923,49.2875557390035,1.505467298220046,0.7742071151152542,B,822,Correct
2,new_learn,56,453,A,13.552899583260363,30.581792409717977,0.6776449791630182,0.48037767183989044,A,553,Incorrect
2,new_learn,56,454,B,83.06386850414196,65.88356577149288,4.153193425207098,1.03489663110011,B,395,Incorrect
2,new_learn,56,455,A,44.952413850295514,69.1913441209773,2.2476206925147757,1.086855091912328,A,1078,Correct
2,new_learn,56,456,A,40.14624384188164,50.93091308087675,2.007312192094082,0.8000209118775135,A,755,Incorrect
2,new_learn,56,457,B,80.05645515051086,53.376380304422206,4.002822757525543,0.8384342211979385,B,609,Correct
2,new_learn,56,458,A,57.65700319338735,75.89749861804499,2.8828501596693674,1.192195120421458,B,500,Incorrect
2,new_learn,56,459,A,59.52371717554078,71.7638447680177,2.9761858587770393,1.1272638375828137,A,755,Correct
2,new_learn,56,460,B,79.44289201332631,61.618021866004696,3.9721446006663155,0.9678936241148779,B,761,Correct
2,new_learn,56,461,A,35.53480623023711,58.429712009850036,1.7767403115118554,0.9178117700075608,B,642,Incorrect
2,new_learn,56,462,B,87.45631915147571,69.2457874662497,4.372815957573786,1.0877102859800512,B,684,Incorrect
2,new_learn,56,463,B,44.72134653093394,15.455709801344444,2.236067326546697,0.24277772183959737,B,795,Correct
2,new_learn,56,464,A,40.462673928390025,58.54097656549479,2.0231336964195012,0.9195595095606534,A,805,Correct
2,new_learn,56,465,B,61.502616509471125,38.00913823787456,3.0751308254735563,0.5970461472869281,B,574,Correct
2,new_learn,56,466,B,68.20383535625801,51.279602232968415,3.4101917678129006,0.8054981082705017,B,741,Correct
2,new_learn,56,467,A,45.938298421849794,59.69079082395361,2.2969149210924895,0.9376207496974883,B,2195,Incorrect
2,new_learn,56,468,B,35.70527712504661,18.732751737478548,1.7852638562523304,0.2942533761999202,B,664,Incorrect
2,new_learn,56,469,A,25.88798702452378,46.764540932855624,1.294399351226189,0.7345756912157919,A,388,Correct
2,new_learn,56,470,B,54.87977958504131,38.191084491803004,2.7439889792520655,0.5999041523603771,B,445,Correct
2,new_learn,56,471,B,50.67507706094941,22.01777182121716,2.5337538530474704,0.3458543510097609,B,869,Correct
2,new_learn,56,472,B,73.2223685008021,58.93289062203752,3.661118425040105,0.9257156811650193,B,600,Incorrect
2,new_learn,56,473,A,49.307958065477976,60.26509038894192,2.4653979032738986,0.946641826169124,A,967,Correct
2,new_learn,56,474,B,68.96456431479598,55.7843902721691,3.448228215739799,0.8762591533201617,A,692,Correct
2,new_learn,56,475,A,43.30812502370509,52.448335079475484,2.1654062511852543,0.8238565208934799,B,537,Incorrect
2,new_learn,56,476,B,62.5576920859626,51.52173623662142,3.1278846042981296,0.8093015403058045,B,687,Correct
2,new_learn,56,477,B,82.14705264101269,51.324264821766555,4.107352632050635,0.8061996665747944,B,781,Correct
2,new_learn,56,478,A,48.30327199266949,75.45328780423964,2.4151635996334746,1.185217473274978,A,692,Incorrect
2,new_learn,56,479,B,30.696628778139992,10.900870936984251,1.5348314389069995,0.17123048026680102,B,692,Correct
2,new_learn,56,480,B,56.85298261569538,28.082922805173915,2.8426491307847694,0.4411255198803182,A,1093,Correct
2,new_learn,56,481,B,56.67476489605528,42.500865792587355,2.833738244802764,0.6676020387259909,B,1723,Correct
2,new_learn,56,482,B,42.126231994423776,30.383620601901384,2.106311599721189,0.4772647963619644,B,2261,Incorrect
2,new_learn,56,483,A,52.83966122154086,65.85570189968205,2.641983061077043,1.0344589464252025,A,729,Incorrect
2,new_learn,56,484,B,66.18325430142797,57.53054648213693,3.3091627150713983,0.9036877109264373,B,383,Correct
2,new_learn,56,485,A,54.020560572846904,72.08916804725968,2.701028028642345,1.1323740037033552,B,629,Correct
2,new_learn,56,486,A,34.42911829557239,43.63292163531314,1.7214559147786193,0.6853843303207945,A,620,Correct
2,new_learn,56,487,B,67.1630507152403,56.532817924234934,3.358152535762015,0.8880154273875291,B,647,Correct
2,new_learn,56,488,B,82.9529762360407,61.942803864379556,4.147648811802035,0.9729952878154412,B,1320,Correct
2,new_learn,56,489,B,35.63982736138123,15.508435329578226,1.7819913680690616,0.24360593250037682,A,580,Incorrect
2,new_learn,56,490,A,44.45554483987112,52.01335850548716,2.222777241993556,0.8170239248468532,B,492,Incorrect
2,new_learn,56,491,A,33.80163377328117,43.935026357771804,1.6900816886640584,0.6901297802042491,A,70,Correct
2,new_learn,56,492,B,40.62975139765692,21.105398645747368,2.031487569882846,0.3315228266828195,A,588,Incorrect
2,new_learn,56,493,B,51.23132270677061,21.180542205254792,2.56156613533853,0.33270317895538504,B,423,Incorrect
2,new_learn,56,494,B,61.86252420567452,50.66602316214409,3.093126210283726,0.7958600307640108,100,233,Incorrect
2,new_learn,56,495,A,61.71643633227377,71.36993951696488,3.0858218166136884,1.1210763883682238,B,76,Correct
2,new_learn,56,496,A,53.53652486217847,64.2221415322272,2.6768262431089234,1.0087990401772444,B,450,Correct
2,new_learn,56,497,B,45.664557491568814,33.78166405162857,2.283227874578441,0.5306411380531736,B,507,Correct
2,new_learn,56,498,A,49.647497678159475,73.38149890378016,2.482374883907974,1.1526738893276158,A,738,Correct
2,new_learn,56,499,B,57.29917183665289,33.98211801651556,2.8649585918326443,0.5337898615705332,B,620,Correct
2,new_learn,56,500,B,50.61263652640757,37.922133462274815,2.530631826320379,0.5956794794676711,B,605,Correct
2,new_learn,56,501,A,49.67364586204858,76.0981369508759,2.483682293102429,1.1953467399837088,A,732,Incorrect
2,new_learn,56,502,B,46.2199818622286,20.43127421909827,2.31099909311143,0.3209337049509883,B,354,Incorrect
2,new_learn,56,503,B,67.38741070031904,58.79057617409738,3.369370535015952,0.9234802110442771,B,312,Incorrect
2,new_learn,56,504,A,22.283202042487023,38.58224901628117,1.114160102124351,0.6060485503426047,A,625,Incorrect
2,new_learn,56,505,A,33.537563335441845,61.67811429974357,1.6768781667720924,0.9688375538567299,B,276,Incorrect
2,new_learn,56,506,A,47.84117465552872,56.71283788885878,2.392058732776436,0.890843174379338,B,678,Incorrect
2,new_learn,56,507,A,49.47016865547647,72.2197978845989,2.4735084327738237,1.1344259323899781,A,946,Incorrect
2,new_learn,56,508,B,41.43527746529524,15.697502540148104,2.0717638732647625,0.24657579329918203,B,2776,Correct
2,new_learn,56,509,A,41.99878818258128,62.56112428490424,2.099939409129064,0.9827078422688658,B,600,Incorrect
2,new_learn,56,510,A,69.19185425757887,83.45398860957037,3.4595927128789437,1.310892187642963,B,664,Correct
2,new_learn,56,511,B,52.46211146320893,40.885780437468725,2.6231055731604465,0.6422323372931852,A,2816,Incorrect
2,new_learn,56,512,B,74.83635713776724,44.565127064037796,3.7418178568883618,0.7000273789533841,B,659,Correct
2,new_learn,56,513,B,60.76554824748702,50.369295496918895,3.0382774123743506,0.7911990434980692,B,556,Correct
2,new_learn,56,514,B,41.01079928989357,16.578065554438645,2.0505399644946785,0.26040764478277223,A,3962,Incorrect
2,new_learn,56,515,A,11.82375027426325,30.564219667326224,0.5911875137131625,0.4801016398478836,A,551,Correct
2,new_learn,56,516,B,63.75188833352938,44.60596603363488,3.187594416676469,0.7006688759877158,B,644,Correct
2,new_learn,56,517,B,65.11489006534242,32.53489083285872,3.2557445032671213,0.5110568701292744,B,800,Correct
2,new_learn,56,518,B,63.559600333792204,39.94008301040078,3.1779800166896104,0.627377356846208,B,837,Correct
2,new_learn,56,519,A,45.37490903399854,63.61483854841305,2.268745451699927,0.999259547214976,B,3872,Incorrect
2,new_learn,56,520,B,82.24105320221229,64.19243667157403,4.112052660110614,1.0083324373172249,B,685,Incorrect
2,new_learn,56,521,A,62.145933664925934,81.52394776364038,3.1072966832462963,1.2805751769294533,B,483,Correct
2,new_learn,56,522,B,63.43433622549733,32.9858332369212,3.1717168112748664,0.5181402568482484,A,664,Correct
2,new_learn,56,523,A,49.06824776097866,71.37814350708436,2.453412388048933,1.1212052563436712,A,2135,Correct
2,new_learn,56,524,B,82.57698548189,52.41359634107212,4.128849274094501,0.8233108460666654,B,762,Correct
2,new_learn,56,525,B,51.91936508172829,24.84954944637457,2.5959682540864146,0.39033580992873335,A,1803,Correct
2,new_learn,56,526,B,74.61767116965773,62.643010812426226,3.7308835584828866,0.9839941128353211,B,749,Correct
2,new_learn,56,527,A,23.584017367060603,43.04160075718627,1.1792008683530302,0.6760958836876064,A,671,Incorrect
2,new_learn,56,528,B,39.700263497154396,27.36261970527708,1.9850131748577198,0.429811025245349,B,985,Correct
2,new_learn,56,529,A,67.91054612621478,85.50595082754765,3.3955273063107394,1.343124334790169,B,1295,Incorrect
2,new_learn,56,530,B,37.79938825282346,17.908070635782064,1.889969412641173,0.28129931574670014,B,631,Correct
2,new_learn,56,531,B,86.31865366286286,67.0999002876375,4.315932683143143,1.054002769001248,A,870,Correct
2,new_learn,56,532,A,41.89970219737026,60.54653364992984,2.094985109868513,0.9510627265747341,A,527,Incorrect
2,new_learn,56,533,A,65.44649655449084,82.3324912459667,3.272324827724542,1.2932757482503745,A,607,Correct
2,new_learn,56,534,B,69.22564815698654,52.24345048554886,3.461282407849327,0.8206382012179121,A,1723,Correct
2,new_learn,56,535,A,35.68146866101852,68.28940301283039,1.784073433050926,1.072687434115703,A,949,Incorrect
2,new_learn,56,536,B,74.08876875658913,46.690991706935606,3.704438437829457,0.7334203826766543,B,979,Incorrect
2,new_learn,56,537,B,81.2081346093958,59.50786079662549,4.06040673046979,0.9347472915476135,A,1287,Correct
2,new_learn,56,538,A,38.40206300291602,49.42697288658123,1.920103150145801,0.7763970745483274,A,1085,Correct
2,new_learn,56,539,A,37.75253114291805,64.47088960336568,1.8876265571459028,1.0127063657416608,A,2888,Correct
2,new_learn,56,540,A,30.697035514104925,60.58937482940188,1.5348517757052462,0.9517356742482365,A,3680,Correct
2,new_learn,56,541,B,52.81094838200636,29.18756103919322,2.6405474191003178,0.4584771366846654,B,1308,Correct
2,new_learn,56,542,B,42.512639309549,22.985731290480555,2.1256319654774503,0.36105902279781377,B,1016,Incorrect
2,new_learn,56,543,A,47.428086701945546,76.2775832191289,2.371404335097277,1.1981654753739972,A,442,Correct
2,new_learn,56,544,B,62.901536447268256,32.79514980060054,3.145076822363413,0.5151450084347171,B,600,Incorrect
2,new_learn,56,545,B,31.918563934807022,15.07481872892274,1.595928196740351,0.2367946988649075,A,391,Incorrect
2,new_learn,56,546,B,84.84795018509857,64.30757027422206,4.242397509254928,1.010140951718527,A,485,Incorrect
2,new_learn,56,547,A,37.514552412542216,52.28964487633957,1.875727620627111,0.8213638210116379,B,410,Correct
2,new_learn,56,548,A,41.47954915120869,69.97505742178065,2.073977457560434,1.0991656316539502,B,726,Incorrect
2,new_learn,56,549,A,12.532392935746408,37.93939768073769,0.6266196467873204,0.5959506651771359,A,1855,Incorrect
2,new_learn,56,550,A,28.64453856731737,43.37364456816635,1.4322269283658684,0.6813116156738313,B,916,Correct
2,new_learn,56,551,A,44.071998206712266,61.39515442639731,2.203599910335613,0.9643928305599033,B,897,Correct
2,new_learn,56,552,A,45.959202172901655,62.78457475496092,2.297960108645083,0.9862177940447222,A,1950,Correct
2,new_learn,56,553,A,25.669339888545867,38.672732843876304,1.2834669944272934,0.6074698669828126,A,1039,Correct
2,new_learn,56,554,A,41.435973812482665,57.89877694961679,2.0717986906241332,0.9094718615837507,B,917,Incorrect
2,new_learn,56,555,B,63.578476624915126,33.180513449929734,3.1789238312457564,0.5211982864831829,A,1622,Incorrect
2,new_learn,56,556,A,29.8589408604385,52.22792038122171,1.4929470430219252,0.8203942549095938,A,771,Incorrect
2,new_learn,56,557,B,55.52967396817742,30.683083326953934,2.776483698408871,0.4819687458472097,B,438,Correct
2,new_learn,56,558,A,45.01408989109374,76.91729154282118,2.250704494554687,1.2082139902247566,B,423,Correct
2,new_learn,56,559,A,44.60757352429307,63.095274416102164,2.2303786762146536,0.9910982529092929,B,394,Correct
2,new_learn,56,560,A,37.52469799831342,59.37120247279663,1.876234899915671,0.9326006676166503,B,542,Incorrect
2,new_learn,56,561,A,12.81924129811135,39.87674189729674,0.6409620649055675,0.6263823969682187,B,1210,Incorrect
2,new_learn,56,562,A,46.4819209055984,53.931466217697526,2.32409604527992,0.8471534903342232,B,660,Correct
2,new_learn,56,563,B,46.05360837676259,37.79992096445381,2.3026804188381296,0.5937597700410144,B,683,Incorrect
2,new_learn,56,564,A,41.6644193211892,68.56824996781162,2.08322096605946,1.077067551841928,A,489,Correct
2,new_learn,56,565,A,24.886267780705722,49.49919729011851,1.2443133890352862,0.7775315728261406,A,704,Correct
2,new_learn,56,566,A,55.13705629235095,78.62442498532424,2.7568528146175475,1.235029579633082,B,985,Correct
2,new_learn,56,567,A,66.74531997432987,82.03023867783507,3.3372659987164934,1.2885279760125197,B,565,Correct
2,new_learn,56,568,B,73.92572887244118,51.90653738539505,3.6962864436220593,0.8153459826162052,A,2033,Incorrect
2,new_learn,56,569,A,58.07744589259529,77.95434641117446,2.9038722946297644,1.2245040100036977,A,940,Correct
2,new_learn,56,570,A,48.48452484061117,60.77716805360151,2.4242262420305587,0.9546855233159339,A,1527,Incorrect
2,new_learn,56,571,A,33.221140308415826,58.96742118573562,1.6610570154207915,0.9262580859912107,B,1322,Incorrect
2,new_learn,56,572,B,63.021013183795056,37.37801568442717,3.151050659189753,0.5871324973998023,B,1666,Correct
2,new_learn,56,573,B,49.838878277509096,38.69136904540595,2.4919439138754544,0.6077626037518943,B,450,Incorrect
2,new_learn,56,574,B,78.08071653685742,56.45614043002627,3.9040358268428714,0.886810980125021,A,267,Incorrect
2,new_learn,56,575,B,36.531482216253806,18.00974269429693,1.8265741108126903,0.28289637670722834,B,334,Correct
2,new_learn,56,576,A,41.534244413233516,68.94924565911775,2.0767122206616757,1.0830522181662112,B,551,Correct
2,new_learn,56,577,B,75.21718231607827,45.492481765425325,3.760859115803913,0.7145942325391391,B,662,Correct
2,new_learn,56,578,A,12.702547418782526,37.12224938452711,0.6351273709391263,0.583114929755793,A,564,Incorrect
2,new_learn,56,579,A,45.230522571596936,58.91705943574291,2.2615261285798467,0.9254670054722155,B,590,Correct
2,new_learn,56,580,A,31.73911911638745,60.38699240082895,1.5869559558193727,0.9485566584941345,B,568,Incorrect
2,new_learn,56,581,B,60.581816937809165,42.482203988841796,3.0290908468904583,0.667308899798242,A,559,Incorrect
2,new_learn,56,582,B,76.49540075921311,61.022439129533794,3.8247700379606555,0.9585382323673686,B,272,Correct
2,new_learn,56,583,B,64.6298953292296,54.540693026254594,3.23149476646148,0.8567232026648874,B,414,Incorrect
2,new_learn,56,584,A,58.57195381565093,74.15646138167064,2.9285976907825466,1.1648469714643583,B,542,Incorrect
2,new_learn,56,585,A,43.422058481502575,52.854279841702684,2.1711029240751287,0.8302330863073611,A,284,Correct
2,new_learn,56,586,B,36.17632561265579,19.81931350140744,1.8088162806327892,0.31132104847607306,A,379,Correct
2,new_learn,56,587,A,62.59532415547392,76.00955573406635,3.129766207773696,1.193955309483834,B,1269,Correct
2,new_learn,56,588,A,35.75178585100241,46.87776185066831,1.7875892925501204,0.7363541612339572,A,724,Incorrect
2,new_learn,56,589,B,80.31666558988621,59.33181779540921,4.015833279494311,0.9319820145509286,A,854,Incorrect
2,new_learn,56,590,A,31.37285301318684,51.369180148535975,1.568642650659342,0.8069051948778564,B,271,Correct
2,new_learn,56,591,B,41.51290616143635,25.2843736413747,2.0756453080718176,0.3971660124118108,B,1051,Correct
2,new_learn,56,592,B,46.33588364120661,18.602909884772735,2.31679418206033,0.2922138251469748,A,1393,Incorrect
2,new_learn,56,593,B,86.01539272091097,60.84396477225265,4.3007696360455485,0.9557347637189254,B,609,Incorrect
2,new_learn,56,594,B,40.768833339689124,14.71505971521405,2.0384416669844563,0.23114361749225784,A,445,Correct
2,new_learn,56,595,A,25.80774232340334,44.658706531881926,1.290387116170167,0.7014973217969137,B,801,Correct
2,new_learn,56,596,A,63.02478689022067,84.40043691438362,3.151239344511033,1.3257589628499817,A,932,Incorrect
2,new_learn,56,597,A,45.43248548486809,54.34988581846511,2.2716242742434045,0.8537260100536703,B,356,Incorrect
2,new_learn,56,598,A,36.24231373086078,47.63301139286148,1.812115686543039,0.7482175933008628,A,357,Correct
2,new_learn,56,599,B,45.91640019317691,31.498204226263162,2.2958200096588457,0.4947726349924967,B,284,Correct
2,new_learn,56,600,B,32.23597275296967,53.793305439031926,1.6117986376484836,0.8449832658978728,B,867,Correct
2,new_learn,56,601,B,58.66991806850562,13.189399714688193,2.9334959034252814,0.2071786062446187,B,1538,Correct
2,new_learn,56,602,B,43.537726774980825,45.33872913034063,2.1768863387490414,0.7121790917948785,A,1126,Incorrect
2,new_learn,56,603,B,64.23797905065183,14.432939156564814,3.211898952532591,0.22671207811986244,B,626,Correct
2,new_learn,56,604,B,29.167081943116784,39.184939084147715,1.4583540971558393,0.6155155837906101,B,572,Correct
2,new_learn,56,605,B,33.47325064446773,39.25917683988009,1.6736625322233865,0.6166817077307492,B,540,Correct
2,new_learn,56,606,B,23.94655921693844,46.01898225930642,1.197327960846922,0.7228644829575804,A,583,Incorrect
2,new_learn,56,607,B,46.690991706935606,25.911231243410867,2.3345495853467804,0.4070126685988295,B,474,Correct
2,new_learn,56,608,A,62.56112428490424,58.00121181741872,3.1280562142452117,0.9110809047245407,B,1977,Incorrect
2,new_learn,56,609,A,75.68797387106139,49.129015264591075,3.7843986935530696,0.7717167671667007,B,962,Incorrect
2,new_learn,56,610,B,56.45614043002627,21.919283463142577,2.8228070215013132,0.3443072994988048,A,444,Incorrect
2,new_learn,56,611,A,43.97007589104529,78.15296776553737,2.1985037945522645,1.2276239469422605,B,494,Incorrect
2,new_learn,56,612,B,26.695407467834738,61.12637460030055,1.3347703733917369,0.9601708469244097,A,576,Incorrect
2,new_learn,56,613,B,67.20650411344161,10.87163495907734,3.3603252056720807,0.17077124259973672,A,633,Incorrect
2,new_learn,56,614,A,75.07828242006894,48.339914183902934,3.7539141210034472,0.7593215963765526,A,267,Correct
2,new_learn,56,615,A,55.31074265071124,59.07728012022525,2.765537132535562,0.9279837460988298,B,606,Incorrect
2,new_learn,56,616,A,50.394503166611536,57.53693358437982,2.519725158330577,0.9037880392938574,A,394,Correct
2,new_learn,56,617,A,50.929482714350904,61.8629509041913,2.546474135717545,0.971740960449967,A,346,Correct
2,new_learn,56,618,B,34.73606621739261,52.96675669524323,1.7368033108696306,0.8319998685912705,A,761,Incorrect
2,new_learn,56,619,A,58.02604700744409,56.72632755301433,2.901302350372205,0.8910550695283904,B,579,Incorrect
2,new_learn,56,620,A,69.4287784149773,54.55829769005308,3.4714389207488647,0.8569997360771787,A,380,Correct
2,new_learn,56,621,A,77.3360430554099,42.90695166294652,3.866802152770495,0.6739808206612257,B,748,Incorrect
2,new_learn,56,622,B,54.567159083575476,17.339843944730248,2.7283579541787737,0.27237363175579,A,255,Incorrect
2,new_learn,56,623,A,76.26985549868236,55.63278053544971,3.8134927749341183,0.8738776731447102,B,347,Incorrect
2,new_learn,56,624,B,20.48548534487359,65.3764122915587,1.0242742672436795,1.0269302828660911,A,326,Incorrect
2,new_learn,56,625,B,21.180542205254792,48.76867729322939,1.0590271102627395,0.7660565915485039,A,593,Incorrect
2,new_learn,56,626,A,72.45459665975615,38.504474286440285,3.6227298329878073,0.6048268677430895,B,608,Incorrect
2,new_learn,56,627,A,79.30873666469998,35.96746309416517,3.9654368332349987,0.5649755891244566,A,677,Correct
2,new_learn,56,628,B,43.73611896365594,32.81454588823141,2.186805948182797,0.5154496814667647,A,525,Incorrect
2,new_learn,56,629,A,45.569366854566795,65.45126279673897,2.2784683427283396,1.0281060318520505,B,877,Incorrect
2,new_learn,56,630,B,45.492481765425325,24.782817683921735,2.2746240882712665,0.38928758985531864,A,111,Incorrect
2,new_learn,56,631,B,27.448438814428243,40.335525783880485,1.3724219407214122,0.6335889574066031,107,21,Correct
2,new_learn,56,632,A,42.75054589690497,83.36807617006107,2.137527294845248,1.3095426781988908,B,211,Incorrect
2,new_learn,56,633,B,39.42928685309299,31.89158121872225,1.9714643426546496,0.5009517863405002,A,227,Incorrect
2,new_learn,56,634,A,50.9809917032751,56.069814772807135,2.549049585163755,0.8807425908919567,B,182,Incorrect
2,new_learn,56,635,A,57.19770020548262,64.93624286367756,2.859885010274131,1.0200161176612603,A,73,Correct
2,new_learn,56,636,B,46.74441997745403,27.564424128800226,2.3372209988727013,0.4329809617173602,A,1113,Incorrect
2,new_learn,56,637,B,15.508435329578226,64.36017263861876,0.7754217664789113,1.0109672277262776,B,381,Correct
2,new_learn,56,638,A,55.992185937574675,60.62867296325922,2.799609296878734,0.9523529678913665,B,539,Incorrect
2,new_learn,56,639,B,16.525728524771083,62.48070146225069,0.8262864262385541,0.9814445635247192,A,778,Incorrect
2,new_learn,56,640,B,21.649102095580506,49.4788965082169,1.0824551047790252,0.7772126888897194,A,1478,Incorrect
2,new_learn,56,641,A,70.38958907127031,62.06433501866027,3.519479453563515,0.9749042947227943,B,113,Incorrect
2,new_learn,56,642,B,33.87763015467727,56.27081068904522,1.6938815077338634,0.8838998273612323,B,7,Correct
2,new_learn,56,643,B,11.068672608099732,66.17837635573039,0.5534336304049866,1.0395275049283155,B,480,Correct
2,new_learn,56,644,B,25.2843736413747,58.48709383856365,1.264218682068735,0.9187131216652421,B,1227,Correct
2,new_learn,56,645,B,19.728906432915494,53.27938104584873,0.9864453216457747,0.8369105604072481,B,884,Correct
2,new_learn,56,646,A,34.14529013591517,88.63837967828641,1.7072645067957584,1.392328412117037,B,500,Incorrect
2,new_learn,56,647,A,66.92797931721859,45.48814750489628,3.3463989658609297,0.7145261501339552,A,661,Correct
2,new_learn,56,648,A,77.94037696741586,40.39627524739494,3.8970188483707933,0.6345432077480357,A,540,Correct
2,new_learn,56,649,B,35.5749331763505,46.51635197914665,1.778746658817525,0.7306771482474207,A,498,Incorrect
2,new_learn,56,650,B,20.83979883755533,59.2829860750677,1.0419899418777663,0.9312149676814934,B,580,Correct
2,new_learn,56,651,B,14.437912763923563,58.46560870857755,0.7218956381961782,0.9183756340326131,B,455,Correct
2,new_learn,56,652,B,62.063545572582555,16.426357274547087,3.1031772786291274,0.2580246166947919,A,2766,Incorrect
2,new_learn,56,653,B,25.719208511494294,46.58233162251809,1.2859604255747146,0.7317135540619317,B,611,Correct
2,new_learn,56,654,A,56.99750753441294,73.15994028403547,2.849875376720647,1.1491936546669688,B,314,Incorrect
2,new_learn,56,655,A,41.2015322106035,82.09599357471149,2.060076610530175,1.2895608515173422,A,252,Correct
2,new_learn,56,656,A,78.34611494261097,37.79949793183781,3.917305747130548,0.5937531250602213,B,918,Incorrect
2,new_learn,56,657,A,52.448335079475484,56.69187497629491,2.6224167539737744,0.8905138897187955,A,224,Correct
2,new_learn,56,658,B,10.546646697430496,66.05028758653819,0.5273323348715249,1.0375154912468074,A,311,Incorrect
2,new_learn,56,659,B,53.093182221145305,28.745031856908795,2.6546591110572653,0.4515259045443462,A,694,Incorrect
2,new_learn,56,660,B,31.69417055969618,37.31048855183388,1.584708527984809,0.586071783681437,A,167,Incorrect
2,new_learn,56,661,A,52.532631898766574,62.1260016832532,2.626631594938329,0.975872952425077,B,70,Incorrect
2,new_learn,56,662,A,76.67722915955042,49.80118621095145,3.833861457977521,0.782275203701912,B,47,Incorrect
2,new_learn,56,663,A,76.62376557186091,46.943317852428336,3.831188278593046,0.7373839125015973,B,112,Incorrect
2,new_learn,56,664,A,71.00557183661657,55.781994628619515,3.5502785918308284,0.8762215226392818,A,81,Correct
2,new_learn,56,665,B,37.81978061820812,52.6051955756614,1.890989030910406,0.8263204798057608,A,577,Incorrect
2,new_learn,56,666,A,61.16924656171515,60.24313648838624,3.0584623280857572,0.9462969751056071,B,158,Incorrect
2,new_learn,56,667,A,71.7148472957603,42.49095702396982,3.5857423647880147,0.667446392152516,100,74,Correct
2,new_learn,56,668,B,29.052738822614398,55.95052196990815,1.4526369411307198,0.8788687439258889,100,4,Incorrect
2,new_learn,56,669,B,63.16132216253892,21.725849579132344,3.158066108126946,0.34126884715399536,107,161,Correct
2,new_learn,56,670,B,57.236443311726404,17.136686528808625,2.8618221655863203,0.26918244252888174,100,99,Incorrect
2,new_learn,56,671,B,47.01870063437681,41.15758065064831,2.3509350317188407,0.6465017650580308,107,162,Correct
2,new_learn,56,672,B,37.24270405868964,29.638446107249294,1.862135202934482,0.4655596227717569,100,14,Correct
2,new_learn,56,673,B,36.08665420317432,39.26670442162067,1.8043327101587159,0.6167999507082268,107,200,Incorrect
2,new_learn,56,674,A,52.53404243667819,68.56544916162227,2.6267021218339095,1.077023556881185,B,665,Incorrect
2,new_learn,56,675,B,53.105969432069216,19.249551617753582,2.655298471603461,0.30237124973616086,A,400,Incorrect
2,new_learn,56,676,A,51.369180148535975,68.62714698681316,2.5684590074267986,1.0779927040529957,B,283,Incorrect
2,new_learn,56,677,B,38.912651797930685,52.00190423179089,1.9456325898965343,0.8168440015363712,A,269,Incorrect
2,new_learn,56,678,A,80.46089854900296,48.487158516417445,4.023044927450148,0.7616345049431043,B,454,Incorrect
2,new_learn,56,679,A,46.067789796818246,66.00481642739997,2.3033894898409124,1.0368012319493132,A,117,Correct
2,new_learn,56,680,B,22.441414176542068,53.04012023844383,1.1220707088271034,0.8331522604330723,B,1341,Correct
2,new_learn,56,681,A,61.06080285480699,67.30649038623204,3.0530401427403495,1.0572478786814932,A,947,Correct
2,new_learn,56,682,A,44.876523343689534,76.40658858585894,2.243826167184477,1.200191886935961,A,923,Correct
2,new_learn,56,683,B,33.78166405162857,54.335442508431186,1.6890832025814284,0.8534991350701898,B,597,Correct
2,new_learn,56,684,A,70.9440896690412,42.056490612557994,3.5472044834520604,0.6606218097209015,A,698,Correct
2,new_learn,56,685,A,85.27350133442319,41.785518191431535,4.263675066721159,0.6563653848832198,A,576,Correct
2,new_learn,56,686,A,82.7197847738949,34.58240830471719,4.135989238694745,0.543219199367711,A,561,Correct
2,new_learn,56,687,A,74.51396011401,51.42879611343588,3.7256980057005,0.8078416402646874,A,572,Correct
2,new_learn,56,688,A,67.12826008287969,48.56898201575113,3.3564130041439846,0.7629197854650928,A,527,Correct
2,new_learn,56,689,B,58.47063697386575,23.760083260772618,2.9235318486932873,0.37322251510362536,A,535,Incorrect
2,new_learn,56,690,B,31.40816170783434,51.77109207455277,1.5704080853917168,0.8132184126486788,B,791,Correct
2,new_learn,56,691,A,47.74832826562402,64.15184905931096,2.387416413281201,1.0076948885946628,A,764,Correct
2,new_learn,56,692,A,51.57701672940299,74.96610325983144,2.5788508364701492,1.1775647963467015,A,700,Correct
2,new_learn,56,693,A,72.08916804725968,45.979439427153096,3.604458402362984,0.7222433456026053,A,739,Correct
2,new_learn,56,694,A,86.56720374333266,32.640471481960574,4.328360187166632,0.5127153270871725,A,788,Correct
2,new_learn,56,695,A,33.782188919872965,77.44521878731796,1.6891094459936482,1.2165066519894616,B,480,Incorrect
2,new_learn,56,696,B,61.022439129533794,23.504599240786888,3.0511219564766896,0.36920938150214155,A,561,Incorrect
2,new_learn,56,697,B,34.84103322652529,38.78028633045407,1.7420516613262647,0.6091593131993159,B,1194,Correct
2,new_learn,56,698,A,42.642156774822936,82.64070254144441,2.1321078387411467,1.2981171199585055,B,562,Incorrect
2,new_learn,56,699,B,18.732751737478548,64.2947228749534,0.9366375868739274,1.009939145242726,B,569,Correct
2,new_learn,56,700,B,31.64644162482235,39.30373950198674,1.5823220812411176,0.6173816963902424,A,285,Incorrect
2,new_learn,56,701,A,76.91729154282118,54.98591010890626,3.845864577141059,0.8637166562454432,100,220,Incorrect
2,new_learn,56,702,A,49.072987081331384,66.22181474531376,2.453649354066569,1.04020983355631,A,139,Correct
2,new_learn,56,703,A,43.3117646675975,69.72236335248624,2.165588233379875,1.0951963224954449,A,519,Correct
2,new_learn,56,704,B,36.30152781294482,39.05757232272991,1.815076390647241,0.6135149113807017,B,898,Correct
2,new_learn,56,705,A,55.6789165546037,59.629013710933435,2.783945827730185,0.9366503570753676,B,925,Incorrect
2,new_learn,56,706,B,40.252212726659984,50.98728595307837,2.012610636332999,0.8009064148833652,A,515,Incorrect
2,new_learn,56,707,B,39.9304767406482,38.75977642630143,1.99652383703241,0.6088371443782571,B,763,Correct
2,new_learn,56,708,B,44.114392432204745,25.646864704338398,2.2057196216102373,0.40286000871380445,B,692,Correct
2,new_learn,56,709,B,49.55209470242091,21.380797721720285,2.4776047351210453,0.3358487852522291,B,1126,Correct
2,new_learn,56,710,B,44.72052691763606,41.77234129600117,2.2360263458818026,0.6561584026938141,B,715,Correct
2,new_learn,56,711,A,77.92294639196064,33.60119386079033,3.8961473195980316,0.5278063189245269,B,2282,Incorrect
2,new_learn,56,712,B,38.90814219146562,51.96177509190148,1.9454071095732812,0.816213654481014,A,594,Incorrect
2,new_learn,56,713,A,60.09371147735223,52.74430721468905,3.004685573867612,0.8285056403217511,A,874,Correct
2,new_learn,56,714,A,56.17349041605047,75.59420016159339,2.8086745208025237,1.1874309194082908,100,700,Correct
2,new_learn,56,715,A,82.91959886667993,31.439787991763296,4.145979943333997,0.49385503492672084,A,874,Correct
2,new_learn,56,716,B,18.071305986044102,54.589318643693275,0.9035652993022052,0.8574870120774956,B,586,Correct
2,new_learn,56,717,B,52.08549291770741,37.13848586222138,2.6042746458853707,0.5833699717510155,A,557,Incorrect
2,new_learn,56,718,B,21.992865222053073,54.27419866782724,1.0996432611026536,0.852537119071595,B,577,Correct
2,new_learn,56,719,A,51.14562774457573,78.5321733019469,2.5572813872287865,1.2335804935791845,B,191,Incorrect
2,new_learn,56,720,B,31.23787641104707,49.312989670838824,1.5618938205523534,0.7746066303822831,A,264,Incorrect
2,new_learn,56,721,B,26.071973825444104,44.76374137447183,1.3035986912722053,0.7031472052461709,B,716,Correct
2,new_learn,56,722,A,38.58170597983995,73.37372411632836,1.9290852989919978,1.1525517632519071,B,295,Incorrect
2,new_learn,56,723,B,25.71123755813699,63.99057202322433,1.2855618779068496,1.0051615548358506,B,781,Correct
2,new_learn,56,724,A,60.77716805360151,51.51547515938883,3.0388584026800753,0.8092031915346171,100,614,Correct
2,new_learn,56,725,B,44.834951153849005,26.95461917779862,2.24174755769245,0.42340216794641344,B,631,Correct
2,new_learn,56,726,B,35.75812223313502,38.47263831650827,1.787906111656751,0.6043267894967977,A,1148,Incorrect
2,new_learn,56,727,A,82.03023867783507,33.254680025670126,4.101511933891754,0.5223632923306225,A,1263,Correct
2,new_learn,56,728,A,49.49919729011851,75.11373221929428,2.474959864505925,1.1798837466192293,B,475,Incorrect
2,new_learn,56,729,B,11.412601607598575,68.25323919530717,0.5706300803799287,1.0721193741984198,A,150,Incorrect
2,new_learn,56,730,B,14.121924840993927,66.73460791945298,0.7060962420496963,1.0482647698997434,B,568,Correct
2,new_learn,56,731,A,61.19397835170063,56.6052603858325,3.0596989175850315,0.8891533509133437,B,273,Incorrect
2,new_learn,56,732,B,54.161843151086366,21.442362519183405,2.708092157554318,0.3368158428293786,B,1007,Correct
2,new_learn,56,733,B,57.78288469962299,33.44189339379929,2.8891442349811496,0.5253040330404644,B,614,Correct
2,new_learn,56,734,B,19.24995715581516,60.34671604401925,0.962497857790758,0.947923998960801,B,937,Correct
2,new_learn,56,735,B,11.020423167070085,63.25100460681744,0.5510211583535043,0.9935444570247592,B,686,Correct
2,new_learn,56,736,A,52.33890298177684,55.1877261795362,2.6169451490888425,0.8668867756697801,A,576,Correct
2,new_learn,56,737,A,43.37364456816635,71.35546143268263,2.1686822284083176,1.1208489671521276,B,556,Incorrect
2,new_learn,56,738,A,37.27426277869877,81.63664149066544,1.8637131389349384,1.282345365854091,A,303,Correct
2,new_learn,56,739,B,26.247284458156976,63.31696155653957,1.3123642229078487,0.9945805063682602,B,573,Correct
2,new_learn,56,740,B,38.38340930718077,29.63785853593265,1.9191704653590387,0.4655503932230977,B,607,Correct
2,new_learn,56,741,A,56.62892581603895,58.581610865524034,2.8314462908019475,0.9201977916529316,B,827,Incorrect
2,new_learn,56,742,A,76.9981158261897,47.844913811314186,3.849905791309485,0.7515461487063073,A,653,Correct
2,new_learn,56,743,B,49.24204976476763,37.14574029071494,2.462102488238381,0.5834839240473222,B,576,Correct
2,new_learn,56,744,A,57.89877694961679,58.564026187517335,2.894938847480839,0.9199215721767237,B,1117,Incorrect
2,new_learn,56,745,A,56.476197508081405,50.933324553130994,2.8238098754040704,0.8000587911951047,A,536,Correct
2,new_learn,56,746,A,79.85782460094953,44.82597740655605,3.9928912300474764,0.7041248065520926,A,756,Correct
2,new_learn,56,747,B,59.03246819998431,14.782537802699977,2.951623409999215,0.23220356081187823,B,720,Correct
2,new_learn,56,748,B,39.164631962070544,48.649984528739935,1.958231598103527,0.7641921699637324,B,692,Correct
2,new_learn,56,749,B,50.564643182326606,33.160946816309064,2.5282321591163304,0.520890934520992,B,687,Correct
2,new_learn,56,750,B,18.564463771171496,65.72642012448988,0.9282231885585748,1.0324281930492687,B,995,Correct
2,new_learn,56,751,A,70.98527497898061,39.47601927942188,3.5492637489490306,0.6200878608060041,B,629,Incorrect
2,new_learn,56,752,A,75.49092648839712,48.672525179687405,3.7745463244198563,0.7645462376808508,A,343,Correct
2,new_learn,56,753,A,59.415665267610315,67.63010742582006,2.9707832633805156,1.062331243252224,A,606,Correct
2,new_learn,56,754,B,34.14392426657259,37.59292032290033,1.7071962133286294,0.5905082115670506,B,495,Correct
2,new_learn,56,755,A,54.97251576960277,72.64926519599616,2.7486257884801386,1.141171989142191,A,492,Correct
2,new_learn,56,756,B,67.0999002876375,13.681346337137143,3.354995014381875,0.21490608571983835,B,794,Correct
2,new_learn,56,757,B,39.2926846366846,49.306499319856606,1.96463423183423,0.7745046801874582,A,466,Incorrect
2,new_learn,56,758,A,70.19728048409155,52.052912460668004,3.5098640242045773,0.817645236921936,B,299,Incorrect
2,new_learn,56,759,A,84.57040818981501,44.33020890782994,4.22852040949075,0.6963372931846966,A,448,Correct
2,new_learn,56,760,B,46.27978418828947,38.40579629107578,2.313989209414473,0.6032768374165489,B,744,Correct
2,new_learn,56,761,A,58.429712009850036,64.46519376976289,2.921485600492502,1.012616895796648,B,546,Incorrect
2,new_learn,56,762,B,54.07252998761475,31.215658851386948,2.7036264993807375,0.49033442262241217,A,543,Incorrect
2,new_learn,56,763,B,58.94309921852752,31.28469696430014,2.9471549609263765,0.4914188707641411,B,354,Correct
2,new_learn,56,764,A,30.682448244390965,84.02961855106682,1.5341224122195483,1.3199341616199205,B,1544,Incorrect
2,new_learn,56,765,A,42.90785338219678,73.29910328870255,2.145392669109839,1.151379622032537,A,289,Correct
2,new_learn,56,766,B,40.54000166703937,46.33489334775434,2.0270000833519686,0.727826802730858,100,449,Incorrect
2,new_learn,56,767,A,56.706402267278456,54.95007420291021,2.8353201133639225,0.8631537471503835,B,214,Incorrect
2,new_learn,56,768,B,39.94008301040078,36.440399666207796,1.9970041505200387,0.5724044594261718,B,401,Correct
2,new_learn,56,769,B,39.897592874364335,37.535098230810476,1.9948796437182168,0.5895999442684272,A,245,Incorrect
2,new_learn,56,770,A,50.25166546383802,62.069922021109484,2.5125832731919013,0.9749920551520445,B,150,Incorrect
2,new_learn,56,771,B,30.600600438919738,60.844216996579945,1.5300300219459868,0.9557387256493939,A,233,Incorrect
2,new_learn,56,772,B,60.341982340413814,21.882770187236147,3.0170991170206904,0.3437337503020741,B,187,Correct
2,new_learn,56,773,A,86.57466321828574,40.06749036782284,4.328733160914287,0.6293786669366602,B,655,Incorrect
2,new_learn,56,774,A,74.18511958719156,55.26192296585876,3.7092559793595785,0.8680522560639348,A,469,Correct
2,new_learn,56,775,B,33.98211801651556,42.70082816334711,1.6991059008257778,0.6707430403008571,B,578,Correct
2,new_learn,56,776,B,61.618021866004696,20.557107986673685,3.080901093300235,0.3229102971499306,A,592,Incorrect
2,new_learn,56,777,B,62.27768095399631,20.84874965911156,3.1138840476998153,0.3274913938279879,B,509,Correct
2,new_learn,56,778,B,48.10159977286115,38.94663828586105,2.405079988643058,0.6117723636044002,B,544,Correct
2,new_learn,56,779,B,42.482203988841796,39.418183062190835,2.12411019944209,0.6191793716301818,A,631,Incorrect
2,new_learn,56,780,A,41.38334737092554,81.26064052696262,2.0691673685462773,1.276439156527534,B,364,Incorrect
2,new_learn,56,781,A,77.01313598723476,37.408273154394664,3.850656799361738,0.5876077806266328,A,295,Correct
2,new_learn,56,782,A,38.49559112911045,72.91121566050691,1.9247795564555223,1.145286697416748,B,612,Incorrect
2,new_learn,56,783,A,38.07179142580237,71.23318100251342,1.9035895712901183,1.1189281906466408,A,332,Correct
2,new_learn,56,784,B,56.27923029489539,31.556218686324527,2.8139615147447694,0.4956839240001505,B,539,Correct
2,new_learn,56,785,B,14.715059715214053,59.231166660310876,0.7357529857607027,0.9304009902179267,B,764,Correct
2,new_learn,56,786,B,25.241970278643358,42.22597172964759,1.2620985139321679,0.6632840128827557,B,480,Correct
2,new_learn,56,787,A,77.29018845012752,47.01898979331057,3.8645094225063756,0.7385725645693897,A,1079,Correct
2,new_learn,56,788,A,70.72899483462187,42.30757744103394,3.5364497417310936,0.6645658723996675,B,681,Incorrect
2,new_learn,56,789,B,59.50786079662549,18.7918653906042,2.9753930398312747,0.2951819312918522,A,617,Incorrect
2,new_learn,56,790,A,52.51437805086773,67.5051634415999,2.6257189025433867,1.0603686277375426,A,695,Correct
2,new_learn,56,791,A,59.12241742328174,67.20961993772791,2.956120871164087,1.0557262412346404,A,1720,Correct
2,new_learn,56,792,A,64.2221415322272,46.46347513782153,3.2111070766113596,0.7298465607661606,B,988,Incorrect
2,new_learn,56,793,A,61.63007625148322,61.10209789638361,3.081503812574161,0.9597895093510155,A,309,Correct
2,new_learn,56,794,A,73.81614972552389,55.5186274662048,3.690807486276194,0.8720845609260875,A,673,Correct
2,new_learn,56,795,A,53.2773219544733,66.44549170300765,2.6638660977236652,1.043723342991652,A,396,Correct
2,new_learn,56,796,B,40.89757927879042,50.15401539335884,2.044878963939521,0.7878174315390277,B,711,Correct
2,new_learn,56,797,B,24.43930639304665,59.283510088530974,1.2219653196523326,0.9312231988657265,B,903,Correct
2,new_learn,56,798,A,39.52192133118353,84.52439261576168,1.9760960665591765,1.327706054454081,B,2148,Incorrect
2,new_learn,56,799,B,19.341505670474277,62.418673024141185,0.9670752835237139,0.9804702230973267,B,821,Correct
2,new_learn,56,800,A,76.0981369508759,50.32635413795142,3.8049068475437946,0.7905245222087323,A,2288,Correct
2,new_learn,56,801,A,74.96204065242367,44.13913257297213,3.748102032621183,0.6933358731353759,A,1230,Correct
2,new_learn,56,802,A,49.369878666290774,64.48717522569294,2.468493933314539,1.0129621796989732,A,899,Correct
2,new_learn,56,803,A,55.01266852211738,71.6087594793429,2.7506334261058694,1.1248277635649104,A,668,Correct
2,new_learn,56,804,A,72.72357174133377,38.9293568428278,3.6361785870666887,0.6115009073320169,A,1418,Correct
2,new_learn,56,805,A,84.40043691438362,36.97521310977933,4.220021845719181,0.5808052893529988,A,689,Correct
2,new_learn,56,806,A,35.33685110031955,82.56983576360382,1.7668425550159776,1.2970039472152677,B,1023,Incorrect
2,new_learn,56,807,B,30.24600682092622,52.75430242897345,1.512300341046311,0.8286626447805858,B,448,Correct
2,new_learn,56,808,B,23.98769227563991,57.249528716471445,1.1993846137819955,0.899273494185723,B,609,Correct
2,new_learn,56,809,A,39.05313860415653,81.58296325618672,1.9526569302078263,1.2815021901186112,A,596,Correct
2,new_learn,56,810,B,58.84850651721873,28.050253050403953,2.9424253258609365,0.4406123445724187,B,370,Correct
2,new_learn,56,811,B,29.59011194505746,46.360914987804115,1.479505597252873,0.7282355496969316,A,492,Incorrect
2,new_learn,56,812,A,62.067398486062686,48.332419979436494,3.1033699243031343,0.7592038776880712,B,270,Incorrect
2,new_learn,56,813,A,68.939545012489,54.86213388165871,3.4469772506244505,0.8617723838143934,A,858,Correct
2,new_learn,56,814,B,61.67245538945028,20.193184018106564,3.0836227694725142,0.317193792819352,B,635,Correct
2,new_learn,56,815,A,74.7980877758157,43.955534905989396,3.739904388790785,0.6904519277263301,B,557,Incorrect
2,new_learn,56,816,A,56.89214102733922,60.48543566123089,2.8446070513669612,0.9501030016125053,100,472,Correct
2,new_learn,56,817,B,34.329446547492815,42.50177209982814,1.7164723273746407,0.6676162749668385,B,1023,Correct
2,new_learn,56,818,B,31.401899530931075,60.17216427310271,1.5700949765465537,0.9451821461548886,A,767,Incorrect
2,new_learn,56,819,B,49.355274904874946,28.630608321140613,2.4677637452437473,0.4497285438475107,B,733,Correct
2,new_learn,56,820,A,49.48767475476964,79.85982536717515,2.4743837377384823,1.2544352034524062,B,509,Incorrect
2,new_learn,56,821,A,54.98262505084797,54.16557967205959,2.7491312525423983,0.8508309358758753,B,581,Incorrect
2,new_learn,56,822,A,56.668628673843315,66.37531226661483,2.8334314336921658,1.042620966982628,A,206,Correct
2,new_learn,56,823,A,87.0815707385711,34.43161577277945,4.354078536928555,0.5408505558149519,A,902,Correct
2,new_learn,56,824,B,36.37881605215957,50.16631296747682,1.8189408026079787,0.7880106013815579,B,635,Correct
2,new_learn,56,825,A,83.45398860957037,30.808145742421132,4.172699430478519,0.48393322167556946,A,458,Correct
2,new_learn,56,826,A,62.87039278077284,68.2750846143529,3.143519639038642,1.072462521238363,A,482,Correct
2,new_learn,56,827,A,55.1022945299234,65.84741868633859,2.7551147264961697,1.0343288340142627,A,546,Correct
2,new_learn,56,828,A,52.50606715143509,66.0178357499154,2.6253033575717546,1.0370057389891594,A,450,Correct
2,new_learn,56,829,B,56.8992659079399,32.43406078524467,2.844963295396995,0.5094730354450472,A,510,Incorrect
2,new_learn,56,830,A,58.1784680204194,54.50667114858788,2.9089234010209704,0.856188788260192,A,730,Correct
2,new_learn,56,831,A,64.03265808536509,64.9111758101796,3.201632904268254,1.0196223653056786,A,575,Correct
2,new_learn,56,832,B,20.43127421909827,53.7800181377714,1.0215637109549136,0.8447745494577423,B,740,Correct
2,new_learn,56,833,B,20.800439984718643,61.07371317329169,1.0400219992359323,0.9593436431633167,B,531,Correct
2,new_learn,56,834,B,49.35916566284861,37.31859689398571,2.4679582831424307,0.586199149222122,A,795,Incorrect
2,new_learn,56,835,B,54.16135171380262,26.47392767856057,2.708067585690131,0.41585148353316687,B,694,Correct
2,new_learn,56,836,A,35.33711716066048,86.20833470552203,1.7668558580330243,1.3541573549453902,107,607,Incorrect
2,new_learn,56,837,A,61.39515442639731,55.928001793287734,3.0697577213198657,0.8785149978187475,B,688,Incorrect
2,new_learn,56,838,B,27.992737191938446,42.07748916272877,1.3996368595969222,0.6609516541756641,A,485,Incorrect
2,new_learn,56,839,B,50.38051995804628,26.705648110120677,2.5190259979023137,0.41949133956054635,A,366,Incorrect
2,new_learn,56,840,A,69.4266353635171,55.16983404499277,3.4713317681758546,0.8666057266775867,A,694,Correct
2,new_learn,56,841,B,63.30230903080438,11.720428068708046,3.165115451540219,0.184104053587904,A,1261,Incorrect
2,new_learn,56,842,A,66.60095754448416,52.387382364627335,3.3300478772242084,0.8228990778875637,B,360,Incorrect
2,new_learn,56,843,B,18.672954682508795,59.335636419791534,0.9336477341254397,0.9320419973624602,A,474,Incorrect
2,new_learn,56,844,B,53.376380304422206,19.943544849489143,2.66881901522111,0.31327246992846824,A,751,Incorrect
2,new_learn,56,845,B,12.40778653795492,64.13904972638703,0.620389326897746,1.0074938371432396,B,219,Correct
2,new_learn,56,846,A,61.67811429974357,66.46243666455815,3.0839057149871785,1.0439895138252642,B,356,Incorrect
2,new_learn,56,847,B,61.68514127363596,17.979557704675003,3.084257063681798,0.28242223199900374,A,383,Incorrect
2,new_learn,56,848,B,51.279602232968415,31.79616464374199,2.5639801116484207,0.4994529862855568,A,413,Incorrect
2,new_learn,56,849,A,53.931466217697526,53.5180790944016,2.6965733108848764,0.8406600205860479,B,648,Incorrect
2,new_learn,56,850,B,11.395486130504409,67.83424814770237,0.5697743065252204,1.065537878213044,A,304,Incorrect
2,new_learn,56,851,B,30.69184482599046,53.10067703353325,1.534592241299523,0.8341034843459615,B,1096,Correct
2,new_learn,56,852,B,61.1576411924228,23.345417116642963,3.0578820596211402,0.3667089545431747,A,598,Incorrect
2,new_learn,56,853,A,65.11497715172126,45.217181868237375,3.2557488575860636,0.7102698318664408,B,949,Incorrect
2,new_learn,56,854,B,43.24268973093372,36.80756769002493,2.1621344865466856,0.5781719212574568,B,729,Correct
2,new_learn,56,855,A,38.672732843876304,74.33066011145414,1.9336366421938151,1.167583278713121,A,739,Correct
2,new_learn,56,856,B,19.81931350140744,63.82367438734421,0.9909656750703719,1.002539932901938,B,714,Correct
2,new_learn,56,857,B,23.511476067340144,59.34838831660464,1.1755738033670071,0.9322423036891974,B,597,Correct
2,new_learn,56,858,B,69.2457874662497,12.54368084852429,3.4622893733124847,0.19703567801349445,A,715,Incorrect
2,new_learn,56,859,B,38.56023582838287,38.2482834648146,1.9280117914191437,0.6008026317274076,A,800,Incorrect
2,new_learn,56,860,A,85.96042205016377,31.37221687588557,4.298021102508188,0.49279363032053924,A,675,Correct
2,new_learn,56,861,B,37.714244861912384,48.358067845546636,1.8857122430956192,0.7596067534268304,B,903,Correct
2,new_learn,56,862,A,74.25441233626967,39.647078238640546,3.712720616813483,0.6227748486540645,A,768,Correct
2,new_learn,56,863,A,61.810097416338955,62.273150293571625,3.0905048708169476,0.9781843573908885,B,648,Incorrect
2,new_learn,56,864,A,76.00955573406635,37.40467584452608,3.8004777867033175,0.5875512742153536,A,596,Correct
2,new_learn,56,865,A,38.38166415674186,74.34855039344313,1.9190832078370932,1.1678642986054575,B,624,Incorrect
2,new_learn,56,866,A,43.63292163531314,65.57088170442762,2.181646081765657,1.029985001260176,A,455,Correct
2,new_learn,56,867,B,22.434120631221287,56.14701504043212,1.1217060315610643,0.881955249860086,A,906,Incorrect
2,new_learn,56,868,A,52.54149082650789,71.65647081548234,2.6270745413253946,1.1255772114804536,B,254,Incorrect
2,new_learn,56,869,A,62.78457475496092,54.040797827098345,3.139228737748046,0.848870867238717,A,314,Correct
2,new_learn,56,870,B,24.480003571683064,59.10302962038723,1.224000178584153,0.9283882183015423,B,593,Correct
2,new_learn,56,871,A,60.38699240082895,68.26088088361254,3.0193496200414476,1.0722394095576258,A,526,Correct
2,new_learn,56,872,B,41.906343465072126,48.2096463582609,2.0953171732536062,0.7572753541563718,B,745,Correct
2,new_learn,56,873,A,60.54653364992984,58.10029780262974,3.027326682496492,0.9126373437406039,A,400,Correct
2,new_learn,56,874,B,48.201873215268606,34.24411854354025,2.4100936607634305,0.5379053562252203,B,766,Correct
2,new_learn,56,875,A,59.009514166654455,71.47505773596262,2.950475708332723,1.1227275814910322,A,1296,Correct
2,new_learn,56,876,B,28.082922805173915,43.14701738430462,1.4041461402586959,0.6777517641942123,B,711,Correct
2,new_learn,56,877,A,45.11860911992869,78.09828671267022,2.2559304559964346,1.2267650189723704,A,540,Correct
2,new_learn,56,878,A,73.38149890378016,50.352502321840525,3.6690749451890077,0.790935256920786,A,847,Correct
2,new_learn,56,879,B,26.821396631700523,47.19030374859736,1.341069831585026,0.7412635578863217,B,653,Correct
2,new_learn,56,880,A,41.14253546462585,80.79965770840212,2.0571267732312926,1.26919805534643,A,661,Correct
2,new_learn,56,881,B,58.037434615037455,21.343270548291457,2.9018717307518727,0.33525930979045915,A,1144,Incorrect
2,new_learn,56,882,A,72.2197978845989,50.52983134452353,3.610989894229945,0.7937207346954319,A,640,Correct
2,new_learn,56,883,A,43.72054126443916,84.86358047126143,2.186027063221958,1.3330340048292055,A,990,Correct
2,new_learn,56,884,A,64.43350720896841,51.921467501163264,3.2216753604484207,0.8155805043262785,B,1280,Incorrect
2,new_learn,56,885,A,43.86172228185315,63.835886487159435,2.193086114092657,1.00273176011726,A,430,Correct
2,new_learn,56,886,B,61.25531747460907,27.010258920237618,3.0627658737304535,0.4242761549768834,A,676,Incorrect
2,new_learn,56,887,A,45.70811094479582,84.13078741123418,2.2854055472397907,1.3215233183592898,B,701,Incorrect
2,new_learn,56,888,B,52.40618306503296,24.4806465318089,2.620309153251648,0.38454109649729645,A,525,Incorrect
2,new_learn,56,889,B,53.79570028596487,32.76614933369581,2.6897850142982436,0.5146894701658242,A,300,Incorrect
2,new_learn,56,890,A,58.598517491984566,51.5149511589033,2.9299258745992285,0.809194960554238,B,469,Incorrect
2,new_learn,56,891,A,34.82775166598425,78.02416296780837,1.7413875832992125,1.2256006859107977,A,223,Correct
2,new_learn,56,892,B,25.17344160650108,44.61042980300356,1.258672080325054,0.7007389927129958,B,150,Correct
2,new_learn,56,893,B,51.86084520576297,23.90267979896271,2.593042260288149,0.375462416287652,A,112,Incorrect
2,new_learn,56,894,A,43.34860409035423,84.62597084899069,2.1674302045177116,1.3293016416104655,B,150,Incorrect
2,new_learn,56,895,B,44.1041953441365,39.0869780306708,2.2052097672068247,0.6139768151609051,A,110,Incorrect
2,new_learn,56,896,B,20.13444603753411,52.07633004715257,1.0067223018767055,0.8180130795102595,A,127,Incorrect
2,new_learn,56,897,B,37.79992096445381,53.94639162323741,1.8899960482226905,0.8473879380562029,A,549,Incorrect
2,new_learn,56,898,B,38.191084491803004,45.12022041495869,1.90955422459015,0.708746764919932,B,265,Correct
