experiment,condition,subject,trial,cat,x,y,xt,yt,resp,rt,fb
2,relearn,59,0,A,17.687761266869508,43.83039573778379,0.8843880633434753,0.6884862462687747,A,3299,Correct
2,relearn,59,1,A,58.51293800577234,67.27679791419473,2.9256469002886174,1.0567814704213963,B,2261,Incorrect
2,relearn,59,2,A,18.480616938248613,44.1214842050059,0.9240308469124306,0.6930586532196231,A,1550,Correct
2,relearn,59,3,A,37.15973398728959,57.22443216291897,1.8579866993644796,0.8988792784443688,A,1003,Correct
2,relearn,59,4,B,38.76013996724568,17.36480108163052,1.9380069983622839,0.2727656575454927,B,1836,Correct
2,relearn,59,5,B,42.701069437431514,21.91413924231216,2.1350534718715757,0.34422649426695834,B,995,Correct
2,relearn,59,6,B,59.467106546137074,36.92084801472298,2.973355327306854,0.579951324436795,A,1033,Incorrect
2,relearn,59,7,B,34.63242198104962,12.000252062271887,1.731621099052481,0.18849951860029562,A,2217,Incorrect
2,relearn,59,8,B,79.13671404568582,55.977338799872584,3.956835702284291,0.879289981705933,A,1420,Incorrect
2,relearn,59,9,A,57.0852782040525,81.3098606972133,2.854263910202625,1.2772123051538737,B,1466,Incorrect
2,relearn,59,10,B,52.71246002890855,23.58478519359484,2.6356230014454276,0.3704689395034544,B,976,Correct
2,relearn,59,11,B,34.919069637566075,21.219807032785965,1.7459534818783038,0.33331994942396703,B,3285,Correct
2,relearn,59,12,A,54.49261622978314,67.70299640869383,2.724630811489157,1.0634761807178434,A,954,Correct
2,relearn,59,13,A,15.94249216848825,45.15449250639054,0.7971246084244126,0.7092851096732595,B,730,Incorrect
2,relearn,59,14,B,70.98177249150396,49.983911766525154,3.5490886245751985,0.7851454500169792,A,2145,Incorrect
2,relearn,59,15,A,66.0910472651767,88.88196358703388,3.304552363258835,1.3961546192083054,A,1221,Correct
2,relearn,59,16,A,11.063367849555096,31.27395281965389,0.5531683924777547,0.4912501021346923,B,1028,Incorrect
2,relearn,59,17,B,73.93903005540997,60.28686354790558,3.6969515027704984,0.9469838381503523,B,11260,Correct
2,relearn,59,18,B,79.23911076663849,51.70710593099045,3.9619555383319245,0.8122133206559441,B,1458,Correct
2,relearn,59,19,A,37.585942010668006,66.11942530619997,1.8792971005334005,1.0386015040076844,B,2112,Incorrect
2,relearn,59,20,A,48.92600265251164,66.34542880603506,2.446300132625582,1.042151558681522,B,1850,Incorrect
2,relearn,59,21,A,54.06100957999219,61.91589474545656,2.703050478999609,0.9725726003638261,B,831,Incorrect
2,relearn,59,22,A,60.57101649797361,85.90601704220707,3.0285508248986805,1.3494085601947865,A,1245,Correct
2,relearn,59,23,B,73.94953317530853,44.71417740932656,3.6974766587654266,0.7023686563022551,B,1561,Correct
2,relearn,59,24,A,57.670120866320985,76.43657767272043,2.883506043316049,1.2006629544108205,A,1150,Correct
2,relearn,59,25,A,62.19482263983383,80.86820838082227,3.1097411319916914,1.270274846790799,A,669,Correct
2,relearn,59,26,A,22.21469479220449,38.99215405967255,1.1107347396102245,0.6124873237075436,B,1373,Incorrect
2,relearn,59,27,A,25.229939474395703,43.55577090883014,1.2614969737197852,0.6841724495431041,A,620,Correct
2,relearn,59,28,B,67.16431937713844,48.36784166901809,3.358215968856922,0.7597602802869077,B,3398,Correct
2,relearn,59,29,B,66.40094734763277,40.01754348395146,3.3200473673816386,0.62859410311946,B,734,Correct
2,relearn,59,30,A,31.388596216755545,55.51062283346867,1.5694298108377773,0.871958824449095,B,3114,Incorrect
2,relearn,59,31,A,33.663213049714614,62.62151831519377,1.6831606524857308,0.9836565094782571,A,815,Correct
2,relearn,59,32,B,57.75064022035641,44.08428610187785,2.8875320110178206,0.6924743467820503,A,942,Incorrect
2,relearn,59,33,B,53.07983817803482,41.69132101416368,2.653991908901741,0.6548857390827519,B,3781,Correct
2,relearn,59,34,B,72.16043623264461,49.06245217332186,3.6080218116322307,0.7706711965740426,B,1393,Correct
2,relearn,59,35,A,57.83493419727223,78.99359658480779,2.8917467098636114,1.2408285135573396,A,1691,Correct
2,relearn,59,36,A,21.53569370040498,38.97798326478423,1.076784685020249,0.6122647293819602,B,1132,Incorrect
2,relearn,59,37,B,77.65801879000216,48.92730814456511,3.882900939500108,0.768548359134449,B,5794,Correct
2,relearn,59,38,A,44.98255203397283,72.83937677004022,2.2491276016986417,1.144158254764087,A,1738,Correct
2,relearn,59,39,A,39.4437597153795,50.85244009175497,1.9721879857689748,0.7987882610468625,A,8429,Correct
2,relearn,59,40,B,53.07320458419778,26.77889734281838,2.653660229209889,0.42064193581716725,B,1594,Correct
2,relearn,59,41,A,29.445985640577735,49.830088227596335,1.472299282028887,0.7827291955177395,A,589,Correct
2,relearn,59,42,A,41.77163410976878,66.69791645346605,2.0885817054884392,1.0476884216997737,A,1298,Correct
2,relearn,59,43,B,63.494405396899694,42.60883225255829,3.174720269844985,0.6692979719133847,B,944,Correct
2,relearn,59,44,A,38.34026343047594,70.94280003976203,1.9170131715237972,1.1143668971500305,A,1039,Correct
2,relearn,59,45,A,50.31401226173467,64.4340068149709,2.515700613086733,1.0121270122563362,A,3016,Correct
2,relearn,59,46,B,35.97751016202343,22.522214009310545,1.7988755081011716,0.35377811037113566,B,821,Correct
2,relearn,59,47,A,54.60408154867248,71.29463551322937,2.730204077433624,1.1198935158436167,A,785,Correct
2,relearn,59,48,A,44.90641892832688,57.5458112773828,2.245320946416344,0.9039274897694524,A,1113,Correct
2,relearn,59,49,B,70.01485687735793,38.1140169223029,3.5007428438678967,0.5986935778095193,A,1448,Incorrect
2,relearn,59,50,B,63.651385672815586,37.29097247121595,3.1825692836407793,0.5857652258039562,B,1584,Correct
2,relearn,59,51,B,57.91030928361519,43.47457691801061,2.8955154641807597,0.6828970573177326,B,645,Correct
2,relearn,59,52,B,41.65194669060354,27.725500955548007,2.082597334530177,0.4355111505952321,A,4521,Incorrect
2,relearn,59,53,A,16.58958524067614,30.91391594553153,0.8294792620338071,0.48559465614087116,B,1042,Incorrect
2,relearn,59,54,B,35.877337168797155,11.582007820452851,1.7938668584398578,0.18192975341277107,A,1063,Incorrect
2,relearn,59,55,A,43.897065520932735,55.81115295375706,2.194853276046637,0.8766795405394973,A,1652,Correct
2,relearn,59,56,A,63.85167233146092,78.9819994187044,3.192583616573046,1.2406463456981753,A,854,Correct
2,relearn,59,57,B,50.69968726317105,21.62782262093771,2.5349843631585527,0.33972904329540526,B,1038,Correct
2,relearn,59,58,B,38.676013608311045,28.752714224216874,1.9338006804155523,0.45164657888783244,B,2365,Correct
2,relearn,59,59,A,27.439806378506603,55.47027060863186,1.3719903189253302,0.8713249731835783,B,1331,Incorrect
2,relearn,59,60,B,66.79999436318984,43.59345153941555,3.339999718159492,0.6847643355042526,A,925,Incorrect
2,relearn,59,61,B,84.24332079094994,66.28852345858688,4.212166039547497,1.0412576915740561,100,1181,Incorrect
2,relearn,59,62,B,59.61564623689461,38.64754260783758,2.9807823118447305,0.6070741796804052,B,848,Correct
2,relearn,59,63,A,46.01641079590135,61.713862528260165,2.3008205397950676,0.9693990857171627,B,866,Incorrect
2,relearn,59,64,A,34.02562690289394,59.407708599668055,1.701281345144697,0.9331741045166017,A,1592,Correct
2,relearn,59,65,B,84.87932356047446,65.89157692926536,4.243966178023723,1.0350224700721335,A,804,Incorrect
2,relearn,59,66,A,30.47535571363905,58.17045494830529,1.5237677856819525,0.9137393696078596,A,5561,Correct
2,relearn,59,67,B,83.61679095768382,68.18358398888311,4.180839547884191,1.0710252327744891,A,934,Incorrect
2,relearn,59,68,A,18.12372274740205,40.50565895478099,0.9061861373701023,0.6362614030057678,A,891,Correct
2,relearn,59,69,B,43.092468117289755,24.699686153227855,2.1546234058644878,0.38798176282477087,B,1251,Correct
2,relearn,59,70,A,40.595546638468626,61.29004333853607,2.029777331923431,0.9627417494527247,B,2147,Incorrect
2,relearn,59,71,B,68.3311692683601,51.3833878517018,3.416558463418005,0.8071283689573069,B,770,Correct
2,relearn,59,72,B,37.54260008491819,15.346094810878217,1.8771300042459098,0.24105589359573723,A,1385,Incorrect
2,relearn,59,73,B,48.01244246592096,35.68020176906734,2.4006221232960483,0.5604632987815173,B,1822,Correct
2,relearn,59,74,A,38.02666683191388,68.817848988817,1.901333341595694,1.0809882440955965,B,759,Incorrect
2,relearn,59,75,B,78.39852375424596,50.210341047668805,3.919926187712298,0.7887021928479718,B,692,Correct
2,relearn,59,76,A,23.78302686769398,42.330037939724136,1.189151343384699,0.6649186810880728,A,766,Correct
2,relearn,59,77,B,54.728185921869404,43.727624965911666,2.7364092960934703,0.6868719267591886,B,1690,Correct
2,relearn,59,78,B,41.9007774539583,23.88724908656683,2.095038872697915,0.3752200312241392,A,653,Incorrect
2,relearn,59,79,B,40.94625085010446,15.832908406527313,2.047312542505223,0.2487027436745314,B,1022,Correct
2,relearn,59,80,A,66.59809537604791,86.88922160418409,3.3299047688023955,1.3648527013392013,A,825,Correct
2,relearn,59,81,A,30.493250949947193,51.201286269946,1.5246625474973596,0.8042679240000514,B,2617,Incorrect
2,relearn,59,82,A,14.402919548149182,37.25644685585152,0.7201459774074591,0.5852228987060084,A,831,Correct
2,relearn,59,83,A,44.90618370938022,62.46423930570502,2.245309185469011,0.9811859765743886,A,2186,Correct
2,relearn,59,84,B,51.24896797965944,24.479807232466214,2.562448398982972,0.38452791281405074,B,930,Correct
2,relearn,59,85,B,69.77960410168339,50.951506882715854,3.4889802050841694,0.8003443985603494,B,816,Correct
2,relearn,59,86,A,32.683497937371655,45.51988556893322,1.634174896868583,0.7150246904780431,B,1589,Incorrect
2,relearn,59,87,B,32.333620871372815,12.291535962450784,1.616681043568641,0.19307499540485062,A,1758,Incorrect
2,relearn,59,88,A,46.383133912726855,58.845821889132424,2.3191566956363427,0.9243480087067593,B,1114,Incorrect
2,relearn,59,89,B,57.309270175831294,27.71853521364918,2.865463508791565,0.43540173297735113,A,424,Incorrect
2,relearn,59,90,B,85.27031324936678,68.70159306870863,4.263515662468339,1.0791621003728527,A,907,Incorrect
2,relearn,59,91,B,62.21501648577985,49.12973165670461,3.1107508242889925,0.7717280202277054,B,731,Correct
2,relearn,59,92,A,29.917184883709027,55.43045707978522,1.4958592441854512,0.870699583734888,A,1915,Correct
2,relearn,59,93,A,27.809041717079467,56.44146231320169,1.3904520858539735,0.8865804168050979,A,664,Correct
2,relearn,59,94,B,50.76160261587178,36.81001508506389,2.5380801307935887,0.5782103648488308,B,946,Correct
2,relearn,59,95,B,42.69188414325814,27.275934966559216,2.134594207162907,0.4284493845536769,B,742,Correct
2,relearn,59,96,A,61.384794513460896,80.44670948164875,3.069239725673045,1.2636539575651002,B,778,Incorrect
2,relearn,59,97,A,41.29001429297101,48.19694040597746,2.064500714648551,0.7570757695246193,B,866,Incorrect
2,relearn,59,98,A,22.576827879211308,38.702312229406985,1.1288413939605655,0.607934498884217,A,502,Correct
2,relearn,59,99,A,53.69003743263329,82.9434277008191,2.6845018716316646,1.302872315642247,B,1551,Incorrect
2,relearn,59,100,B,65.51738083673575,32.310700323645015,3.2758690418367875,0.5075352938455227,A,1141,Incorrect
2,relearn,59,101,B,40.9168057625681,29.919981354506454,2.0458402881284052,0.46998196809430526,B,2022,Correct
2,relearn,59,102,B,52.95586919870063,20.98294998922239,2.647793459935032,0.3295994076839154,B,748,Correct
2,relearn,59,103,B,76.95011894218266,51.33341404714879,3.847505947109133,0.8063433822710289,B,687,Correct
2,relearn,59,104,B,62.87090960865959,32.15960188578022,3.143545480432979,0.505161845133698,B,586,Correct
2,relearn,59,105,B,71.62255525883558,40.8237351751093,3.5811277629417786,0.641257732591093,B,511,Correct
2,relearn,59,106,A,16.948871214258087,34.71200815269415,0.8474435607129044,0.5452549490192649,A,801,Correct
2,relearn,59,107,B,53.40993720787136,25.984323998578567,2.670496860393568,0.40816080691215684,B,1651,Correct
2,relearn,59,108,B,71.71798895573065,39.63910190700373,3.5858994477865327,0.6226495567297005,B,640,Correct
2,relearn,59,109,B,61.86605914701895,41.11328306064262,3.0933029573509474,0.6458059401413626,B,494,Correct
2,relearn,59,110,B,69.99027384238906,50.11164955760697,3.4995136921194527,0.7871519505472213,B,594,Correct
2,relearn,59,111,A,62.74605011401498,72.89910513911623,3.137302505700749,1.1450964657915874,B,642,Incorrect
2,relearn,59,112,B,50.04643152591525,39.39808526661646,2.5023215762957625,0.6188636761955327,B,906,Correct
2,relearn,59,113,A,22.285628450146913,46.587592350072526,1.1142814225073456,0.7317961893771194,A,440,Correct
2,relearn,59,114,A,32.279987480557615,44.04694831380904,1.6139993740278809,0.691887846178559,A,717,Correct
2,relearn,59,115,A,62.47903083150456,76.27545518300326,3.123951541575228,1.1981320482607025,B,931,Incorrect
2,relearn,59,116,B,60.41526631982382,35.9291636999994,3.020763315991191,0.5643739836477158,B,792,Correct
2,relearn,59,117,B,48.6993020781038,37.97024745575315,2.4349651039051903,0.5964352523099032,B,936,Correct
2,relearn,59,118,A,28.536510146781573,50.85794081979415,1.4268255073390788,0.7988746662808489,A,513,Correct
2,relearn,59,119,B,76.26893825073115,58.949599842224686,3.8134469125365573,0.9259781489819555,B,1697,Correct
2,relearn,59,120,A,23.24844299265822,52.58850729302198,1.162422149632911,0.8260583408750555,A,724,Correct
2,relearn,59,121,A,20.878358166879387,47.98517833010794,1.0439179083439694,0.7537494186153162,A,683,Correct
2,relearn,59,122,B,67.18609410703633,34.60604401054904,3.359304705351816,0.5435904681667296,B,3482,Correct
2,relearn,59,123,B,65.63234281823141,32.9665922997903,3.28161714091157,0.5178380209145552,B,805,Correct
2,relearn,59,124,B,58.36239152507831,29.156332048404735,2.918119576253915,0.4579865928444648,B,583,Correct
2,relearn,59,125,B,44.552599169010755,26.95298569590075,2.227629958450538,0.4233765092727628,B,923,Correct
2,relearn,59,126,A,30.5162989572843,51.62963557801548,1.5258149478642151,0.8109964191970582,A,779,Correct
2,relearn,59,127,B,59.68596490307954,32.4834429088864,2.984298245153977,0.5102487280293049,B,974,Correct
2,relearn,59,128,A,54.75811168353337,84.48093452618691,2.7379055841766684,1.3270234163793455,A,1793,Correct
2,relearn,59,129,A,51.775109228688,59.97284698145021,2.5887554614344004,0.9420512774589439,B,896,Incorrect
2,relearn,59,130,B,55.38923045102287,33.418297898626484,2.7694615225511434,0.5249333958690009,B,868,Correct
2,relearn,59,131,B,72.44076841067191,49.99954616436011,3.6220384205335954,0.7853910345638873,B,704,Correct
2,relearn,59,132,B,57.50622309155074,28.578550230558584,2.875311154577537,0.44891081727284865,B,498,Correct
2,relearn,59,133,A,32.14955268417488,50.33479320651483,1.6074776342087438,0.7906570827877419,A,781,Correct
2,relearn,59,134,A,37.28342928145226,45.18149233302126,1.8641714640726128,0.7097092219582157,A,730,Correct
2,relearn,59,135,B,34.2492323025455,14.461160742155762,1.712461615127275,0.2271553817496883,A,791,Incorrect
2,relearn,59,136,B,54.89022426201907,31.86864899365979,2.7445112131009535,0.5005915677915668,B,1047,Correct
2,relearn,59,137,A,65.0295161493734,82.4890486858885,3.2514758074686707,1.2957349467659904,B,1413,Incorrect
2,relearn,59,138,B,55.14412411801983,39.62229566860967,2.7572062059009914,0.6223855649543341,B,632,Correct
2,relearn,59,139,A,31.483405767092194,48.90195325777556,1.5741702883546096,0.7681500855040956,A,844,Correct
2,relearn,59,140,A,57.80138727944026,71.69390746268512,2.8900693639720134,1.1261652649595901,A,1841,Correct
2,relearn,59,141,B,32.506519274740995,11.667356525153519,1.6253259637370496,0.18327040773117617,A,1143,Incorrect
2,relearn,59,142,B,62.48538559347441,36.481548189242616,3.1242692796737206,0.5730508189145331,B,1328,Correct
2,relearn,59,143,B,72.75989443723587,52.601736000094775,3.6379947218617934,0.8262661369198374,B,1432,Correct
2,relearn,59,144,A,29.12756544395716,58.21471503737573,1.456378272197858,0.9144346054612142,A,718,Correct
2,relearn,59,145,A,50.801930215475075,63.37681123582958,2.5400965107737536,0.9955206229321464,B,976,Incorrect
2,relearn,59,146,A,64.81271787987835,79.28138710768265,3.2406358939939173,1.2453491165195216,B,1068,Incorrect
2,relearn,59,147,B,72.51928981763443,42.63555204593903,3.6259644908817217,0.6697176854463366,A,939,Incorrect
2,relearn,59,148,A,54.27249204807487,71.0981660763004,2.713624602403743,1.1168073811450618,B,1811,Incorrect
2,relearn,59,149,B,62.03777613452945,53.33639995421493,3.1018888067264725,0.8378062113254431,A,915,Incorrect
2,relearn,59,150,B,70.56066405555752,44.64901546810336,3.5280332027778765,0.7013450949230526,A,418,Incorrect
2,relearn,59,151,B,81.52536500763851,63.09277889942392,4.076268250381926,0.9910590534249765,B,466,Correct
2,relearn,59,152,A,29.690352473787918,47.24458361533501,1.484517623689396,0.7421161840392259,A,780,Correct
2,relearn,59,153,B,87.96934296494797,64.50137841912887,4.3984671482473985,1.0131852829397525,B,699,Correct
2,relearn,59,154,B,71.34033210228229,57.19374418266031,3.567016605114114,0.8983972327776979,B,739,Correct
2,relearn,59,155,B,65.73444084079912,53.37141465699975,3.2867220420399565,0.8383562209906251,B,571,Correct
2,relearn,59,156,B,63.365490292325184,38.803907280929295,3.168274514616259,0.6095303502217347,B,741,Correct
2,relearn,59,157,A,10.780277124817694,33.286171143988454,0.5390138562408847,0.5228579536604334,A,629,Correct
2,relearn,59,158,B,79.6973241029552,50.143444424149095,3.984866205147761,0.7876513831429744,B,679,Correct
2,relearn,59,159,A,38.27292016108722,58.288219560276225,1.9136460080543611,0.9155892118069635,B,344,Incorrect
2,relearn,59,160,A,35.802142275562346,59.44723486347384,1.7901071137781173,0.9337949816165823,A,572,Correct
2,relearn,59,161,A,35.89040095000941,65.04767724302681,1.7945200475004703,1.021766524798865,A,574,Correct
2,relearn,59,162,B,89.05744846530666,69.05374748307773,4.452872423265333,1.0846937289784082,B,920,Correct
2,relearn,59,163,B,59.07885502433037,44.335699275757264,2.9539427512165184,0.6964235356824267,B,888,Correct
2,relearn,59,164,B,42.52744673594444,34.44334665028393,2.126372336797222,0.541034824007893,A,687,Incorrect
2,relearn,59,165,B,77.33253208889647,59.078859315868925,3.8666266044448236,0.9280085520459938,B,470,Correct
2,relearn,59,166,B,57.44393043816151,33.93837919197306,2.8721965219080756,0.5331028137212364,B,504,Correct
2,relearn,59,167,B,50.39489313792481,42.95370309934958,2.5197446568962407,0.6747151905069689,B,1044,Correct
2,relearn,59,168,B,53.09129826063532,29.58833872971957,2.6545649130317663,0.4647725379260667,A,1075,Incorrect
2,relearn,59,169,A,35.82388636335621,53.5466020027347,1.7911943181678105,0.8411080573824392,A,778,Correct
2,relearn,59,170,B,54.7120809047162,31.34448507287277,2.7356040452358106,0.4923580201774602,B,807,Correct
2,relearn,59,171,A,51.35658508983752,75.53916735058313,2.5678292544918757,1.1865664660344097,B,1830,Incorrect
2,relearn,59,172,A,66.27180202679061,83.39354401666323,3.3135901013395306,1.3099427261978311,B,841,Incorrect
2,relearn,59,173,A,52.14627865749678,76.21020547180967,2.607313932874839,1.1971071081940297,A,477,Correct
2,relearn,59,174,A,37.06404194544558,46.56183743047375,1.8532020972722791,0.7313916320460928,A,697,Correct
2,relearn,59,175,A,22.458768009990123,44.46910585259605,1.1229384004995062,0.6985190812911132,A,634,Correct
2,relearn,59,176,A,22.569751868390295,38.1411011484776,1.1284875934195149,0.5991190158394123,A,483,Correct
2,relearn,59,177,A,25.22308596442111,37.55275396253501,1.2611542982210553,0.5898772798538249,A,363,Correct
2,relearn,59,178,B,56.70931034223163,48.02543250184871,2.8354655171115812,0.7543817296664018,A,1849,Incorrect
2,relearn,59,179,B,42.89288645557731,15.41606616673926,2.1446443227788654,0.24215500108341106,A,1163,Incorrect
2,relearn,59,180,A,43.82276093208248,62.49983503509173,2.191138046604124,0.9817451129840906,B,596,Incorrect
2,relearn,59,181,A,54.68644337078259,80.06675069047465,2.7343221685391295,1.2576855788300034,B,938,Incorrect
2,relearn,59,182,B,85.44859203523788,67.46841101106672,4.272429601761894,1.0597913219087196,B,1134,Correct
2,relearn,59,183,B,52.93205803247774,34.370745126677406,2.6466029016238872,0.5398944019418846,A,969,Incorrect
2,relearn,59,184,A,62.461588926779,84.26740794806251,3.12307944633895,1.3236693487334368,B,890,Incorrect
2,relearn,59,185,B,74.52676522362201,46.066852137340234,3.7263382611811005,0.7236164212433767,B,1144,Correct
2,relearn,59,186,A,11.028681045413418,31.949104799937555,0.5514340522706709,0.5018553646412711,A,702,Correct
2,relearn,59,187,A,10.725537506736174,32.71307599846045,0.5362768753368087,0.5138557961654396,A,664,Correct
2,relearn,59,188,B,74.68138610656051,52.5558405877507,3.734069305328026,0.8255452134685695,B,714,Correct
2,relearn,59,189,B,66.61497081667075,39.64201970350043,3.3307485408335373,0.6226953893698938,B,945,Correct
2,relearn,59,190,A,51.17410267653382,79.34473552629102,2.5587051338266913,1.2463441911521047,B,685,Incorrect
2,relearn,59,191,A,55.72952562327017,81.76716467234324,2.7864762811635084,1.284395619197502,A,741,Correct
2,relearn,59,192,B,58.29311741261717,27.340788146327462,2.9146558706308587,0.4294680959192863,B,772,Correct
2,relearn,59,193,B,73.3254988321123,61.33932269055427,3.6662749416056153,0.9635158277040949,B,2457,Correct
2,relearn,59,194,B,81.17210273724564,61.870083713842675,4.0586051368622815,0.9718530023619683,B,752,Correct
2,relearn,59,195,B,54.241863184201875,35.182317582615326,2.7120931592100934,0.5526425522690366,B,1231,Correct
2,relearn,59,196,B,71.8748390319482,39.129253136445065,3.5937419515974103,0.6146408709695559,B,714,Correct
2,relearn,59,197,B,36.773177596850445,15.860886535684443,1.8386588798425223,0.24914222309963757,A,862,Incorrect
2,relearn,59,198,A,19.794375827574047,45.21126629497465,0.9897187913787023,0.7101769102589209,A,683,Correct
2,relearn,59,199,B,41.51851156506261,30.61036040809516,2.0759255782531305,0.4808264169090381,A,380,Incorrect
2,relearn,59,200,A,20.46351268069628,40.786989787713566,1.023175634034814,0.6406805373956143,A,395,Correct
2,relearn,59,201,B,55.790153991652794,45.300155573705325,2.7895076995826393,0.7115731797841368,B,657,Correct
2,relearn,59,202,B,39.30388843399473,18.56135062432463,1.9651944216997363,0.2915610138104129,A,666,Incorrect
2,relearn,59,203,B,58.923240461782235,42.1481484469256,2.9461620230891117,0.6620615676163676,B,1041,Correct
2,relearn,59,204,B,61.63102126505699,46.45439143157437,3.0815510632528493,0.7297038742420933,B,877,Correct
2,relearn,59,205,B,57.70235937859089,25.970154518938692,2.8851179689295448,0.4079382332464478,B,552,Correct
2,relearn,59,206,B,77.128083908653,54.35721290364427,3.85640419543265,0.8538411036385257,B,699,Correct
2,relearn,59,207,B,73.60067291798822,46.92323996143805,3.680033645899411,0.7370685297274239,B,452,Correct
2,relearn,59,208,A,26.14171245236166,56.48954680014663,1.3070856226180831,0.8873357261597873,A,714,Correct
2,relearn,59,209,A,31.612297867137244,56.73438749185226,1.5806148933568622,0.8911816747515985,A,559,Correct
2,relearn,59,210,A,47.85569083234257,61.21543475043594,2.3927845416171283,0.9615698004913743,A,365,Correct
2,relearn,59,211,B,35.12360435145847,10.403279826961434,1.7561802175729235,0.16341433738810468,A,449,Incorrect
2,relearn,59,212,B,53.19817221746816,35.53795538756806,2.659908610873408,0.5582288978459282,B,615,Correct
2,relearn,59,213,B,47.972274162143975,40.86843814619806,2.3986137081071988,0.6419599252189235,B,429,Correct
2,relearn,59,214,B,54.80655874154825,46.819682183073404,2.7403279370774123,0.7354418479487617,B,632,Correct
2,relearn,59,215,B,32.18168448958815,12.563369041327071,1.6090842244794075,0.19734493942285283,B,1043,Correct
2,relearn,59,216,A,64.74806939072369,82.88668623595933,3.237403469536184,1.3019810227964603,B,1296,Incorrect
2,relearn,59,217,B,64.91709695248143,41.59242601797011,3.2458548476240714,0.6533323001151594,B,763,Correct
2,relearn,59,218,B,61.41113820435401,40.434206835939776,3.0705569102177,0.6351390357475929,B,567,Correct
2,relearn,59,219,B,61.51041410822376,47.074407244151416,3.075520705411188,0.7394430598516012,B,796,Correct
2,relearn,59,220,B,65.55686745945276,46.94672947859135,3.277843372972638,0.7374375022000499,B,540,Correct
2,relearn,59,221,B,75.83969471692166,56.52275405501291,3.791984735846083,0.8878573444994564,B,676,Correct
2,relearn,59,222,B,57.10425832128247,42.65122705388869,2.855212916064124,0.6699639078954347,B,564,Correct
2,relearn,59,223,B,41.417186105864715,28.214807849268905,2.0708593052932356,0.4431971653085542,B,624,Correct
2,relearn,59,224,A,18.081819836334013,46.380962711339066,0.9040909918167006,0.7285504586018247,A,873,Correct
2,relearn,59,225,B,58.268901448839856,51.38898451859122,2.913445072441993,0.807216281195229,100,665,Correct
2,relearn,59,226,A,50.24802551873216,65.80946245300446,2.5124012759366083,1.033732618895261,B,755,Incorrect
2,relearn,59,227,B,68.35551171877304,54.70725386730989,3.4177755859386525,0.8593395342380626,B,1134,Correct
2,relearn,59,228,B,64.29016656077376,52.14759274917865,3.2145083280386877,0.81913247141606,A,2980,Incorrect
2,relearn,59,229,A,24.724486188763187,50.19775173768933,1.2362243094381595,0.7885044404292455,A,520,Correct
2,relearn,59,230,A,23.95744226349149,38.741599207349,1.1978721131745744,0.6085516172906389,A,731,Correct
2,relearn,59,231,A,66.74640172999341,89.35094639946064,3.3373200864996706,1.4035213839992045,B,515,Incorrect
2,relearn,59,232,A,44.318536248310366,59.05256018495202,2.215926812415518,0.9275954462635718,B,1220,Incorrect
2,relearn,59,233,A,25.6781861133613,47.1984015625656,1.283909305668065,0.7413907580506854,A,1005,Correct
2,relearn,59,234,A,45.18199107233331,69.85968591225158,2.259099553616666,1.0973533802200999,B,1356,Incorrect
2,relearn,59,235,A,49.63539435086318,74.82724013389844,2.481769717543159,1.1753835394652734,A,1328,Correct
2,relearn,59,236,B,66.86582141720388,36.23418958850273,3.3432910708601935,0.5691653191000997,B,867,Correct
2,relearn,59,237,B,43.463076137412074,24.137842344144122,2.1731538068706038,0.37915634090935896,A,1825,Incorrect
2,relearn,59,238,B,75.76384519735949,53.72950556221388,3.7881922598679747,0.8439810997763154,B,2027,Correct
2,relearn,59,239,A,59.014331839255604,85.51640416367135,2.95071659196278,1.3432885354100275,B,725,Incorrect
2,relearn,59,240,A,32.34485263296355,48.889211533099974,1.6172426316481776,0.7679499389609213,A,1317,Correct
2,relearn,59,241,A,22.21898564366573,34.850883581796424,1.1109492821832865,0.5474363991584239,A,691,Correct
2,relearn,59,242,B,40.96059530552546,27.819788128474862,2.048029765276273,0.43699221004420585,B,1257,Correct
2,relearn,59,243,B,52.737076564496746,44.42404011086714,2.6368538282248375,0.6978111902753925,B,1145,Correct
2,relearn,59,244,A,26.436440363077473,36.95299922220401,1.3218220181538738,0.5804563544229272,A,1346,Correct
2,relearn,59,245,A,46.01541473810359,55.97813487007319,2.300770736905179,0.8793024863474029,B,6551,Incorrect
2,relearn,59,246,A,27.024237971783883,59.44026762918425,1.3512118985891943,0.9336855405562822,A,999,Correct
2,relearn,59,247,B,74.96874478804617,46.41954387830089,3.748437239402308,0.7291564901552956,B,1581,Correct
2,relearn,59,248,A,46.805311900771464,59.30049721278523,2.340265595038573,0.9314900319895404,A,701,Correct
2,relearn,59,249,B,39.20091635058283,14.92017376894589,1.9600458175291413,0.23436554151401773,A,856,Incorrect
2,relearn,59,250,B,54.176611499584666,31.47509455663723,2.7088305749792334,0.49440962915087805,B,954,Correct
2,relearn,59,251,B,70.59104196353994,44.01132439195834,3.529552098176997,0.6913282669226679,B,960,Correct
2,relearn,59,252,B,68.98462005853918,46.36257631206143,3.449231002926959,0.7282616457173419,B,674,Correct
2,relearn,59,253,A,54.32713721310844,63.83346633935903,2.7163568606554223,1.002693744524508,B,836,Incorrect
2,relearn,59,254,A,23.153814811595492,51.299821329641944,1.1576907405797747,0.8058157090983605,A,817,Correct
2,relearn,59,255,A,50.35690084570005,68.08128829331591,2.517845042285003,1.0694183757460503,A,4790,Correct
2,relearn,59,256,B,67.37646786701796,46.42041272565288,3.368823393350898,0.7291701379775861,B,783,Correct
2,relearn,59,257,B,70.11596695191062,53.23913155869386,3.5057983475955314,0.8362783229414659,B,601,Correct
2,relearn,59,258,B,49.61855801317701,42.66670074979883,2.48092790065885,0.6702069681424105,B,621,Correct
2,relearn,59,259,A,29.332431164250455,48.86177845237309,1.4666215582125226,0.7675190211365366,B,386,Incorrect
2,relearn,59,260,A,21.759161292161274,39.08007015112994,1.0879580646080638,0.6138683064428179,A,356,Correct
2,relearn,59,261,A,54.458582425633125,66.48240101805806,2.7229291212816564,1.0443031131567089,B,730,Incorrect
2,relearn,59,262,B,56.55411334270112,34.19015076203961,2.827705667135056,0.5370576322957555,A,1075,Incorrect
2,relearn,59,263,A,55.69867555701653,75.62375999140656,2.7849337778508265,1.1878952441292028,A,1804,Correct
2,relearn,59,264,A,23.489243842921468,34.58420152818959,1.1744621921460734,0.5432473672561465,A,615,Correct
2,relearn,59,265,B,80.51952292142278,66.6864012766562,4.025976146071139,1.0475075417254205,B,1238,Correct
2,relearn,59,266,B,52.367075044713026,25.967256466460274,2.618353752235651,0.40789271074456823,B,946,Correct
2,relearn,59,267,B,70.05134564648287,61.21424255964871,3.502567282324144,0.9615510736022802,B,1041,Correct
2,relearn,59,268,A,52.4584499011318,77.31977231560666,2.6229224950565904,1.2145361434197268,B,929,Incorrect
2,relearn,59,269,A,59.89389244818105,85.04700672656034,2.9946946224090527,1.3359152577098183,A,1102,Correct
2,relearn,59,270,A,26.001534871573867,57.33801805142563,1.3000767435786935,0.9006634814087886,A,700,Correct
2,relearn,59,271,B,79.05885831540418,49.77704519477032,3.9529429157702087,0.7818959975064877,B,977,Correct
2,relearn,59,272,B,64.03512109767793,55.54727715229328,3.201756054883896,0.8725345891428038,B,1731,Correct
2,relearn,59,273,B,38.76560550563961,22.09835178814523,1.9382802752819805,0.3471200981703996,B,893,Correct
2,relearn,59,274,B,67.53657804343136,36.48004471743556,3.376828902171568,0.5730272024346135,B,893,Correct
2,relearn,59,275,A,10.327759696956534,32.632478596112485,0.5163879848478267,0.5125897751298657,A,712,Correct
2,relearn,59,276,A,53.18886429701062,83.36339002520027,2.6594432148505307,1.309469068407549,A,1269,Correct
2,relearn,59,277,B,63.3770681704527,33.72919886876295,3.168853408522635,0.5298170168878742,B,2472,Correct
2,relearn,59,278,B,72.19224214048819,44.94391819185905,3.6096121070244096,0.7059774160754253,B,670,Correct
2,relearn,59,279,A,43.58243705060819,60.21498935537587,2.1791218525304092,0.9458548409741822,A,1777,Correct
2,relearn,59,280,A,33.1807938211493,63.04021283866847,1.6590396910574652,0.9902333476734889,A,462,Correct
2,relearn,59,281,A,64.33070958404952,77.63556973324431,3.2165354792024754,1.219496677656092,A,1216,Correct
2,relearn,59,282,B,69.29446788695202,59.090074094375325,3.464723394347601,0.9281847133748303,B,1942,Correct
2,relearn,59,283,A,63.68951384082741,88.7425740798032,3.1844756920413704,1.3939650939487886,A,1057,Correct
2,relearn,59,284,A,26.843214972722595,49.87732817126874,1.3421607486361298,0.7834712388177255,A,743,Correct
2,relearn,59,285,B,68.09576855958278,43.255266038213556,3.404788427979139,0.6794521300736188,B,1081,Correct
2,relearn,59,286,A,39.832945118611754,53.347786351762196,1.9916472559305876,0.8379850684398698,A,1308,Correct
2,relearn,59,287,B,64.06098962005197,54.32508925389063,3.2030494810025982,0.8533365065281632,B,8501,Correct
2,relearn,59,288,A,45.38349287374623,71.01403435416412,2.2691746436873115,1.115485843144076,A,683,Correct
2,relearn,59,289,B,76.34015610715728,62.590603778990726,3.817007805357864,0.9831709050791342,B,609,Correct
2,relearn,59,290,B,69.2366752777139,45.38634010845342,3.461833763885695,0.7129269632902252,B,730,Correct
2,relearn,59,291,A,52.52358773510447,71.2534870857552,2.6261793867552234,1.1192471578563186,B,945,Incorrect
2,relearn,59,292,B,59.63168780931616,49.60740650768403,2.9815843904658084,0.7792313192409133,A,666,Incorrect
2,relearn,59,293,A,34.13419070348567,48.084265058546094,1.7067095351742836,0.755305869305964,A,635,Correct
2,relearn,59,294,B,42.58086470811736,30.486903448847716,2.129043235405868,0.47888715952800653,A,1868,Incorrect
2,relearn,59,295,A,34.513935689593396,44.876052861571964,1.7256967844796696,0.7049113899601084,A,771,Correct
2,relearn,59,296,A,49.93616955814995,74.90935180817281,2.4968084779074973,1.1766733466286452,B,1091,Incorrect
2,relearn,59,297,B,68.51601285349184,40.52725866324147,3.425800642674592,0.6366006904328634,B,847,Correct
2,relearn,59,298,B,58.281507905005725,35.062308932042285,2.914075395250286,0.5507574607939991,B,688,Correct
2,relearn,59,299,A,27.10006876019917,51.66526331637728,1.3550034380099587,0.8115560584025655,A,572,Correct
2,relearn,59,300,B,44.91253061294587,16.411448508351377,2.245626530647294,0.2577904303430193,B,1017,Correct
2,relearn,59,301,A,39.06038256254148,53.59996478009592,1.9530191281270737,0.8419462779291049,A,581,Correct
2,relearn,59,302,A,29.31115726014066,52.19174578127474,1.465557863007033,0.8198260256223938,A,599,Correct
2,relearn,59,303,A,58.076839801031795,71.00335955187127,2.9038419900515895,1.1153181637417673,B,654,Incorrect
2,relearn,59,304,B,79.01624708386312,65.05095936380928,3.9508123541931557,1.021818080231557,A,775,Incorrect
2,relearn,59,305,B,80.98483199151283,54.18733010184787,4.049241599575641,0.8511725908280516,B,1897,Correct
2,relearn,59,306,A,43.97379617625115,56.43364018993158,2.1986898088125573,0.8864575471800937,A,531,Correct
2,relearn,59,307,B,35.94817460677457,22.81959627217862,1.7974087303387285,0.3584493800328069,A,589,Incorrect
2,relearn,59,308,A,65.63088720375401,84.06838553590251,3.281544360187701,1.3205431119937288,B,694,Incorrect
2,relearn,59,309,B,66.12825476950212,53.58397303542719,3.306412738475106,0.8416950801912582,B,968,Correct
2,relearn,59,310,B,69.37751961930297,51.14052604119749,3.468875980965149,0.8033135045587178,B,575,Correct
2,relearn,59,311,A,14.473416056083114,40.88084619633811,0.7236708028041556,0.6421548304147503,A,516,Correct
2,relearn,59,312,B,48.71353338177335,21.974815619781587,2.4356766690886675,0.34517959657548036,B,831,Correct
2,relearn,59,313,B,66.36169488763517,36.6521119451591,3.3180847443817583,0.5757300281273127,B,499,Correct
2,relearn,59,314,A,26.918345143146034,37.479961801619794,1.3459172571573017,0.5887338632639741,A,533,Incorrect
2,relearn,59,315,A,57.11837458405682,67.97865541460322,2.855918729202841,1.0678062222571476,B,1436,Incorrect
2,relearn,59,316,A,44.366180913247184,52.69450681957556,2.2183090456623593,0.827723377544579,A,850,Correct
2,relearn,59,317,B,55.40607419873264,40.75403860042623,2.7703037099366323,0.6401629413560695,A,477,Correct
2,relearn,59,318,A,16.555992768909125,33.96153831852524,0.8277996384454562,0.5334665964304358,B,818,Incorrect
2,relearn,59,319,B,63.69136358692623,40.90807662624681,3.1845681793463116,0.6425825650075265,A,652,Incorrect
2,relearn,59,320,A,32.12568029533811,53.72528666399984,1.6062840147669053,0.843914829478138,B,1385,Incorrect
2,relearn,59,321,B,82.5708136659301,58.807437409553216,4.128540683296506,0.9237450667114697,A,925,Incorrect
2,relearn,59,322,B,46.343789703623266,25.02083831876143,2.317189485181163,0.39302640924439447,B,832,Correct
2,relearn,59,323,B,54.73988076143807,39.803293191240265,2.736994038071904,0.6252286673914053,B,755,Correct
2,relearn,59,324,B,70.6296396949189,37.446026607059025,3.531481984745944,0.5882008104743228,B,834,Incorrect
2,relearn,59,325,A,13.178173767370147,40.43320328103398,0.6589086883685072,0.6351232719439953,B,1459,Correct
2,relearn,59,326,B,32.688602962538894,19.126430155220564,1.6344301481269445,0.30043726232519613,B,834,Correct
2,relearn,59,327,B,38.71906055064264,18.711457721246692,1.935953027532132,0.29391889057512305,B,654,Incorrect
2,relearn,59,328,A,45.86908611147491,66.43989670205373,2.293454305573745,1.0436354569221837,A,976,Correct
2,relearn,59,329,B,74.36959220923784,60.087972017408745,3.718479610461892,0.943859657295002,A,701,Correct
2,relearn,59,330,A,46.08254070559499,56.38665738420814,2.3041270352797496,0.8857195429935647,A,676,Correct
2,relearn,59,331,A,34.239631042636226,60.176240698594725,1.7119815521318114,0.9452461784967816,A,435,Incorrect
2,relearn,59,332,A,64.09290208756076,85.53854902744362,3.2046451043780384,1.3436363861167362,A,758,Correct
2,relearn,59,333,B,79.47032506759392,67.19504084942496,3.973516253379696,1.0554972334510972,A,560,Correct
2,relearn,59,334,A,30.887221285409126,56.21283424967439,1.5443610642704562,0.882989135581189,B,579,Incorrect
2,relearn,59,335,A,52.013137165579245,79.73455186346597,2.6006568582789624,1.252467411857695,A,607,Incorrect
2,relearn,59,336,B,61.532606232070414,41.984993777629,3.076630311603521,0.6594987400640622,B,731,Correct
2,relearn,59,337,A,47.43867621029631,56.327168756140466,2.3719338105148156,0.884785097809017,B,486,Incorrect
2,relearn,59,338,A,31.84979797976,51.768298887636014,1.592489898988,0.8131745373711898,B,672,Incorrect
2,relearn,59,339,A,48.351609426004785,58.502456287465186,2.4175804713002393,0.9189544344482932,A,766,Incorrect
2,relearn,59,340,A,49.5152644724425,70.58615022106747,2.4757632236221254,1.1087646548984555,A,300,Incorrect
2,relearn,59,341,A,26.380728934742187,56.99792580603187,1.3190364467371094,0.8953213249104292,A,395,Correct
2,relearn,59,342,B,55.31198876240172,39.64665306123012,2.765599438120086,0.6227681699829192,B,1812,Correct
2,relearn,59,343,B,66.21055899693408,55.164221001010304,3.310527949846704,0.8665175571888887,B,410,Correct
2,relearn,59,344,B,74.09215268367676,41.40348016006508,3.704607634183838,0.650364345519556,B,369,Correct
2,relearn,59,345,B,52.23518849780909,43.47364403662956,2.6117594248904545,0.6828824036512657,A,553,Incorrect
2,relearn,59,346,B,58.72522286601324,46.69912218971786,2.9362611433006625,0.7335480960015488,B,499,Correct
2,relearn,59,347,B,37.88239569524448,14.801024977550117,1.8941197847622242,0.23249395667535241,B,855,Incorrect
2,relearn,59,348,A,29.605939963957233,53.49529394347796,1.4802969981978618,0.8403021122722846,A,584,Incorrect
2,relearn,59,349,B,44.959934667673366,17.477405202945643,2.247996733383668,0.2745344389469303,B,301,Incorrect
2,relearn,59,350,B,72.15383904990973,56.25478569341682,3.6076919524954865,0.8836481073185324,A,290,Incorrect
2,relearn,59,351,B,69.60994398669386,50.03935283970041,3.480497199334693,0.7860163163579519,B,427,Correct
2,relearn,59,352,A,63.45698097194183,86.432053579009,3.172849048597092,1.3576715227924703,B,510,Correct
2,relearn,59,353,A,38.48398894409766,68.90102342793378,1.9241994472048831,1.0822947451300748,A,592,Incorrect
2,relearn,59,354,A,41.359521648282495,57.36906499456851,2.067976082414125,0.901151165651259,B,867,Correct
2,relearn,59,355,B,72.99516653114537,58.50494283701058,3.649758326557269,0.9189934930772161,B,333,Correct
2,relearn,59,356,B,84.87829288620955,57.29313523497049,4.243914644310478,0.8999584637765491,B,308,Incorrect
2,relearn,59,357,A,46.63533686158387,74.66173304744494,2.3317668430791936,1.1727837602306763,B,744,Correct
2,relearn,59,358,B,75.47068238580589,52.98924621287382,3.7735341192902947,0.8323531331081259,B,463,Incorrect
2,relearn,59,359,A,22.95830038558516,40.72078855836721,1.147915019279258,0.6396406509167486,B,595,Correct
2,relearn,59,360,A,17.68493425438803,35.842095665951305,0.8842467127194014,0.5630063221670758,B,581,Incorrect
2,relearn,59,361,A,34.37780578230026,45.56702197024781,1.7188902891150126,0.715765107338476,B,998,Incorrect
2,relearn,59,362,A,55.34867567896555,81.3254971323718,2.7674337839482774,1.2774579217029849,B,1565,Correct
2,relearn,59,363,A,42.20021280569248,64.81023600596255,2.110010640284624,1.0180368065687633,B,835,Correct
2,relearn,59,364,B,66.80480011489101,33.91181888561298,3.3402400057445503,0.5326856054045467,B,793,Correct
2,relearn,59,365,B,62.179891607622984,41.93289897439538,3.108994580381149,0.6586804368084174,B,470,Incorrect
2,relearn,59,366,A,67.97624218279591,89.04285387057998,3.3988121091397954,1.3986818778724177,A,542,Correct
2,relearn,59,367,A,56.26819388063883,76.7077289551869,2.8134096940319413,1.2049221887958612,A,348,Correct
2,relearn,59,368,B,38.57616784963908,26.102192292922396,1.928808392481954,0.41001227775016563,A,382,Incorrect
2,relearn,59,369,A,20.697772270296202,39.79010815623133,1.03488861351481,0.6250215573457982,B,375,Incorrect
2,relearn,59,370,B,45.68036569199977,21.168308807179937,2.2840182845999886,0.332511017187783,A,820,Correct
2,relearn,59,371,A,30.31318419135346,49.35248137921448,1.515659209567673,0.7752269646868364,A,297,Correct
2,relearn,59,372,A,60.86681535000751,73.92888754812063,3.043340767500376,1.1612722500462085,B,829,Correct
2,relearn,59,373,B,66.08979036675704,58.253546579881686,3.304489518337852,0.9150445699045358,B,345,Incorrect
2,relearn,59,374,B,69.9975680996657,44.29788204062045,3.4998784049832854,0.6958295039420023,A,329,Correct
2,relearn,59,375,B,56.52710368392194,27.879500205251155,2.826355184196097,0.43793016515286076,A,364,Incorrect
2,relearn,59,376,B,59.939772837328064,31.15608157010873,2.996988641866403,0.4893985848764897,A,430,Incorrect
2,relearn,59,377,A,21.529530702823596,52.6289556040599,1.0764765351411798,0.8266937014590896,A,894,Incorrect
2,relearn,59,378,A,60.48876373064271,87.65814342816711,3.0244381865321355,1.376930897106251,100,288,Incorrect
2,relearn,59,379,B,68.17507109347086,57.27389964574508,3.4087535546735435,0.899656311847559,A,435,Incorrect
2,relearn,59,380,A,28.675578986486762,47.079850605084786,1.433778949324338,0.7395285639651965,B,482,Incorrect
2,relearn,59,381,B,30.120687512908006,13.718925534022944,1.5060343756454002,0.21549637836415955,B,600,Correct
2,relearn,59,382,A,50.25979764794991,81.36169336335027,2.5129898823974957,1.2780264907696333,B,258,Correct
2,relearn,59,383,A,57.479682931760664,75.40075599076489,2.873984146588033,1.184392305478518,A,424,Incorrect
2,relearn,59,384,A,60.70512333049641,78.0894408541993,3.035256166524821,1.226626068552436,B,25,Correct
2,relearn,59,385,A,38.32323438459375,59.85322494957378,1.9161617192296876,0.9401722589761914,B,704,Incorrect
2,relearn,59,386,A,40.68454077278888,67.18053498094139,2.0342270386394437,1.055269375801788,A,673,Correct
2,relearn,59,387,A,34.80800472047782,48.934900423587,1.7404002360238908,0.768667618374445,A,647,Correct
2,relearn,59,388,A,55.82228186294787,77.93397305213021,2.7911140931473932,1.224183986028186,B,855,Incorrect
2,relearn,59,389,B,52.99828336115425,36.337749062580656,2.649914168057712,0.5707920275149639,A,1132,Correct
2,relearn,59,390,A,50.21519034933989,71.55456025955749,2.5107595174669943,1.1239764042113698,100,611,Incorrect
2,relearn,59,391,B,75.29598644394977,64.89756773432813,3.7647993221974887,1.0194086101500563,B,995,Correct
2,relearn,59,392,B,48.25358288066563,37.887433950760574,2.412679144033282,0.5951344208153896,A,840,Incorrect
2,relearn,59,393,B,68.96241650079256,39.86385052334246,3.4481208250396276,0.6261798997396716,A,1008,Incorrect
2,relearn,59,394,A,40.48708793385204,64.46346876267998,2.0243543966926016,1.0125897994487525,B,707,Incorrect
2,relearn,59,395,B,67.20143200974294,36.7175890756888,3.360071600487147,0.5767585404885639,A,468,Correct
2,relearn,59,396,B,83.69990113249585,63.62882255899735,4.184995056624793,0.9994792075395729,B,1656,Incorrect
2,relearn,59,397,A,29.235362180004543,47.71508604322146,1.461768109000227,0.7495068188939472,A,700,Incorrect
2,relearn,59,398,A,17.363852859091146,39.574874611961974,0.8681926429545572,0.6216406767383847,B,461,Incorrect
2,relearn,59,399,B,41.556019787117165,32.49760723091052,2.0778009893558584,0.5104712206793752,A,131,Correct
2,relearn,59,400,B,70.55014787236229,44.812004567494796,3.5275073936181145,0.7039053217093696,A,438,Correct
2,relearn,59,401,B,61.35741204048864,39.08342611918625,3.0678706020244317,0.6139210218657748,A,803,Correct
2,relearn,59,402,A,27.613622372046983,46.743709522546744,1.3806811186023493,0.7342484721878405,A,702,Correct
2,relearn,59,403,A,22.269716212858324,37.76305646569851,1.1134858106429162,0.5931807038486748,A,455,Correct
2,relearn,59,404,B,72.56143179662637,56.282754296867964,3.6280715898313183,0.8840874371141988,A,346,Correct
2,relearn,59,405,A,39.47204810898771,70.9209871612933,1.9736024054493853,1.1140242612562754,A,608,Correct
2,relearn,59,406,B,69.36979685108756,58.357923794516616,3.468489842554378,0.9166841233580318,A,479,Incorrect
2,relearn,59,407,B,35.4245328802596,16.079769424949887,1.7712266440129798,0.2525804274842017,B,338,Incorrect
2,relearn,59,408,A,51.63606365319282,75.7382133505944,2.581803182659641,1.189693073291219,B,996,Correct
2,relearn,59,409,A,25.70979884883947,57.929273441010864,1.2854899424419732,0.9099508993503703,B,646,Incorrect
2,relearn,59,410,A,34.85153955195438,54.964495853188765,1.742576977597719,0.8633802819032224,A,681,Incorrect
2,relearn,59,411,A,34.80207996414964,48.91252784793029,1.740103998207482,0.76831619077782,A,802,Correct
2,relearn,59,412,B,64.94211175686014,47.365580906343354,3.247105587843007,0.7440168050419064,A,600,Incorrect
2,relearn,59,413,A,53.516765544374806,70.28216126758929,2.6758382772187406,1.103989607583358,B,412,Correct
2,relearn,59,414,A,56.29906908454771,68.49066996597382,2.814953454227385,1.0758489280227321,B,437,Incorrect
2,relearn,59,415,B,86.18977047266613,64.82886144060595,4.3094885236333065,1.0183293742119912,B,369,Correct
2,relearn,59,416,B,67.50814172523194,35.53290519929382,3.375407086261597,0.5581495696740202,B,558,Correct
2,relearn,59,417,B,56.22725799173141,35.499681735377145,2.811362899586571,0.557627696723183,B,3291,Incorrect
2,relearn,59,418,B,32.81473634059881,19.663176416180523,1.6407368170299406,0.30886845287656406,A,286,Incorrect
2,relearn,59,419,B,39.20392161230871,29.645914232149178,1.9601960806154355,0.4656769318033648,B,348,Correct
2,relearn,59,420,A,43.81630259465557,63.76884389333785,2.190815129732778,1.0016786575161227,B,428,Incorrect
2,relearn,59,421,A,68.44241689668142,83.8158623361061,3.422120844834071,1.3165764868470218,A,103,Correct
2,relearn,59,422,A,24.999035441416495,51.24737953972012,1.2499517720708249,0.8049919553885629,A,374,Correct
2,relearn,59,423,B,68.76686418889761,52.73384397216258,3.4383432094448807,0.8283412840924819,B,417,Correct
2,relearn,59,424,A,32.75544450034259,54.38187188209661,1.6377722250171296,0.8542284459662803,B,794,Incorrect
2,relearn,59,425,A,38.620883512975176,50.31252051214681,1.9310441756487589,0.7903072241227309,A,383,Correct
2,relearn,59,426,A,52.63891147089888,80.52995812686461,2.631945573544944,1.2649616242262576,A,488,Correct
2,relearn,59,427,B,52.99195221417022,28.86009984147161,2.649597610708511,0.4533333882191758,A,454,Correct
2,relearn,59,428,B,53.179789240358566,37.352661564986946,2.6589894620179284,0.586734235822944,A,303,Incorrect
2,relearn,59,429,A,49.7704431554197,69.1077233200326,2.488522157770985,1.0855415794426524,B,372,Incorrect
2,relearn,59,430,A,22.017137817752502,39.94559439554557,1.100856890887625,0.6274639294816179,B,259,Incorrect
2,relearn,59,431,B,49.474205214071375,29.390371597432328,2.473710260703569,0.4616628774838375,A,304,Correct
2,relearn,59,432,B,35.623303970763104,22.326474124602715,1.7811651985381554,0.3507034354520725,A,446,Incorrect
2,relearn,59,433,B,83.23738702426121,60.73276595204366,4.161869351213061,0.9539880567356434,B,357,Incorrect
2,relearn,59,434,A,10.886725568210721,34.73148510798175,0.5443362784105361,0.5455608923174938,100,55,Correct
2,relearn,59,435,A,13.350969151115251,40.90254777054292,0.6675484575557625,0.642495717945216,B,383,Incorrect
2,relearn,59,436,B,61.91241966623307,37.13653589978721,3.0956209833116537,0.5833393418127256,B,654,Correct
2,relearn,59,437,B,67.46844241767639,48.60492073200601,3.373422120883819,0.7634843094999215,B,616,Correct
2,relearn,59,438,B,67.51674381019625,34.47166938354255,3.3758371905098126,0.5414797164615672,B,420,Correct
2,relearn,59,439,B,82.10595049535549,62.94759375738788,4.105297524767774,0.9887784905468224,B,444,Correct
2,relearn,59,440,A,58.4814672560597,78.30193409918354,2.9240733628029854,1.2299639046393358,B,407,Incorrect
2,relearn,59,441,B,59.66348993637361,41.93043784367502,2.9831744968186804,0.6586417774574644,B,696,Correct
2,relearn,59,442,A,31.009484161945068,51.97494460741288,1.5504742080972533,0.8164205207469237,100,646,Incorrect
2,relearn,59,443,A,31.86274327404032,51.99991372555947,1.593137163702016,0.8168127347376035,B,450,Correct
2,relearn,59,444,B,59.34979014782375,36.62250420057025,2.9674895073911873,0.5752649507628641,B,489,Correct
2,relearn,59,445,A,61.45624132151495,78.77456083483388,3.0728120660757474,1.2373879080423815,B,736,Incorrect
2,relearn,59,446,A,59.8653790452864,79.96520116787006,2.9932689522643203,1.2560904426590525,A,890,Incorrect
2,relearn,59,447,A,34.03803347789206,56.289708634199044,1.7019016738946027,0.8841966755895484,A,555,Incorrect
2,relearn,59,448,B,43.67222262945134,36.039891785456895,2.183611131472567,0.5661132963468126,B,526,Incorrect
2,relearn,59,449,B,68.19248936973308,59.21942052675054,3.4096244684866543,0.9302164823834206,A,547,Incorrect
2,relearn,59,450,A,44.430953788035794,62.07395437136205,2.2215476894017896,0.9750553951616953,B,280,Incorrect
2,relearn,59,451,B,67.66792743232342,45.694623743111464,3.3833963716161715,0.7177694712995435,B,76,Correct
2,relearn,59,452,A,37.56004082007512,68.77145569661579,1.8780020410037563,1.0802594999658204,A,680,Correct
2,relearn,59,453,A,36.93966282437096,54.05060186926735,1.8469831412185482,0.8490248687729853,A,467,Correct
2,relearn,59,454,B,50.492870846198485,22.992725403675845,2.5246435423099243,0.36116888607097725,A,752,Correct
2,relearn,59,455,A,44.86466962517725,69.8089252789238,2.2432334812588626,1.096556034056329,A,461,Incorrect
2,relearn,59,456,B,44.4137755183446,33.9804633013249,2.22068877591723,0.5337638693650995,A,950,Correct
2,relearn,59,457,A,40.66970001705261,62.18750640788197,2.0334850008526306,0.9768390663803508,B,1132,Incorrect
2,relearn,59,458,B,76.70002680939919,48.66265695502684,3.83500134046996,0.7643912279703627,A,456,Correct
2,relearn,59,459,B,49.282039627876955,30.416142183509415,2.4641019813938474,0.47777564417127893,A,726,Correct
2,relearn,59,460,A,34.153765190682456,42.138358868962335,1.707688259534123,0.6619077932853119,B,32,Correct
2,relearn,59,461,B,57.53321191436075,35.30364626239082,2.876660595718038,0.5545483787142987,A,393,Incorrect
2,relearn,59,462,B,42.32033844451808,30.86313297193991,2.116016922225904,0.4847969590570566,B,433,Correct
2,relearn,59,463,B,64.71048593332382,51.690114205471076,3.235524296666191,0.8119464152556266,B,423,Correct
2,relearn,59,464,A,50.72515701058431,76.77429337410867,2.536257850529216,1.2059677802432365,B,464,Correct
2,relearn,59,465,A,30.25242243465859,61.13214483446227,1.5126211217329297,0.9602614855506695,B,412,Incorrect
2,relearn,59,466,B,83.91793495805638,61.88875510647628,4.195896747902819,0.9721462919116184,B,687,Incorrect
2,relearn,59,467,A,59.84688827658006,85.31748240413532,2.9923444138290027,1.3401638797180397,A,494,Correct
2,relearn,59,468,A,59.20383042403768,84.65411112246936,2.9601915212018843,1.3297436679926187,A,478,Correct
2,relearn,59,469,A,28.469515805262233,50.84303454215073,1.4234757902631117,0.7986405190191642,A,711,Incorrect
2,relearn,59,470,B,86.64916683503431,64.25610405092965,4.332458341751715,1.0093325221735099,A,1003,Correct
2,relearn,59,471,A,37.69616249100827,56.530980498247345,1.8848081245504136,0.8879865651676084,B,780,Incorrect
2,relearn,59,472,B,61.113417420315706,34.79740217029282,3.0556708710157854,0.5465963151110073,B,596,Correct
2,relearn,59,473,A,67.70291498327546,82.86075470713918,3.3851457491637733,1.3015736912942717,B,759,Correct
2,relearn,59,474,B,50.578744919599444,33.429313855021064,2.5289372459799724,0.5251064341074083,B,960,Correct
2,relearn,59,475,A,31.554121169164112,63.373548709196115,1.5777060584582057,0.9954693752836271,A,926,Incorrect
2,relearn,59,476,A,53.555488134746916,78.6867504447151,2.677774406737346,1.2360085856598517,B,446,Incorrect
2,relearn,59,477,B,66.12517291558785,52.94298266059842,3.3062586457793928,0.831626426928339,A,286,Correct
2,relearn,59,478,B,69.41330105638171,42.22213377819006,3.470665052819086,0.6632237264822367,A,538,Incorrect
2,relearn,59,479,B,75.34508465964305,48.523486923617085,3.767254232982152,0.762205150228979,B,795,Correct
2,relearn,59,480,A,52.59130530368366,62.873399762685025,2.629565265184183,0.9876130540033277,B,539,Correct
2,relearn,59,481,B,60.50286720855502,27.98010267775296,3.0251433604277507,0.43951042509558397,B,647,Correct
2,relearn,59,482,B,66.37130674414897,48.99357894240276,3.318565337207448,0.7695893383926206,B,598,Correct
2,relearn,59,483,B,72.37217533400907,58.87606776949665,3.6186087667004534,0.9248231098845274,B,383,Incorrect
2,relearn,59,484,A,48.985947630629305,56.203528095989356,2.449297381531465,0.8828429548609384,A,291,Incorrect
2,relearn,59,485,A,27.22324338477375,49.22960937234649,1.3611621692386873,0.7732968957162948,B,284,Incorrect
2,relearn,59,486,A,23.092491683873615,39.87727640191925,1.1546245841936809,0.6263907929471957,A,511,Correct
2,relearn,59,487,A,28.074889767525352,54.69593200575477,1.4037444883762678,0.8591616908526302,A,406,Incorrect
2,relearn,59,488,A,36.56572021225726,68.67665772943013,1.8282860106128629,1.078770416979392,A,598,Correct
2,relearn,59,489,B,66.64250642989788,43.240927959931874,3.332125321494894,0.6792269080666372,A,893,Incorrect
2,relearn,59,490,A,20.13688899837525,43.82737448204358,1.0068444499187625,0.6884387884945843,A,616,Incorrect
2,relearn,59,491,A,31.40592816941276,58.88479004493713,1.5702964084706381,0.9249601190667593,B,371,Incorrect
2,relearn,59,492,A,48.430330338829506,57.56222240617289,2.421516516941475,0.9041852751776729,A,556,Correct
2,relearn,59,493,A,38.925279189753525,67.56820162431868,1.9462639594876763,1.0613588291961673,A,405,Incorrect
2,relearn,59,494,B,58.66550570589463,48.624070521517474,2.933275285294732,0.7637851136901566,B,122,Incorrect
2,relearn,59,495,A,65.29972399179596,76.40544270501866,3.264986199589798,1.2001738874818124,B,368,Correct
2,relearn,59,496,A,53.829444265450036,79.6429599388044,2.691472213272502,1.2510286892694704,B,425,Correct
2,relearn,59,497,A,63.94201318542623,78.86697607528663,3.1971006592713116,1.238839563244812,B,612,Incorrect
2,relearn,59,498,A,66.01829789515722,77.59125968394106,3.300914894757861,1.2188006570292353,A,527,Correct
2,relearn,59,499,B,57.70152786071761,50.08397891805062,2.8850763930358805,0.7867173011574694,B,526,Incorrect
2,relearn,59,500,B,59.22601364172122,29.024349105673362,2.9613006820860606,0.45591340962804466,A,640,Incorrect
2,relearn,59,501,A,26.443913641158197,53.19307781331821,1.3221956820579097,0.8355549124007535,B,807,Correct
2,relearn,59,502,B,58.58498208779159,27.696147106412035,2.929249104389579,0.43505006141123126,B,1144,Correct
2,relearn,59,503,B,33.48788269010566,20.633922457563756,1.6743941345052828,0.3241168960371187,B,2035,Correct
2,relearn,59,504,A,52.25625712811273,59.65588427197182,2.612812856405636,0.9370724388611478,A,638,Correct
2,relearn,59,505,B,32.46843863664019,13.59659645001543,1.6234219318320096,0.21357483760596768,A,724,Incorrect
2,relearn,59,506,A,41.55750451407539,70.33612436245603,2.0778752257037696,1.1048372578953496,B,559,Correct
2,relearn,59,507,A,31.05927402568363,43.671572178795586,1.5529637012841815,0.685991451638103,A,773,Incorrect
2,relearn,59,508,A,54.94035106439847,79.0712870954822,2.7470175532199232,1.2420488732452817,B,441,Incorrect
2,relearn,59,509,B,50.38087370365314,24.988720054546906,2.519043685182657,0.3925218967298825,B,325,Incorrect
2,relearn,59,510,A,11.444525665774776,31.081192954345717,0.5722262832887388,0.4882222372508967,A,602,Correct
2,relearn,59,511,A,46.984610592903444,67.09288729147194,2.349230529645172,1.053892609115081,A,595,Correct
2,relearn,59,512,B,37.99436831454783,15.023602290796937,1.8997184157273914,0.2359901929361122,A,358,Incorrect
2,relearn,59,513,A,68.38587069966401,83.82941312575434,3.4192935349832005,1.316789342153068,B,507,Incorrect
2,relearn,59,514,A,13.003145755462793,31.44517777700243,0.6501572877731396,0.4939396974752793,A,530,Correct
2,relearn,59,515,A,43.980107476726545,71.83060005918907,2.1990053738363273,1.1283124272444747,A,505,Correct
2,relearn,59,516,B,58.61889440006589,51.034125256402255,2.9309447200032945,0.8016421649394733,A,426,Incorrect
2,relearn,59,517,B,50.46786138847105,26.770167885803914,2.5233930694235527,0.42050481382703486,B,347,Correct
2,relearn,59,518,B,71.77267301897453,44.33236810764108,3.588633650948726,0.6963712098160183,A,364,Incorrect
2,relearn,59,519,B,75.02621712814587,57.87667320269429,3.7513108564072932,0.9091246567390082,107,18,Incorrect
2,relearn,59,520,A,53.35010082813001,70.45923942031627,2.6675050414065002,1.1067711447019497,100,43,Correct
2,relearn,59,521,A,48.639294219668734,74.3938538643061,2.431964710983437,1.1685759238616835,A,576,Correct
2,relearn,59,522,B,66.80252526658944,41.43369826091566,3.340126263329472,0.6508390103377442,B,498,Incorrect
2,relearn,59,523,A,36.1118891402478,59.17294750144565,1.8055944570123899,0.9294864858089807,B,383,Incorrect
2,relearn,59,524,A,38.88159585249704,53.11875497008102,1.944079792624852,0.8343874519092143,B,1092,Correct
2,relearn,59,525,A,64.86874588995299,80.18457543123685,3.2434372944976495,1.2595363655299516,A,637,Incorrect
2,relearn,59,526,B,84.99077499230746,57.60719045978661,4.249538749615374,0.9048916317120681,A,91,Incorrect
2,relearn,59,527,A,52.07344090284589,73.30400872910445,2.6036720451422948,1.151456676510183,B,2580,Incorrect
2,relearn,59,528,B,50.18102187299452,29.567631687298526,2.5090510936497257,0.4644472724643291,A,348,Correct
2,relearn,59,529,B,55.424356169654146,47.86489171789398,2.7712178084827075,0.7518599609290332,B,781,Correct
2,relearn,59,530,A,27.0614036255205,53.40006356584917,1.353070181276025,0.8388062369984988,A,706,Correct
2,relearn,59,531,B,35.69884321781521,11.840744865638296,1.7849421608907605,0.18599398541460163,B,487,Correct
2,relearn,59,532,A,56.81911972703955,84.8120408816837,2.8409559863519775,1.3322244228492734,A,826,Correct
2,relearn,59,533,A,60.05949788377848,78.77060437835219,3.002974894188924,1.2373257601692964,A,561,Correct
2,relearn,59,534,A,41.31964240481159,66.94307218079652,2.0659821202405793,1.051539318859608,A,694,Correct
2,relearn,59,535,A,56.83736231284422,74.35674763771276,2.841868115642211,1.167993060617343,A,570,Correct
2,relearn,59,536,B,43.180225400540095,35.60936907359618,2.1590112700270048,0.5593506614028866,A,497,Correct
2,relearn,59,537,B,66.6923007971769,35.558330295973775,3.334615039858845,0.558548946158753,A,540,Incorrect
2,relearn,59,538,B,79.9798735584638,51.986955454125706,3.9989936779231896,0.8166091866859058,B,312,Incorrect
2,relearn,59,539,B,84.20221339155022,62.79712226299421,4.210110669577511,0.9864148898400131,A,306,Incorrect
2,relearn,59,540,A,19.390413389649854,37.61883830128943,0.9695206694824927,0.5909153302195661,B,456,Correct
2,relearn,59,541,A,34.574949642494225,61.633581463682305,1.7287474821247113,0.9681380337036619,B,571,Incorrect
2,relearn,59,542,B,70.25855987491512,46.587347028316145,3.5129279937457563,0.7317923358719814,107,436,Correct
2,relearn,59,543,A,40.55483715605218,72.7566778025251,2.0277418578026087,1.1428592224200622,A,493,Correct
2,relearn,59,544,A,61.836857871489855,72.73385746100365,3.091842893574493,1.1425007613336813,A,670,Correct
2,relearn,59,545,A,28.84221805214382,56.233479439182496,1.4421109026071912,0.8833134294596421,107,981,Correct
2,relearn,59,546,B,86.31735933805618,65.62845689354067,4.315867966902809,1.030889390215909,A,687,Correct
2,relearn,59,547,A,55.74638983038227,66.22615128828765,2.7873194915191135,1.0402779518140535,A,708,Correct
2,relearn,59,548,B,45.16617286180468,17.055434801340674,2.258308643090234,0.2679061433783577,B,526,Incorrect
2,relearn,59,549,A,54.45321843032478,66.78995725588402,2.722660921516239,1.0491341952433078,A,1473,Correct
2,relearn,59,550,A,42.83187565393271,62.22925166719334,2.141593782696636,0.9774947993802248,A,928,Correct
2,relearn,59,551,A,54.13461813237979,65.34006630997106,2.70673090661899,1.0263593615223752,B,787,Incorrect
2,relearn,59,552,B,58.502778487705015,33.148050007017034,2.925138924385251,0.5206883519143589,B,458,Correct
2,relearn,59,553,B,59.08757459674507,35.6484289556619,2.9543787298372535,0.5599642125956255,A,470,Incorrect
2,relearn,59,554,B,69.93702144606526,38.79595270170617,3.4968510723032633,0.609405399983486,B,688,Incorrect
2,relearn,59,555,A,47.12316165325809,54.514910217301605,2.3561580826629043,0.8563182072489094,107,247,Incorrect
2,relearn,59,556,B,36.173552855390966,12.380043927227597,1.8086776427695483,0.1944652752644857,A,364,Correct
2,relearn,59,557,A,60.785223456881326,77.94433637822638,3.0392611728440664,1.2243467727738384,A,873,Correct
2,relearn,59,558,A,16.478891251317304,43.64940633857431,0.8239445625658652,0.6856432714341041,B,592,Incorrect
2,relearn,59,559,A,11.114565426849545,34.24824815385793,0.5557282713424773,0.5379702239924014,B,420,Incorrect
2,relearn,59,560,A,63.1772534811399,79.80329256644279,3.158862674056995,1.253547188295068,B,655,Correct
2,relearn,59,561,B,33.84910614022503,17.120051635784012,1.6924553070112518,0.26892114224028485,B,704,Incorrect
2,relearn,59,562,B,57.790370406876015,41.35989884822218,2.8895185203438007,0.6496797718739588,B,1295,Incorrect
2,relearn,59,563,A,39.84449977539937,53.90332458008486,1.9922249887699683,0.8467114425243036,A,591,Incorrect
2,relearn,59,564,B,78.41023819824638,56.46570316719729,3.9205119099123187,0.8869611912492447,B,290,Correct
2,relearn,59,565,B,39.62104301948705,23.50773780294104,1.9810521509743524,0.36925868192117317,A,1224,Incorrect
2,relearn,59,566,B,75.7071269568773,52.41815288646039,3.785356347843865,0.8233824201142528,100,476,Incorrect
2,relearn,59,567,A,27.454321135446925,53.70686673576325,1.3727160567723462,0.8436254899219993,100,465,Incorrect
2,relearn,59,568,A,67.64117393176424,86.09001081765592,3.382058696588212,1.3522987276610683,100,128,Incorrect
2,relearn,59,569,A,49.87316988317619,71.02522525933216,2.4936584941588094,1.1156616294713908,107,41,Correct
2,relearn,59,570,A,52.32371325852034,59.42261788509942,2.616185662926017,0.9334082990245088,107,232,Correct
2,relearn,59,571,B,53.92645667124699,39.50116890851765,2.6963228335623497,0.6204829102560429,100,218,Correct
2,relearn,59,572,A,30.064401587340626,40.07733191812119,1.5032200793670314,0.6295332576472462,107,233,Correct
2,relearn,59,573,A,64.48833074646433,83.92724794006693,3.2244165373232163,1.3183261278226168,107,109,Correct
2,relearn,59,574,A,39.30210322924448,47.45112996377027,1.9651051614622241,0.7453606064935759,107,119,Correct
2,relearn,59,575,A,44.80501543259166,69.02656616415454,2.240250771629583,1.0842667658191885,100,262,Incorrect
2,relearn,59,576,B,79.3226291685794,65.62294391795778,3.9661314584289697,1.0308027925979557,100,99,Incorrect
2,relearn,59,577,A,24.44375573651287,38.081413950556176,1.2221877868256434,0.5981814515268956,107,55,Incorrect
2,relearn,59,578,A,59.96569460705667,85.62469293223293,2.9982847303528337,1.3449895314089242,100,154,Incorrect
2,relearn,59,579,B,37.0095624223967,24.565044564054492,1.850478121119835,0.38586681768769737,107,202,Correct
2,relearn,59,580,B,68.95535278147925,54.358582850847114,3.4477676390739624,0.853862622718867,107,233,Correct
2,relearn,59,581,A,26.825467197979172,43.428175205070886,1.3412733598989588,0.6821681809153055,107,92,Incorrect
2,relearn,59,582,B,70.02661548876159,42.30773876430401,3.5013307744380797,0.664568406459668,107,257,Incorrect
2,relearn,59,583,B,38.56568417387769,21.77407955500439,1.9282842086938845,0.3420264418434075,100,66,Correct
2,relearn,59,584,A,53.54081143079452,72.10427106554287,2.677040571539726,1.132611241359783,100,238,Incorrect
2,relearn,59,585,B,34.98697570359009,13.27457645866619,1.7493487851795044,0.20851655941030853,107,216,Correct
2,relearn,59,586,B,82.91314519417305,63.0995681039837,4.145657259708653,0.9911656980008202,100,169,Correct
2,relearn,59,587,A,14.122850308263121,32.94099629385076,0.7061425154131561,0.5174359597934508,100,43,Incorrect
2,relearn,59,588,A,17.629545479903594,35.84608020817045,0.8814772739951797,0.5630689112098939,B,401,Correct
2,relearn,59,589,A,53.417421972686924,82.69903137437714,2.6708710986343465,1.2990333471236752,A,350,Correct
2,relearn,59,590,B,65.01887264072434,44.16722572780691,3.250943632036217,0.6937771593796014,A,653,Incorrect
2,relearn,59,591,B,54.72971631038731,48.09341420535689,2.7364858155193654,0.755449583768001,B,259,Correct
2,relearn,59,592,B,83.73227504839403,64.01965242652273,4.186613752419702,1.005618348742679,107,760,Incorrect
2,relearn,59,593,A,35.361960923963565,43.54952725846002,1.7680980461981783,0.6840743745124321,107,504,Incorrect
2,relearn,59,594,B,80.30647957083475,65.94740759404898,4.015323978541738,1.0358994561037802,107,150,Correct
2,relearn,59,595,A,33.00566393025005,60.114825390726956,1.6502831965125027,0.9442814690967049,100,13,Correct
2,relearn,59,596,B,69.67408489166918,50.78168663471566,3.4837042445834587,0.7976768683426084,107,4,Correct
2,relearn,59,597,B,82.22754124366159,65.50996327055763,4.111377062183079,1.0290280967386052,107,133,Incorrect
2,relearn,59,598,B,60.24068306114593,39.39079751316039,3.0120341530572965,0.6187492004319388,100,32,Incorrect
2,relearn,59,599,A,41.51828395937361,63.712502414434155,2.0759141979686806,1.0007936476350414,100,9,Correct
2,relearn,59,600,B,82.85882429955028,62.194861080292384,4.142941214977514,0.9769545933044215,107,118,Correct
2,relearn,59,601,A,35.747237972528666,63.98368999456467,1.7873618986264332,1.0050534521824557,A,5178,Correct
2,relearn,59,602,B,46.86877523318186,27.288474365734118,2.3434387616590926,0.4286463529753184,B,716,Correct
2,relearn,59,603,B,32.041475719087515,18.92367701609816,1.6020737859543757,0.2972524234634,B,586,Correct
2,relearn,59,604,B,55.340470337723225,36.86592127116265,2.7670235168861614,0.5790885371665213,B,641,Correct
2,relearn,59,605,A,27.637668762516192,51.5850889014008,1.3818834381258096,0.8102966816370856,A,523,Correct
2,relearn,59,606,A,46.53042152112691,77.82427074996338,2.3265210760563457,1.2224607862953398,A,688,Correct
2,relearn,59,607,B,84.90456665926598,58.00923739957131,4.245228332963299,0.9112069702741975,A,636,Incorrect
2,relearn,59,608,B,64.78498139439378,38.88987006434771,3.2392490697196887,0.6108806504660819,B,596,Correct
2,relearn,59,609,B,52.90029295303736,34.18460125898398,2.645014647651868,0.5369704609056024,B,453,Correct
2,relearn,59,610,A,49.283630629620156,72.06076942507379,2.4641815314810076,1.1319279191891989,B,1145,Incorrect
2,relearn,59,611,B,45.06456942092295,22.683557977032702,2.253228471046148,0.35631249548962046,A,448,Incorrect
2,relearn,59,612,B,51.37091239643836,23.09758969977749,2.568545619821918,0.3628160905822613,B,1118,Correct
2,relearn,59,613,A,26.287092828256426,50.037821556098514,1.3143546414128213,0.7859922630113805,A,769,Correct
2,relearn,59,614,A,49.44462129858077,70.25009454054465,2.472231064929039,1.1034859046128176,B,1177,Incorrect
2,relearn,59,615,B,73.07875385020309,53.40388015023553,3.6539376925101545,0.8388661877658484,A,729,Incorrect
2,relearn,59,616,A,57.48583743528146,73.48635380582303,2.8742918717640733,1.15432094627737,A,850,Correct
2,relearn,59,617,B,71.25021126101487,49.97731602550692,3.562510563050744,0.78504184435934,A,856,Incorrect
2,relearn,59,618,A,43.58003243951556,60.79636709028705,2.179001621975778,0.9549871010789704,B,456,Incorrect
2,relearn,59,619,B,86.77114882233532,61.24261654403267,4.338557441116766,0.9619967711067489,A,913,Incorrect
2,relearn,59,620,B,47.591530724586555,28.456794971720043,2.3795765362293277,0.4469982901393332,B,280,Correct
2,relearn,59,621,B,66.54940506920168,40.68497359894623,3.327470253460084,0.6390780708497208,B,859,Correct
2,relearn,59,622,B,46.64962638620391,30.869090440382617,2.3324813193101956,0.48489053875252464,A,735,Incorrect
2,relearn,59,623,A,39.667332339678694,55.649740771448656,1.9833666169839348,0.8741440839087973,B,493,Incorrect
2,relearn,59,624,A,64.06659353944812,76.24740142613297,3.2033296769724062,1.1976913808782563,107,204,Correct
2,relearn,59,625,B,47.584278399896775,40.580088539828914,2.379213919994839,0.6374305401937493,107,158,Correct
2,relearn,59,626,B,56.521086758191544,42.89082108076264,2.826054337909577,0.6737274420687908,100,45,Correct
2,relearn,59,627,A,53.13812454980051,64.4194671576117,2.6569062274900257,1.0118986238526093,100,143,Correct
2,relearn,59,628,B,48.677461761613266,26.163320550232555,2.4338730880806634,0.41097247817062726,107,162,Incorrect
2,relearn,59,629,B,73.96763638543234,49.014693452765314,3.698381819271617,0.7699210043458162,100,93,Correct
2,relearn,59,630,A,38.48442857606324,55.88626629761472,1.9242214288031618,0.8778594181857462,100,8,Incorrect
2,relearn,59,631,B,40.768211855593236,20.480241153639394,2.0384105927796616,0.3217028757601043,100,173,Correct
2,relearn,59,632,B,54.8418808053352,25.058807711440256,2.74209404026676,0.39362283106989976,107,24,Correct
2,relearn,59,633,A,30.117128614833703,52.05410249973522,1.505856430741685,0.8176639300118912,A,218,Correct
2,relearn,59,634,B,40.77373826127078,26.99358538305136,2.0386869130635388,0.4240142476672149,B,384,Correct
2,relearn,59,635,B,37.62072555558527,24.88942205638977,1.8810362777792633,0.39096212742224934,107,354,Correct
2,relearn,59,636,A,54.74308680485219,66.11567986602658,2.7371543402426095,1.0385426707710186,A,391,Correct
2,relearn,59,637,B,48.67456616118694,27.478463598557887,2.433728308059347,0.43163069686582,B,43,Correct
2,relearn,59,638,A,35.32493479427562,51.49569729928769,1.766246739713781,0.8088925216346297,A,483,Correct
2,relearn,59,639,A,40.17115916821111,50.561689690860234,2.0085579584105555,0.7942211644294666,B,422,Incorrect
2,relearn,59,640,A,18.41952005560535,46.575659676541264,0.9209760027802675,0.7316087513796019,A,564,Correct
2,relearn,59,641,B,69.90571410107901,51.81165575213165,3.4952857050539508,0.8138555854061007,B,684,Correct
2,relearn,59,642,A,46.65852066708768,77.95291109005458,2.332926033354384,1.224481464032269,A,355,Correct
2,relearn,59,643,A,39.33640863296733,70.94600841672202,1.9668204316483664,1.1144172942174677,A,598,Correct
2,relearn,59,644,B,46.52584965309434,17.55158738493655,2.3262924826547167,0.2756996899367798,B,634,Correct
2,relearn,59,645,A,36.32861887635621,45.47009565375398,1.8164309438178106,0.7142425923192934,B,1031,Incorrect
2,relearn,59,646,A,51.68668814872103,61.53336235499251,2.5843344074360517,0.9665637956256159,100,125,Incorrect
2,relearn,59,647,B,69.02616781383696,59.23146239187833,3.4513083906918482,0.9304056355585254,107,31,Correct
2,relearn,59,648,A,25.751286333332907,49.6850226260976,1.2875643166666453,0.7804505103779543,A,448,Correct
2,relearn,59,649,A,44.92241709369194,68.63701281665462,2.2461208546845968,1.0781476761457531,A,854,Correct
2,relearn,59,650,B,88.72006886326061,66.75450057135346,4.43600344316303,1.0485772429450984,B,595,Correct
2,relearn,59,651,B,75.6760604608049,49.68856359330552,3.7838030230402455,0.7805061317607894,B,503,Correct
2,relearn,59,652,A,61.265597052095316,83.09200463907452,3.0632798526047655,1.3052061567308277,B,452,Incorrect
2,relearn,59,653,A,43.64623899865098,65.11156753711286,2.182311949932549,1.022770111191547,B,788,Incorrect
2,relearn,59,654,B,51.961050695085234,38.70478851858512,2.598052534754262,0.607973396343668,A,446,Incorrect
2,relearn,59,655,B,53.25862358091754,42.196304802654375,2.6629311790458767,0.6628180058832734,B,327,Correct
2,relearn,59,656,A,31.737096820210446,52.034889874102824,1.5868548410105223,0.8173621387941767,A,828,Correct
2,relearn,59,657,B,45.41642836824059,31.08548549924916,2.2708214184120292,0.4882896643885661,B,1406,Correct
2,relearn,59,658,A,50.432367113753635,74.57432651395351,2.5216183556876817,1.1714107816132144,A,792,Correct
2,relearn,59,659,B,82.12188212891003,62.8375630868672,4.106094106445502,0.9870501328159358,B,648,Correct
2,relearn,59,660,B,71.99123118904461,62.517788492287636,3.5995615594522303,0.9820271252302567,B,514,Correct
2,relearn,59,661,B,65.99360285577565,49.58428929525971,3.299680142788782,0.7788681949172946,B,378,Correct
2,relearn,59,662,B,71.51359047487047,55.84598809549949,3.5756795237435233,0.8772267296664213,B,324,Correct
2,relearn,59,663,A,49.86871997665777,78.75813191687018,2.4934359988328882,1.237129843202476,A,638,Correct
2,relearn,59,664,A,46.21090229759797,62.60793187468544,2.3105451148798983,0.98344309416981,B,432,Incorrect
2,relearn,59,665,B,51.90523152113173,26.394888369841617,2.5952615760565867,0.41460993697508547,A,361,Incorrect
2,relearn,59,666,B,38.985623761604586,28.189989537719168,1.9492811880802292,0.44280732018235835,B,275,Correct
2,relearn,59,667,A,66.78519640458883,87.95059200854496,3.3392598202294415,1.3815246686645901,A,887,Correct
2,relearn,59,668,A,38.872786967360646,52.2567219944149,1.9436393483680323,0.8208466695916902,B,501,Incorrect
2,relearn,59,669,A,35.42643098399447,48.90493088919758,1.7713215491997234,0.7681968580290983,A,421,Correct
2,relearn,59,670,B,75.04274687461256,48.60483559392529,3.7521373437306282,0.7634829721540768,B,450,Correct
2,relearn,59,671,B,68.69578548773934,44.830789700951705,3.434789274386967,0.7042003978956941,A,401,Incorrect
2,relearn,59,672,A,51.67475935787847,80.80966881250689,2.583737967893924,1.2693553094019792,B,800,Incorrect
2,relearn,59,673,B,40.608573753913944,27.44446172275706,2.0304286876956974,0.4310965966496993,B,353,Correct
2,relearn,59,674,B,83.34680829197092,54.60671753619584,4.167340414598545,0.857760313241829,A,500,Incorrect
2,relearn,59,675,A,33.717969719427195,53.508764754933836,1.68589848597136,0.8405137112838228,B,502,Incorrect
2,relearn,59,676,A,46.20112557296076,72.8734173842299,2.3100562786480383,1.1446929634813967,B,433,Incorrect
2,relearn,59,677,A,64.31893147426408,87.12591863661635,3.2159465737132042,1.36857072963028,A,787,Correct
2,relearn,59,678,B,54.525199600076455,26.434830319804625,2.7262599800038227,0.4152373436579547,B,716,Correct
2,relearn,59,679,B,60.22466130841404,33.9777557124518,3.0112330654207025,0.5337213386585361,B,543,Correct
2,relearn,59,680,B,48.815016085653816,21.851391489067318,2.4407508042826906,0.34324085486384204,B,425,Correct
2,relearn,59,681,B,83.4421524731235,64.51088787616192,4.172107623656175,1.0133346571415256,A,575,Incorrect
2,relearn,59,682,A,17.620923714324555,42.821546661569755,0.8810461857162278,0.6726392820367003,A,730,Correct
2,relearn,59,683,A,25.818543171205533,46.91838744283419,1.2909271585602766,0.7369923065434375,A,637,Correct
2,relearn,59,684,B,56.5115348801892,38.69629021232458,2.8255767440094597,0.6078399052610876,B,523,Correct
2,relearn,59,685,B,36.437553025814424,12.84792183114617,1.821877651290721,0.20181468419312365,B,484,Correct
2,relearn,59,686,B,42.386774146980414,27.04136158470027,2.119338707349021,0.4247647144877981,B,552,Correct
2,relearn,59,687,A,48.29548946892803,69.80461577169045,2.4147744734464016,1.0964883404750045,A,529,Correct
2,relearn,59,688,A,53.30244304962548,65.33843774858269,2.665122152481274,1.026333780139907,A,663,Correct
2,relearn,59,689,A,21.319501072092635,52.52997288349401,1.0659750536046317,0.8251388845202793,A,741,Correct
2,relearn,59,690,A,40.07015879690358,72.71217251169864,2.003507939845179,1.1421601349465305,A,1020,Correct
2,relearn,59,691,B,43.90698037013317,20.894354685026048,2.1953490185066586,0.3282077558998866,B,553,Correct
2,relearn,59,692,B,89.43949832381836,68.27942623404233,4.471974916190918,1.0725307192409679,107,775,Correct
2,relearn,59,693,A,60.43889502016611,87.10142332080926,3.0219447510083053,1.3681859581093452,B,792,Incorrect
2,relearn,59,694,A,41.510315711411735,69.45962757798537,2.075515785570587,1.091069278600409,A,1021,Correct
2,relearn,59,695,B,35.79637441377512,24.331030633378028,1.789818720688756,0.3821909354604431,B,886,Correct
2,relearn,59,696,A,11.348190225710095,37.29657219896245,0.5674095112855048,0.5858531861217087,A,707,Correct
2,relearn,59,697,A,45.189007781389876,69.73049049218301,2.2594503890694937,1.0953239833072754,A,922,Correct
2,relearn,59,698,B,72.90823617529813,61.698873268243815,3.645411808764907,0.9691636349714122,A,616,Incorrect
2,relearn,59,699,A,49.48763234927757,64.13812510832095,2.4743816174638784,1.0074793132766209,B,1238,Incorrect
2,relearn,59,700,B,52.45305989293955,44.40968312380965,2.6226529946469777,0.697585671250055,A,419,Incorrect
2,relearn,59,701,B,57.28906562593466,47.82046827004864,2.864453281296733,0.7511621590420431,B,450,Correct
2,relearn,59,702,B,84.4804910395,66.15486630136834,4.224024551975,1.0391582098579688,A,569,Incorrect
2,relearn,59,703,A,29.9233180941646,47.02169544825394,1.4961659047082299,0.738615064897856,A,621,Correct
2,relearn,59,704,A,38.22006339465813,61.45855935169569,1.9110031697329066,0.9653887927974973,A,639,Correct
2,relearn,59,705,B,59.75213960127137,43.593765338578436,2.9876069800635685,0.6847692646499769,B,578,Correct
2,relearn,59,706,B,66.13877919662816,56.90667574496979,3.306938959831408,0.8938879723030677,107,759,Correct
2,relearn,59,707,A,58.438174948283304,78.6868292496957,2.921908747414165,1.2360098235255923,B,661,Incorrect
2,relearn,59,708,B,36.38703106297865,16.43220115539072,1.8193515531489326,0.25811641216042597,A,736,Incorrect
2,relearn,59,709,B,64.64971659079998,42.58473786970386,3.232485829539999,0.6689194982325435,A,844,Incorrect
2,relearn,59,710,A,26.746272496217323,46.08339438851398,1.3373136248108661,0.7238762663171829,A,692,Correct
2,relearn,59,711,B,68.36079378893683,42.2159160989963,3.4180396894468412,0.6631260594058492,A,2503,Incorrect
2,relearn,59,712,A,37.093488332568114,60.415187394774726,1.8546744166284057,0.9489995444233746,A,720,Correct
2,relearn,59,713,B,67.80376838836696,43.29335716540123,3.3901884194183483,0.6800504641003177,B,805,Correct
2,relearn,59,714,A,62.97989718909657,79.56675393686098,3.1489948594548287,1.249831648190146,A,1036,Correct
2,relearn,59,715,B,55.39235805072829,46.92754696566821,2.7696179025364143,0.7371361839916662,B,862,Correct
2,relearn,59,716,B,78.69201941302558,50.381810723547055,3.934600970651279,0.7913956322182345,B,1234,Correct
2,relearn,59,717,A,45.33950530217859,75.38853521672321,2.2669752651089294,1.1842003420087652,A,1470,Correct
2,relearn,59,718,A,67.9654916622936,87.77290785881982,3.3982745831146803,1.3787336125674108,A,693,Correct
2,relearn,59,719,B,68.89834012234577,39.351010074263506,3.4449170061172882,0.6181242208032209,B,718,Correct
2,relearn,59,720,B,69.99952569964769,42.295749607064934,3.4999762849823846,0.6643800812181428,B,497,Correct
2,relearn,59,721,B,70.34218829563972,47.90287589110396,3.517109414781986,0.752456614926579,B,555,Correct
2,relearn,59,722,B,80.21494752093821,57.49594387259048,4.01074737604691,0.9031441744067067,B,857,Correct
2,relearn,59,723,B,83.61426862070297,55.88904506891262,4.180713431035149,0.8779030670232237,B,549,Correct
2,relearn,59,724,A,60.461183620623586,72.09625457859617,3.0230591810311798,1.1324853186772863,B,547,Incorrect
2,relearn,59,725,A,42.39051795797086,72.77294646662477,2.119525897898543,1.1431147699981583,A,452,Correct
2,relearn,59,726,A,53.74658923647916,78.49134539695889,2.687329461823958,1.2329391703473251,A,628,Correct
2,relearn,59,727,A,20.58465173864999,46.4757796067672,1.0292325869324994,0.7300398389123907,A,649,Correct
2,relearn,59,728,B,66.23834652886885,58.13527055184397,3.3119173264434427,0.9131866944006403,A,562,Incorrect
2,relearn,59,729,A,25.353799111908522,39.54854390664546,1.2676899555954262,0.6212270749864538,A,594,Correct
2,relearn,59,730,A,39.1666419111733,48.65828972810287,1.9583320955586652,0.7643226277302584,A,536,Correct
2,relearn,59,731,A,68.93189684738437,82.87793801402185,3.446594842369218,1.3018436060476064,A,584,Correct
2,relearn,59,732,A,28.338963442519614,54.58587642035305,1.416948172125981,0.8574329417597072,A,552,Correct
2,relearn,59,733,A,43.65500652755011,72.49704523624169,2.1827503263775054,1.1387809236057191,A,484,Correct
2,relearn,59,734,A,56.54923919684278,77.99291732072572,2.827461959842139,1.2251098804341403,A,527,Correct
2,relearn,59,735,A,41.98096098649646,54.40770610753135,2.099048049324823,0.854634249030465,B,788,Incorrect
2,relearn,59,736,A,45.408170477427184,70.95710958410592,2.270408523871359,1.1145916709469654,A,693,Correct
2,relearn,59,737,A,49.816568295567706,67.84992229945047,2.4908284147783855,1.0657840872129596,A,563,Correct
2,relearn,59,738,B,65.0087389190296,33.30943940556645,3.25043694595148,0.5232234506586095,B,724,Correct
2,relearn,59,739,A,54.68192676569447,65.80501005728046,2.7340963382847234,1.0336626808267737,A,638,Correct
2,relearn,59,740,A,38.32238960473723,48.54054615395887,1.9161194802368615,0.7624731159925675,A,661,Correct
2,relearn,59,741,B,62.766347426746,51.785284744085516,3.1383173713373003,0.8134413505803733,B,880,Correct
2,relearn,59,742,A,29.165512232285344,44.09632594221308,1.4582756116142672,0.6926634681517881,A,658,Correct
2,relearn,59,743,B,36.18026915452984,26.35420640496558,1.809013457726492,0.4139709061651447,A,1835,Incorrect
2,relearn,59,744,B,37.652335086984024,15.254493978186517,1.8826167543492012,0.2396170310805025,B,546,Correct
2,relearn,59,745,B,55.48437213899843,35.67368004532495,2.7742186069499217,0.5603608557845282,B,418,Correct
2,relearn,59,746,A,10.859877616787724,35.3374608203972,0.5429938808393863,0.5550795365493848,A,600,Correct
2,relearn,59,747,A,25.682696080860566,38.44632601136178,1.2841348040430285,0.6039134767740618,100,606,Correct
2,relearn,59,748,B,67.63575525295299,51.52384096963703,3.3817877626476496,0.8093346013747025,B,859,Correct
2,relearn,59,749,B,44.10730755311349,23.01179021755273,2.2053653776556748,0.36146835546706557,107,779,Incorrect
2,relearn,59,750,A,66.4191918539787,87.9957677636866,3.320959592698935,1.382234287766957,A,1306,Correct
2,relearn,59,751,B,51.12744572479977,24.28400071419102,2.5563722862399887,0.381452191217359,A,1082,Incorrect
2,relearn,59,752,A,53.213756448489654,60.292050801995856,2.6606878224244825,0.947065319347064,B,425,Incorrect
2,relearn,59,753,B,54.644697954179605,42.731819231757285,2.73223489770898,0.6712298468650786,B,764,Correct
2,relearn,59,754,A,30.44657523092421,60.801045110040164,1.5223287615462107,0.9550605832414191,A,861,Correct
2,relearn,59,755,A,60.53436808602112,86.85154671890089,3.026718404301056,1.3642609056250488,A,1501,Correct
2,relearn,59,756,B,63.72152907347425,30.952904701983588,3.1860764536737127,0.486207090095083,B,603,Correct
2,relearn,59,757,B,86.15921624362277,62.36532458644518,4.307960812181139,0.9796322277975954,A,994,Incorrect
2,relearn,59,758,B,82.17465827792776,63.563371445661446,4.108732913896388,0.998451103855446,A,629,Incorrect
2,relearn,59,759,B,32.62056213023671,17.13396112035766,1.6310281065118357,0.26913963191304385,A,583,Incorrect
2,relearn,59,760,A,33.073099997182794,56.73453207803067,1.6536549998591397,0.891183945905978,B,1294,Incorrect
2,relearn,59,761,B,64.86425483149479,57.08441486678281,3.2432127415747396,0.8966798918997841,A,810,Incorrect
2,relearn,59,762,B,78.74362728024303,66.7115910097984,3.9371813640121514,1.0479032211283477,B,611,Correct
2,relearn,59,763,B,86.62942877141275,60.21266803892577,4.331471438570637,0.9458183778206507,B,643,Correct
2,relearn,59,764,A,39.700947480228955,69.55877309435273,1.9850473740114478,1.0926266527296895,A,685,Correct
2,relearn,59,765,B,64.75511153038445,37.09986488044841,3.2377555765192225,0.5827633147879534,B,485,Correct
2,relearn,59,766,A,41.270700128171335,56.719278880225616,2.063535006408567,0.8909443492351377,A,633,Correct
2,relearn,59,767,B,73.40396528140182,58.6688912231205,3.670198264070091,0.9215687883040703,B,472,Correct
2,relearn,59,768,B,46.098988319637726,20.59271645583888,2.3049494159818864,0.32346963367560533,B,529,Correct
2,relearn,59,769,A,45.535948091834584,73.77135645204517,2.276797404591729,1.1587977573754953,A,593,Correct
2,relearn,59,770,A,33.32460721216023,62.704668471314946,1.6662303606080116,0.9849626290763328,A,537,Correct
2,relearn,59,771,A,38.4249012150014,71.47092089129563,1.92124506075007,1.1226626000869582,B,574,Incorrect
2,relearn,59,772,B,32.81112282336598,18.027492682999853,1.6405561411682987,0.28317519287778037,B,643,Correct
2,relearn,59,773,A,23.814878123505284,42.47397760191019,1.1907439061752643,0.6671796800144923,A,707,Correct
2,relearn,59,774,B,57.75341892124237,34.77003268681805,2.8876709460621184,0.5461663962699228,B,548,Correct
2,relearn,59,775,A,45.57461882718008,52.83053935348237,2.278730941359004,0.8298601715904333,A,584,Correct
2,relearn,59,776,A,20.8925839788532,38.34973776417749,1.04462919894266,0.6023962721351753,A,617,Correct
2,relearn,59,777,B,82.77591838366719,57.8779977208937,4.13879591918336,0.9091454622222321,B,865,Correct
2,relearn,59,778,A,43.47698133128496,66.94684901849953,2.173849066564248,1.051598645287516,A,569,Correct
2,relearn,59,779,A,62.78338983469506,84.43298497955537,3.1391694917347532,1.3262702266621424,B,667,Incorrect
2,relearn,59,780,A,63.12358742661217,81.44399182241168,3.1561793713306083,1.2793192319415783,A,435,Correct
2,relearn,59,781,B,53.14912179658766,46.3698353968925,2.657456089829383,0.7283756711552272,B,598,Correct
2,relearn,59,782,A,27.6381221196598,59.87938799134595,1.38190610598299,0.9405832270753265,A,591,Correct
2,relearn,59,783,A,42.238786284471004,66.03625799305297,2.1119393142235503,1.0372951149076775,A,717,Correct
2,relearn,59,784,A,51.77172604779875,61.99637032600307,2.588586302389938,0.9738367078270175,A,600,Correct
2,relearn,59,785,B,48.49458793388618,18.379359012217602,2.424729396694309,0.28870229625236093,A,598,Incorrect
2,relearn,59,786,A,42.95836190719906,54.8139602731782,2.147918095359953,0.861015674541897,B,323,Incorrect
2,relearn,59,787,A,36.01468560765887,53.303723571351284,1.8007342803829434,0.8372929319036914,A,321,Correct
2,relearn,59,788,B,55.505455706343895,42.108687709266235,2.775272785317195,0.661441719798688,B,523,Correct
2,relearn,59,789,A,45.124118817521065,73.66531242711484,2.256205940876053,1.1571320217271046,A,508,Correct
2,relearn,59,790,B,80.30085986512226,54.14145241125091,4.015042993256113,0.8504519457493364,B,497,Correct
2,relearn,59,791,B,31.677568969735784,17.461885441105718,1.5838784484867892,0.2742906550980214,A,645,Incorrect
2,relearn,59,792,B,65.0185810807628,52.58161893654362,3.2509290540381404,0.825950138824517,100,671,Incorrect
2,relearn,59,793,B,43.764469345763985,23.872706206752976,2.188223467288199,0.374991592202213,107,11,Correct
2,relearn,59,794,B,40.84168593933374,21.740615549208854,2.042084296966687,0.3415007904695728,107,94,Incorrect
2,relearn,59,795,A,50.0167919974198,81.19919913480784,2.5008395998709902,1.275474037396435,100,32,Correct
2,relearn,59,796,B,78.20094688148106,53.6993871915016,3.910047344074053,0.8435080015154764,107,123,Incorrect
2,relearn,59,797,A,32.886414679009306,51.3609863416227,1.6443207339504653,0.8067764868598378,107,159,Incorrect
2,relearn,59,798,B,34.18352310478123,10.467400484683605,1.7091761552390614,0.16442154232432124,100,10,Correct
2,relearn,59,799,B,34.65837442294851,18.644953847551765,1.7329187211474255,0.2928742501699469,B,469,Correct
2,relearn,59,800,A,40.507361861486174,69.15532402646272,2.0253680930743085,1.086289289590785,A,615,Correct
2,relearn,59,801,B,45.57558966044066,25.13631558652368,2.278779483022033,0.39484032192468693,B,454,Correct
2,relearn,59,802,A,41.32517199209441,68.8445756930409,2.0662585996047205,1.0814080661838186,A,452,Correct
2,relearn,59,803,A,64.3848723939074,77.45530438440497,3.21924361969537,1.2166650761780398,A,816,Correct
2,relearn,59,804,B,62.59694689656713,44.74600883604712,3.129847344828357,0.7028686631839479,A,524,Incorrect
2,relearn,59,805,B,79.02397829945379,54.93666124768377,3.9511989149726894,0.8629430569423722,B,462,Correct
2,relearn,59,806,B,75.25948552461385,54.939300911870966,3.762974276230693,0.8629845206904642,B,446,Correct
2,relearn,59,807,B,66.08536253374693,41.41304759770923,3.304268126687347,0.6505146304786389,A,818,Incorrect
2,relearn,59,808,A,28.230095746529393,48.11632137458433,1.4115047873264697,0.7558094087407983,A,612,Correct
2,relearn,59,809,B,55.361642397426735,40.50751744983778,2.768082119871337,0.6362905961778536,B,467,Correct
2,relearn,59,810,A,49.47635676831026,65.3278960748585,2.473817838415513,1.0261681919162648,A,460,Correct
2,relearn,59,811,A,46.1535127369137,57.65226496544343,2.3076756368456848,0.9055996603912463,B,423,Incorrect
2,relearn,59,812,B,66.85795943022256,43.303074175738615,3.3428979715111278,0.6802030985417715,B,457,Correct
2,relearn,59,813,A,54.1949874386257,67.19154422023702,2.7097493719312853,1.0554423085282516,A,315,Correct
2,relearn,59,814,A,19.804015086683172,33.22551654344023,0.9902007543341586,0.5219051934229898,B,250,Incorrect
2,relearn,59,815,A,19.00733357609128,44.364721968488794,0.950366678804564,0.6968794230737906,A,318,Correct
2,relearn,59,816,B,70.16268551142915,56.429922991998765,3.508134275571457,0.8863991575715053,107,398,Incorrect
2,relearn,59,817,B,61.44912249713156,52.46284208622181,3.0724561248565783,0.8240843964225794,107,77,Correct
2,relearn,59,818,A,53.40502162464331,83.20174153118967,2.670251081232166,1.3069298998013112,100,195,Incorrect
2,relearn,59,819,A,44.60868634784063,54.48900591068866,2.2304343173920316,0.8559113033521516,A,326,Correct
2,relearn,59,820,B,81.71347173611075,51.509801190625566,4.085673586805537,0.8091140650417004,B,655,Correct
2,relearn,59,821,A,58.33732107743201,72.06228253132996,2.9168660538716007,1.1319516870066915,B,436,Incorrect
2,relearn,59,822,A,15.013951606917242,34.8021613201505,0.7506975803458622,0.5466710716621583,A,653,Correct
2,relearn,59,823,A,40.89352434126844,55.22701537756364,2.044676217063422,0.8675039289492221,A,1286,Correct
2,relearn,59,824,A,28.090547025979646,58.10781357265842,1.4045273512989822,0.9127554011801449,A,719,Correct
2,relearn,59,825,A,53.17518255136431,67.83452992422139,2.6587591275682154,1.0655423043482544,B,1590,Incorrect
2,relearn,59,826,A,58.99950673281789,78.60502279062348,2.949975336640895,1.234724810671405,B,824,Incorrect
2,relearn,59,827,B,39.586729733246145,29.608455050340226,1.9793364866623073,0.4650885243514623,107,629,Incorrect
2,relearn,59,828,B,43.70807431163265,23.23425240479945,2.1854037155816326,0.36496278333284465,B,612,Correct
2,relearn,59,829,A,38.18003100831999,53.302628149235254,1.9090015504159996,0.8372757250533299,A,1057,Correct
2,relearn,59,830,A,55.60379236829938,72.56273714258799,2.780189618414969,1.1398128096576083,A,433,Correct
2,relearn,59,831,B,56.03141207576336,38.17962706369838,2.8015706037881682,0.5997241795005644,A,1050,Incorrect
2,relearn,59,832,B,80.01468728338871,56.9660928423359,4.0007343641694355,0.8948212938859829,B,531,Correct
2,relearn,59,833,A,28.900010480064065,62.026859038658614,1.4450005240032033,0.9743156234054977,A,692,Correct
2,relearn,59,834,A,26.399156552921383,36.344060991332675,1.3199578276460693,0.5708911750599506,A,625,Correct
2,relearn,59,835,B,44.6326465310895,15.72314941743305,2.231632326554475,0.2469786535055115,B,678,Correct
2,relearn,59,836,A,45.86716652641007,65.12911119694175,2.2933583263205035,1.0230456863557247,B,459,Incorrect
2,relearn,59,837,B,77.2564531852343,59.57049014810443,3.8628226592617154,0.9357310711001402,A,390,Incorrect
2,relearn,59,838,B,64.46098819730437,52.97291012160943,3.2230494098652183,0.832096526386603,107,360,Correct
2,relearn,59,839,B,71.04848296118857,41.64965863745772,3.5524241480594285,0.6542313079997992,B,226,Correct
2,relearn,59,840,A,47.45935190214766,58.62567570617787,2.372967595107383,0.9208899605513301,B,402,Incorrect
2,relearn,59,841,A,49.32515444962135,65.87438689197934,2.4662577224810676,1.0347524495978702,A,409,Correct
2,relearn,59,842,A,47.63441457106204,57.43940135032814,2.381720728553102,0.9022560065439327,B,500,Incorrect
2,relearn,59,843,A,51.243533639553604,64.49539703573741,2.5621766819776806,1.013091327589148,A,338,Correct
2,relearn,59,844,A,23.49664297525822,50.47759786596383,1.174832148762911,0.792900253132859,A,1269,Correct
2,relearn,59,845,B,62.19299201667901,43.714805194004924,3.1096496008339507,0.6866705542529741,B,640,Correct
2,relearn,59,846,A,32.22529016348206,55.6164370840857,1.6112645081741028,0.873620950811013,A,613,Correct
2,relearn,59,847,B,76.82706044613039,52.40539247657797,3.8413530223065195,0.8231819800645357,B,732,Correct
2,relearn,59,848,B,67.80285108510975,56.445146336842065,3.3901425542554877,0.8866382853131193,B,731,Correct
2,relearn,59,849,B,50.99200084572724,22.380069866751686,2.549600042286362,0.351545315401067,B,532,Correct
2,relearn,59,850,A,44.9848366350257,61.567544188591874,2.2492418317512852,0.9671007226122258,B,502,Incorrect
2,relearn,59,851,A,33.21020665013706,55.85354144786861,1.6605103325068529,0.8773453774479852,A,472,Correct
2,relearn,59,852,B,67.06137166873955,36.40029783547724,3.3530685834369773,0.5717745413420787,B,552,Correct
2,relearn,59,853,A,60.242816487607186,84.70863473836782,3.012140824380359,1.3306001229483873,A,587,Correct
2,relearn,59,854,B,83.95378588283913,54.18505795733926,4.197689294141957,0.8511369000655709,B,658,Correct
2,relearn,59,855,A,63.36714167141847,77.54346675703346,3.1683570835709234,1.2180499274889034,A,587,Correct
2,relearn,59,856,B,45.21873212573376,28.277709943892944,2.260936606286688,0.44418522910038555,B,606,Correct
2,relearn,59,857,A,54.85430458773941,68.27182834330259,2.7427152293869703,1.072411371852314,B,1006,Incorrect
2,relearn,59,858,B,74.3709411165551,47.23811213397658,3.7185470558277554,0.7420145302477583,A,544,Incorrect
2,relearn,59,859,A,58.954854146885744,81.05745485151914,2.9477427073442874,1.2732475234010943,B,396,Incorrect
2,relearn,59,860,B,63.207322451031544,51.3131675032589,3.160366122551577,0.8060253503033034,B,565,Correct
2,relearn,59,861,B,32.53641467375867,12.967686633933315,1.6268207336879335,0.2036959453160973,A,686,Incorrect
2,relearn,59,862,A,45.10018789533359,67.68473927754347,2.2550093947666796,1.0631893983723555,A,2011,Correct
2,relearn,59,863,A,48.84904114589011,62.42055996497376,2.4424520572945054,0.9804998630946137,A,634,Correct
2,relearn,59,864,A,16.45758808910378,38.714718512973484,0.822879404455189,0.6081293763307712,B,847,Incorrect
2,relearn,59,865,A,20.704203966569043,52.211857871100655,1.035210198328452,0.8201419455906213,A,545,Correct
2,relearn,59,866,A,52.66391996519989,62.27875903499947,2.6331959982599944,0.9782724592952166,B,751,Incorrect
2,relearn,59,867,B,52.1012951451378,22.157286194737217,2.6050647572568897,0.34804583766436487,B,760,Correct
2,relearn,59,868,A,66.33517742166545,78.19549185248749,3.3167588710832723,1.2282919137380761,A,590,Correct
2,relearn,59,869,B,67.36634368287866,58.42917832448853,3.368317184143933,0.9178033868975058,A,501,Incorrect
2,relearn,59,870,A,51.90161939690327,75.78928097236309,2.595080969845163,1.1904952416181431,A,1266,Correct
2,relearn,59,871,B,78.44192064466718,59.87350609389769,3.922096032233359,0.9404908344462635,B,812,Correct
2,relearn,59,872,B,44.39064660380838,29.855409073442907,2.2195323301904186,0.46896766907523146,B,667,Correct
2,relearn,59,873,A,65.10695761815063,85.15055530783924,3.255347880907532,1.3375417950209956,B,643,Incorrect
2,relearn,59,874,A,62.455056861022896,76.86835490549174,3.122752843051145,1.207445295323129,A,638,Correct
2,relearn,59,875,A,49.731101733372235,79.11807008058537,2.486555086668612,1.2427837386568472,107,1255,Incorrect
2,relearn,59,876,A,32.39360016004106,50.82454967305742,1.6196800080020528,0.7983501593744335,A,807,Correct
2,relearn,59,877,B,60.22413097237336,31.80654064097471,3.011206548618668,0.49961597206895664,B,619,Correct
2,relearn,59,878,A,48.850169538456804,76.40087771196963,2.4425084769228405,1.2001021807386798,A,794,Correct
2,relearn,59,879,A,30.927943292500565,48.470258000381975,1.5463971646250283,0.7613690322580094,A,657,Correct
2,relearn,59,880,B,65.67209185807198,35.519660001550974,3.283604592903599,0.5579415145943988,B,623,Correct
2,relearn,59,881,A,46.42415745055736,70.3314318045613,2.321207872527868,1.1047635473683064,A,639,Correct
2,relearn,59,882,B,43.10680661431775,27.945844898434707,2.1553403307158874,0.43897230515641134,107,546,Correct
2,relearn,59,883,B,51.14420823947438,43.56527052431638,2.557210411973719,0.6843216691542214,A,660,Incorrect
2,relearn,59,884,B,81.76178393888728,66.8191953070151,4.088089196944364,1.049593465476501,A,426,Incorrect
2,relearn,59,885,B,47.37120617531588,20.876646824887192,2.3685603087657943,0.3279296014832714,A,706,Incorrect
2,relearn,59,886,A,48.787205947986216,56.78631887866729,2.4393602973993107,0.8919974110681426,B,569,Incorrect
2,relearn,59,887,B,34.614327439765404,14.59375536992189,1.7307163719882703,0.22923817329216603,B,694,Correct
2,relearn,59,888,B,59.0221880674386,52.067495635516096,2.95110940337193,0.8178743088967798,B,957,Correct
2,relearn,59,889,B,47.314857793904366,35.5117428606832,2.3657428896952184,0.5578171524364607,B,548,Correct
2,relearn,59,890,B,42.12197078767136,23.757421046595898,2.106098539383568,0.37318069714112606,B,496,Correct
2,relearn,59,891,B,78.48233290169048,52.45167416086075,3.924116645084524,0.8239089710612284,B,510,Correct
2,relearn,59,892,A,66.32718277485546,78.44719989279547,3.316359138742773,1.2322457343894813,B,773,Incorrect
2,relearn,59,893,A,16.322643160357977,37.88237642352941,0.816132158017899,0.595054977363416,A,567,Correct
2,relearn,59,894,A,38.53653849716633,59.243418669484015,1.9268269248583167,0.9305934443279769,A,925,Correct
2,relearn,59,895,B,60.05394279645125,31.244015660271707,3.0026971398225624,0.49077985033477023,B,853,Correct
2,relearn,59,896,B,65.95943298537651,55.37105042809831,3.2979716492688254,0.869766426232318,B,847,Correct
2,relearn,59,897,B,72.05830045899529,53.41766690223383,3.6029150229497646,0.8390827495598221,B,631,Correct
2,relearn,59,898,A,61.3328981621207,85.67595620401002,3.0666449081060354,1.3457947729989936,A,760,Correct
