experiment,condition,subject,trial,cat,x,y,xt,yt,resp,rt,fb
2,new_learn,66,0,B,66.08694992535843,34.048420116610295,3.3043474962679213,0.5348313325234092,B,1115,Correct
2,new_learn,66,1,B,43.00847475772903,29.474946966583268,2.1504237378864515,0.46299138427583375,B,733,Correct
2,new_learn,66,2,B,55.31515208991591,46.06984597237426,2.7657576044957954,0.7236634482941215,B,513,Correct
2,new_learn,66,3,A,47.285350884968906,54.697556279956274,2.3642675442484453,0.8591872048921243,B,488,Incorrect
2,new_learn,66,4,A,48.22782588852846,67.92929885346443,2.411391294426423,1.067030931207747,B,937,Incorrect
2,new_learn,66,5,B,51.12945784089019,19.828195358342796,2.5564728920445092,0.3114605643585649,B,1044,Correct
2,new_learn,66,6,B,53.91839071855665,24.774926750305113,2.6959195359278327,0.38916363935991893,B,587,Correct
2,new_learn,66,7,B,32.49295256415296,15.238275606313518,1.624647628207648,0.23936227349085548,A,1020,Incorrect
2,new_learn,66,8,B,67.9964722378531,41.018773193057996,3.399823611892655,0.6443213826128847,B,1646,Correct
2,new_learn,66,9,B,69.8661314941032,48.98895902448202,3.4933065747051604,0.7695167688916205,B,687,Correct
2,new_learn,66,10,B,62.381908568627246,53.356273878533955,3.1190954284313626,0.8381183901986361,B,663,Correct
2,new_learn,66,11,B,53.94165299924361,37.27249885617132,2.69708264996218,0.5854750429374089,A,837,Incorrect
2,new_learn,66,12,A,56.84113927490489,79.78070719399807,2.8420569637452444,1.2531924180943135,A,960,Correct
2,new_learn,66,13,B,38.25643076909158,20.737204696101912,1.912821538454579,0.3257392496463076,B,768,Correct
2,new_learn,66,14,B,72.14338192578731,59.59607489748343,3.6071690962893657,0.9361329554036052,B,1363,Correct
2,new_learn,66,15,B,73.99919031391386,63.65325269616906,3.699959515695693,0.999862955236897,B,625,Correct
2,new_learn,66,16,A,28.45959769559086,55.056244368689995,1.4229798847795427,0.8648214642146044,B,1008,Incorrect
2,new_learn,66,17,A,59.112937942017666,69.34057101093563,2.955646897100883,1.0891991424183838,A,844,Correct
2,new_learn,66,18,A,23.586088159891766,51.44828691675322,1.1793044079945885,0.8081478010872587,A,749,Correct
2,new_learn,66,19,A,25.284705944908755,56.62312574333892,1.2642352972454376,0.8894339792928231,A,1124,Correct
2,new_learn,66,20,B,83.74035327102072,55.66142652781328,4.187017663551035,0.8743276433405311,B,618,Correct
2,new_learn,66,21,A,17.562441761789866,45.68349074789475,0.8781220880894933,0.717594594619617,A,769,Correct
2,new_learn,66,22,B,38.35151305120897,20.407864271881973,1.9175756525604484,0.3205659823600101,A,1451,Incorrect
2,new_learn,66,23,A,14.311425759652384,35.336849619636,0.7155712879826192,0.5550699358302786,A,633,Correct
2,new_learn,66,24,B,78.31998439559906,50.745872909271654,3.9159992197799536,0.7971143076588457,B,673,Correct
2,new_learn,66,25,A,58.951542933781624,81.30624811461433,2.947577146689081,1.2771555588391068,A,1533,Correct
2,new_learn,66,26,A,60.725312853077924,82.99776463690755,3.036265642653896,1.3037258382384174,A,593,Correct
2,new_learn,66,27,A,37.180448689038414,51.97676574526622,1.8590224344519208,0.8164491271134299,B,858,Incorrect
2,new_learn,66,28,B,84.66197233078583,57.920447120425194,4.233098616539292,0.9098122558308193,B,492,Correct
2,new_learn,66,29,B,51.989004919888856,43.73352018276494,2.599450245994443,0.6869645286089764,B,917,Correct
2,new_learn,66,30,B,53.61424275715591,36.44520075728499,2.6807121378577956,0.5724798747884583,B,646,Correct
2,new_learn,66,31,B,60.41519153959524,43.13307810356643,3.020759576979762,0.6775328064843954,B,606,Correct
2,new_learn,66,32,B,54.93130718103811,32.42570078236119,2.7465653590519055,0.5093417168268336,B,577,Correct
2,new_learn,66,33,A,62.89935334997017,85.00251432538481,3.1449676674985083,1.3352163727064503,A,607,Correct
2,new_learn,66,34,B,72.39583135594005,47.01198058582865,3.6197915677970025,0.7384624641957263,B,747,Correct
2,new_learn,66,35,B,46.05368220901961,16.78525933165601,2.3026841104509805,0.26366223702465025,A,1807,Incorrect
2,new_learn,66,36,B,33.82946843741355,12.282411482744553,1.6914734218706775,0.192931668412786,A,711,Incorrect
2,new_learn,66,37,A,18.210067354317136,46.1493764144961,0.9105033677158567,0.7249127095576551,A,715,Correct
2,new_learn,66,38,A,25.831555734629102,50.62970996631013,1.291577786731455,0.7952896244177091,A,1697,Correct
2,new_learn,66,39,B,82.35319314038944,63.17517449573097,4.1176596570194715,0.9923533204252084,B,492,Correct
2,new_learn,66,40,B,55.06950098436123,44.926411670885074,2.7534750492180615,0.7057024242870165,B,462,Correct
2,new_learn,66,41,A,22.038220782875356,39.37514986064909,1.1019110391437679,0.6185034076810616,B,832,Incorrect
2,new_learn,66,42,A,30.205051284719005,52.35703415500293,1.5102525642359501,0.8224223693255356,A,866,Correct
2,new_learn,66,43,A,30.357030571497862,59.096732446392856,1.5178515285748932,0.9282893025237468,A,681,Correct
2,new_learn,66,44,B,83.38977387948859,66.10898511380414,4.169488693974429,1.0384375098490204,A,1240,Incorrect
2,new_learn,66,45,A,16.676593160995125,39.50959397408878,0.8338296580497563,0.6206152508765643,A,667,Correct
2,new_learn,66,46,B,71.18512836951818,53.57410838893517,3.559256418475909,0.8415401266865102,B,694,Correct
2,new_learn,66,47,A,57.62320944818361,77.55399522439203,2.88116047240918,1.2182153082674394,A,820,Correct
2,new_learn,66,48,B,84.89762169322464,57.64192357822249,4.244881084661232,0.9054372182606402,B,745,Correct
2,new_learn,66,49,A,50.95204337771137,59.601677094617195,2.5476021688855686,0.9362209545104022,B,935,Incorrect
2,new_learn,66,50,A,35.03438802799043,59.939337173074556,1.7517194013995214,0.9415249066198631,B,885,Incorrect
2,new_learn,66,51,A,45.789265092358036,57.68850697744486,2.289463254617902,0.9061689485845215,B,609,Incorrect
2,new_learn,66,52,A,54.691740723645935,63.08573896426965,2.7345870361822966,0.9909484703821646,A,394,Correct
2,new_learn,66,53,A,23.595053310670735,54.75320679193887,1.1797526655335369,0.8600613610901896,A,448,Correct
2,new_learn,66,54,B,65.61640194354523,51.454901532262625,3.280820097177261,0.8082517032247122,B,2644,Correct
2,new_learn,66,55,B,38.525640168420324,25.887658034473564,1.9262820084210162,0.4066423814987347,A,922,Incorrect
2,new_learn,66,56,B,73.81697152249727,63.3007743290004,3.6908485761248637,0.994326237992665,B,583,Correct
2,new_learn,66,57,B,76.79235022828352,47.672790207010614,3.839617511414176,0.7488424374523599,B,536,Correct
2,new_learn,66,58,B,85.82257788408714,56.962409044908966,4.291128894204357,0.8947634289313139,B,517,Correct
2,new_learn,66,59,B,68.9415364557117,43.412827322614966,3.4470768227855846,0.6819270969414472,B,555,Correct
2,new_learn,66,60,A,60.1755827363338,69.3044573119355,3.00877913681669,1.0886318697610198,B,684,Incorrect
2,new_learn,66,61,A,45.91194900332763,61.30157518450265,2.2955974501663814,0.9629228912655795,A,1254,Correct
2,new_learn,66,62,B,39.3827799860628,22.42549163254045,1.96913899930314,0.35225879882964223,B,652,Correct
2,new_learn,66,63,A,53.60699229601844,74.00623718669164,2.680349614800922,1.1624872553276708,A,1036,Correct
2,new_learn,66,64,A,32.542389371792055,44.733653971051375,1.6271194685896029,0.7026745934184143,A,897,Correct
2,new_learn,66,65,A,52.37768779042031,67.10382831980337,2.6188843895210154,1.0540644703862247,A,905,Correct
2,new_learn,66,66,A,50.33619364401429,59.2691627300906,2.5168096822007144,0.9309978310863529,A,779,Correct
2,new_learn,66,67,B,77.64809326864994,55.75197869982712,3.8824046634324976,0.8757500335323576,B,566,Correct
2,new_learn,66,68,A,53.71618508183172,82.59787644642631,2.685809254091586,1.2974444092310515,A,1290,Correct
2,new_learn,66,69,A,31.500918152432014,48.882659752596524,1.5750459076216006,0.7678470238334335,A,1429,Correct
2,new_learn,66,70,B,69.84747647889469,59.40992888476826,3.4923738239447344,0.9332089806734001,B,664,Correct
2,new_learn,66,71,B,63.24643297085966,36.35106678272288,3.162321648542983,0.5710012217737709,B,694,Correct
2,new_learn,66,72,B,65.73388222485703,35.89157567874558,3.2866941112428516,0.5637835523905461,B,745,Correct
2,new_learn,66,73,A,67.44476494830387,80.40145735368942,3.3722382474151935,1.2629431388013188,A,756,Correct
2,new_learn,66,74,B,64.68722769236763,49.430766700323446,3.2343613846183814,0.7764566676352356,B,817,Correct
2,new_learn,66,75,B,86.20243753247019,64.87073194783343,4.310121876623509,1.018987074601531,A,903,Incorrect
2,new_learn,66,76,B,39.65155733606812,23.2252666628365,1.9825778668034062,0.3648216356281554,B,1078,Correct
2,new_learn,66,77,A,28.51253171182824,61.638311354828645,1.425626585591412,0.9682123306600499,A,884,Correct
2,new_learn,66,78,A,55.95261164185594,74.43136045393872,2.797630582092797,1.1691650759939387,A,1126,Correct
2,new_learn,66,79,B,41.293569565500974,28.287157850664336,2.0646784782750487,0.4443336364729096,B,1104,Correct
2,new_learn,66,80,B,58.70012065160351,28.747437036887433,2.935006032580176,0.45156368502310346,B,597,Correct
2,new_learn,66,81,B,54.423516893446326,34.802696075463565,2.721175844672316,0.5466794715789732,B,1055,Correct
2,new_learn,66,82,B,37.911466041491806,24.82440816666274,1.8955733020745902,0.38994089163051066,B,1359,Correct
2,new_learn,66,83,A,15.70139483157245,37.739627852311,0.7850697415786226,0.592812688050165,A,1365,Correct
2,new_learn,66,84,B,36.90017467387619,19.775226853381625,1.8450087336938095,0.3106285370282766,A,951,Incorrect
2,new_learn,66,85,B,76.47416257231563,58.06558055505211,3.823708128615782,0.9120920064908903,B,920,Correct
2,new_learn,66,86,B,49.36759175265729,31.344983621532833,2.4683795876328647,0.4923658513614997,B,620,Correct
2,new_learn,66,87,A,46.114021938751144,71.80435807719553,2.305701096937557,1.127900219155242,B,15145,Incorrect
2,new_learn,66,88,B,40.309408548142926,23.56772518005061,2.015470427407146,0.3702009614373509,B,533,Correct
2,new_learn,66,89,A,53.84404382611201,73.99451957382573,2.6922021913056007,1.1623031954951855,B,637,Incorrect
2,new_learn,66,90,B,47.74455819503478,20.58332413780625,2.387227909751739,0.3233220994889479,B,702,Correct
2,new_learn,66,91,B,62.34492759337948,46.83227400247958,3.1172463796689738,0.7356396397854704,A,525,Incorrect
2,new_learn,66,92,A,17.708362741024555,45.80380805594328,0.8854181370512277,0.7194845344749419,A,541,Correct
2,new_learn,66,93,B,64.4604978720087,32.41991393497881,3.223024893600435,0.509250817240714,B,713,Correct
2,new_learn,66,94,B,56.884374257600186,44.745292187920015,2.8442187128800094,0.7028574061014914,B,637,Correct
2,new_learn,66,95,A,22.44262737161942,43.62574890755967,1.122131368580971,0.685271661376712,A,817,Correct
2,new_learn,66,96,B,68.03322709907391,44.00526558329395,3.401661354953695,0.6912330953787201,B,563,Correct
2,new_learn,66,97,B,51.431465065561085,26.36159764529249,2.5715732532780544,0.4140870074967044,B,698,Correct
2,new_learn,66,98,B,39.234124766764694,20.628165143945267,1.9617062383382347,0.32402646036627747,B,817,Correct
2,new_learn,66,99,A,29.595856416593755,46.8957887640718,1.4797928208296878,0.7366373273275338,B,806,Incorrect
2,new_learn,66,100,A,56.932541865877994,74.11511828198886,2.8466270932938995,1.1641975555731738,B,1018,Incorrect
2,new_learn,66,101,A,39.46704594404734,53.852199205761245,1.9733522972023672,0.845908367022368,B,1590,Incorrect
2,new_learn,66,102,B,79.24179232561859,64.72553832302941,3.962089616280929,1.016706378476369,B,675,Correct
2,new_learn,66,103,B,52.27328271843066,26.14330188740216,2.6136641359215327,0.41065802575021404,B,1527,Correct
2,new_learn,66,104,B,45.84706420215659,17.23761374348518,2.292353210107829,0.2707678035097575,B,940,Correct
2,new_learn,66,105,A,27.182307173992704,46.223830449924606,1.3591153586996354,0.7260822308113166,B,1224,Incorrect
2,new_learn,66,106,B,44.614433065657444,19.66856404156256,2.230721653282872,0.3089530814981665,B,1720,Correct
2,new_learn,66,107,A,68.24746153049908,82.43215999516698,3.412373076524954,1.2948413413017752,A,892,Correct
2,new_learn,66,108,A,47.70097244707695,77.47592346744564,2.3850486223538474,1.2169889599770614,A,543,Correct
2,new_learn,66,109,B,50.98631670350619,25.596634526642088,2.5493158351753094,0.40207099492760817,B,1065,Correct
2,new_learn,66,110,B,66.24169828743514,54.80575075394782,3.3120849143717574,0.8608867197153788,B,1107,Correct
2,new_learn,66,111,B,71.19998275558366,38.34837251400894,3.559999137779183,0.6023748268356761,B,920,Correct
2,new_learn,66,112,A,26.395366081498963,41.679306681825025,1.3197683040749482,0.6546970183916874,B,1486,Incorrect
2,new_learn,66,113,A,21.71609371476353,39.82150110754722,1.0858046857381765,0.6255146766719407,A,519,Correct
2,new_learn,66,114,B,54.29426020175965,36.062235733338994,2.7147130100879826,0.5664642742594055,B,806,Correct
2,new_learn,66,115,B,48.04568252051374,39.10618439357293,2.402284126025687,0.6142785080038827,B,1012,Correct
2,new_learn,66,116,A,67.40362018261604,83.89051529227964,3.3701810091308015,1.3177491327404396,A,738,Correct
2,new_learn,66,117,A,35.22047069310068,44.94109299051014,1.761023534655034,0.7059330379164119,B,723,Incorrect
2,new_learn,66,118,B,44.613055893207274,35.74776731335544,2.230652794660364,0.5615246158693739,B,485,Correct
2,new_learn,66,119,B,41.378332667290685,30.978513031807502,2.0689166333645344,0.4866093447993106,B,708,Correct
2,new_learn,66,120,B,47.42494971339288,18.496937592439505,2.371247485669644,0.29054921627158414,B,1343,Correct
2,new_learn,66,121,B,55.06116893657498,42.504565716785,2.7530584468287493,0.6676601569993817,B,979,Correct
2,new_learn,66,122,A,26.4582204332471,48.500124994157865,1.322911021662355,0.7618381818991654,A,703,Correct
2,new_learn,66,123,B,75.6520028333657,58.10965400505509,3.782600141668285,0.9127843106246288,B,640,Correct
2,new_learn,66,124,B,84.18958037905841,66.04224570127082,4.20947901895292,1.0373891696084223,B,729,Correct
2,new_learn,66,125,A,15.777258597721115,41.27634813511421,0.7888629298860558,0.6483673603414478,A,711,Correct
2,new_learn,66,126,B,31.814250942269094,13.905260250530102,1.5907125471134547,0.2184233172465977,B,636,Correct
2,new_learn,66,127,A,43.06343843299816,56.889651223722716,2.1531719216499083,0.8936205517486644,B,1012,Incorrect
2,new_learn,66,128,A,40.12311958569819,62.06116718398383,2.0061559792849097,0.9748545344920577,A,376,Correct
2,new_learn,66,129,B,50.243105189334614,35.45771498522292,2.5121552594667307,0.5569684845532853,B,891,Correct
2,new_learn,66,130,A,46.73201596672053,75.1205090426447,2.3366007983360264,1.179990196711491,A,568,Correct
2,new_learn,66,131,B,77.80744579449158,50.24061869447456,3.890372289724579,0.7891777930118365,B,969,Correct
2,new_learn,66,132,A,53.93868680791393,71.10626845167512,2.6969343403956962,1.1169346529598312,A,569,Correct
2,new_learn,66,133,A,44.35156413687787,54.83069733588752,2.2175782068438936,0.8612785797081485,B,753,Incorrect
2,new_learn,66,134,A,47.14496232514682,55.00718499457405,2.357248116257341,0.8640508413680427,A,909,Correct
2,new_learn,66,135,B,86.49252185475773,61.597762303307775,4.324626092737886,0.96757538764821,B,1565,Correct
2,new_learn,66,136,A,62.787541828162674,82.48923882803447,3.1393770914081336,1.295737933511835,A,636,Correct
2,new_learn,66,137,B,51.27689060674871,39.84132805210731,2.5638445303374353,0.6258261175888062,B,706,Correct
2,new_learn,66,138,A,45.88462268642327,68.50478399107526,2.2942311343211634,1.0760706306105885,B,903,Incorrect
2,new_learn,66,139,B,53.914918909727575,26.105257042094298,2.695745945486379,0.41006041871758325,B,600,Correct
2,new_learn,66,140,A,19.000040685957092,32.23073941371845,0.9500020342978546,0.5062792708095244,A,1298,Correct
2,new_learn,66,141,A,32.168507972463225,43.68159422455058,1.6084253986231614,0.6861488775646922,A,937,Correct
2,new_learn,66,142,A,62.97309415567217,85.33040871878059,3.1486547077836087,1.3403669257936777,A,896,Correct
2,new_learn,66,143,B,55.73082278110488,39.068074035256174,2.7865411390552435,0.6136798718953147,B,1221,Correct
2,new_learn,66,144,A,22.036686853184044,49.5127217998848,1.1018343426592023,0.7777440153287665,A,707,Correct
2,new_learn,66,145,A,11.169903190897745,34.08403827976319,0.5584951595448873,0.5353908213218866,A,806,Correct
2,new_learn,66,146,B,50.59323889207189,30.762720801410524,2.5296619446035944,0.4832196883707261,B,587,Correct
2,new_learn,66,147,A,29.287929823665216,61.31300092676671,1.464396491183261,0.9631023664053725,A,703,Correct
2,new_learn,66,148,B,71.65397262345203,42.16606570508917,3.582698631172602,0.6623430112494633,B,694,Correct
2,new_learn,66,149,B,37.908898841269306,26.82122195993746,1.8954449420634654,0.42130676934820377,B,845,Correct
2,new_learn,66,150,A,55.3573012126555,75.35911929491407,2.767865060632775,1.1837382777894943,A,937,Correct
2,new_learn,66,151,A,29.049551982939107,42.15178883845078,1.4524775991469554,0.662118750752726,B,1401,Incorrect
2,new_learn,66,152,B,41.61985453627206,19.19568222597467,2.080992726813603,0.30152507130883094,B,656,Correct
2,new_learn,66,153,B,54.40220455672689,46.33200140876312,2.720110227836345,0.7277813762594109,B,631,Correct
2,new_learn,66,154,B,68.09664315677436,54.98394477763368,3.404832157838718,0.8636857848940043,B,979,Correct
2,new_learn,66,155,A,26.365117668113243,39.62334617108648,1.3182558834056621,0.6224020662086527,A,814,Correct
2,new_learn,66,156,A,40.85929333598401,55.629692434998475,2.0429646667992007,0.8738291653762547,A,685,Correct
2,new_learn,66,157,B,80.25647684597325,60.09920728375429,4.012823842298662,0.9440361404460631,B,847,Correct
2,new_learn,66,158,B,54.924438886155606,34.42513443884909,2.7462219443077807,0.5407487472596465,B,777,Correct
2,new_learn,66,159,B,71.39267680390103,55.21940259194198,3.5696338401950514,0.8673843475923105,B,679,Correct
2,new_learn,66,160,A,27.46610456267412,47.79838722848457,1.3733052281337057,0.7508153108522366,A,899,Correct
2,new_learn,66,161,A,44.14034022978838,56.46243857210155,2.2070170114894188,0.8869099111093959,A,608,Correct
2,new_learn,66,162,A,29.881000642835993,45.266935154930835,1.4940500321417998,0.7110513546662812,A,489,Correct
2,new_learn,66,163,A,25.575994846891852,43.66484764651445,1.2787997423445927,0.6858858229320368,A,831,Correct
2,new_learn,66,164,B,46.66535736961326,20.515903575162554,2.333267868480663,0.32226305976743624,B,994,Correct
2,new_learn,66,165,A,43.7924312289144,60.71225336543716,2.1896215614457204,0.9536658457786978,B,791,Incorrect
2,new_learn,66,166,B,68.14151439548297,56.17091656227764,3.407075719774149,0.8823306940872834,B,586,Correct
2,new_learn,66,167,A,34.162568176971895,66.40640764177596,1.7081284088485946,1.0431094119934623,A,735,Correct
2,new_learn,66,168,A,57.108961979740656,72.50822764715143,2.8554480989870332,1.1389565765055365,B,969,Incorrect
2,new_learn,66,169,A,23.059019170049382,37.958455758652015,1.152950958502469,0.5962500287649718,A,769,Correct
2,new_learn,66,170,A,50.33035944924369,70.95063779567778,2.5165179724621844,1.1144900123320582,A,737,Correct
2,new_learn,66,171,B,56.47776653298099,40.60971208264003,2.8238883266490493,0.6378958657160928,B,1442,Correct
2,new_learn,66,172,B,74.80668889276573,54.28818257950212,3.740334444638287,0.8527567778425262,B,598,Correct
2,new_learn,66,173,B,85.58563273126832,63.14168289511068,4.279281636563416,0.99182723559288,B,637,Correct
2,new_learn,66,174,B,66.53370341187444,39.50838583412968,3.326685170593722,0.6205962734584644,B,631,Correct
2,new_learn,66,175,A,65.984134828598,81.56500376656246,3.2992067414299004,1.2812200831152822,B,604,Incorrect
2,new_learn,66,176,A,26.079489307806696,43.77233027765318,1.3039744653903347,0.6875741561539065,A,744,Correct
2,new_learn,66,177,A,16.477419558952302,32.51754766904965,0.8238709779476152,0.5107844443492114,A,410,Correct
2,new_learn,66,178,A,33.3745060027629,51.90465554846595,1.668725300138145,0.8153164227908467,A,670,Correct
2,new_learn,66,179,A,36.99505032287627,45.81259203394377,1.8497525161438133,0.7196225128787201,B,945,Incorrect
2,new_learn,66,180,A,46.089830481496605,74.74318833581697,2.3044915240748303,1.1740632569084044,A,803,Correct
2,new_learn,66,181,B,34.435958117480936,14.366732797230956,1.721797905874047,0.22567211105934154,A,705,Incorrect
2,new_learn,66,182,A,27.192687863717598,48.02306417170898,1.35963439318588,0.7543445280235607,A,761,Correct
2,new_learn,66,183,B,75.79626107682836,52.567528312547736,3.789813053841418,0.8257288038203672,B,1026,Correct
2,new_learn,66,184,A,35.546194017262245,55.20249826966586,1.7773097008631122,0.8671188151189276,B,881,Incorrect
2,new_learn,66,185,B,45.28159860151601,32.46899473279857,2.2640799300758006,0.5100217766100283,A,975,Incorrect
2,new_learn,66,186,B,47.598122135021605,18.044336640486776,2.3799061067510805,0.2834397771432719,B,891,Correct
2,new_learn,66,187,B,74.57674290242922,46.23681185203509,3.7288371451214606,0.7262861421988347,B,557,Correct
2,new_learn,66,188,B,49.968368635216066,27.559511286855162,2.498418431760803,0.43290379097654585,B,719,Correct
2,new_learn,66,189,A,42.81408507480593,54.257631871992,2.1407042537402963,0.8522768884511474,B,811,Incorrect
2,new_learn,66,190,A,59.08835632610622,81.71117876138383,2.954417816305311,1.283516194564629,A,801,Correct
2,new_learn,66,191,B,70.84519339044041,41.18923320631967,3.5422596695220205,0.6469989622398531,B,1052,Correct
2,new_learn,66,192,B,38.27484995531624,13.513471586177705,1.9137424977658122,0.21226911529815146,A,1016,Incorrect
2,new_learn,66,193,B,55.228920108992284,41.65063007683739,2.761446005449614,0.654246567333892,B,1031,Correct
2,new_learn,66,194,A,51.878556892208465,64.38117598929553,2.5939278446104233,1.0112971475872121,B,1045,Incorrect
2,new_learn,66,195,B,51.12691688988656,19.61869130941252,2.556345844494328,0.3081696824534814,B,660,Correct
2,new_learn,66,196,A,54.19823222575991,84.23579868771475,2.7099116112879953,1.323172831632967,A,829,Correct
2,new_learn,66,197,A,39.48717585136545,69.91703726521797,1.9743587925682726,1.098254253165863,A,1501,Correct
2,new_learn,66,198,B,86.05580645850318,58.67638824281411,4.302790322925159,0.9216865512140365,B,566,Correct
2,new_learn,66,199,B,48.765564222665304,18.730399079629194,2.4382782111332655,0.2942164207368405,B,728,Correct
2,new_learn,66,200,A,42.57403113294231,51.86992197119408,2.1287015566471155,0.8147708290348956,A,1386,Correct
2,new_learn,66,201,B,71.1708745570883,38.96615492891983,3.5585437278544148,0.6120789303166813,B,737,Correct
2,new_learn,66,202,B,85.63149163324577,60.744507058866944,4.281574581662289,0.9541724856103485,B,639,Correct
2,new_learn,66,203,A,55.45529246741379,76.36540376757455,2.7727646233706893,1.1995449573231527,A,1094,Correct
2,new_learn,66,204,B,61.506481839984744,43.78736614735874,3.0753240919992373,0.6878103390429431,B,704,Correct
2,new_learn,66,205,A,67.17683716573652,84.40173365230783,3.3588418582868256,1.3257793319616635,A,684,Correct
2,new_learn,66,206,B,59.59325773591625,44.7392936824887,2.979662886795812,0.7027631817985137,B,719,Correct
2,new_learn,66,207,B,51.82904884299099,35.01297076718208,2.5914524421495497,0.549982458712667,B,698,Correct
2,new_learn,66,208,A,19.981440937931282,38.870098970912004,0.9990720468965641,0.6105700868566266,A,620,Correct
2,new_learn,66,209,B,54.74336975234638,39.47054386809082,2.737168487617319,0.6200018532459389,A,906,Incorrect
2,new_learn,66,210,B,71.5721695263944,55.29629614885576,3.5786084763197206,0.8685921887598541,B,715,Correct
2,new_learn,66,211,B,35.647399859434316,18.34561165502721,1.7823699929717156,0.2881721940052238,A,961,Incorrect
2,new_learn,66,212,A,36.181377556987165,62.04382179758392,1.8090688778493584,0.9745820737996196,A,1872,Correct
2,new_learn,66,213,B,76.89188777044244,65.29989288899056,3.844594388522122,1.0257283189012656,B,523,Correct
2,new_learn,66,214,B,40.74305288296465,27.805355658621593,2.0371526441482324,0.4367655053378849,A,883,Incorrect
2,new_learn,66,215,A,21.197735782332394,36.830806948051425,1.0598867891166197,0.5785369626689114,A,690,Correct
2,new_learn,66,216,B,58.74407974395037,46.578262839392266,2.9372039871975186,0.7316496417660462,B,730,Correct
2,new_learn,66,217,A,46.45396758405751,63.506484113028705,2.3226983792028757,0.9975575197240395,A,836,Correct
2,new_learn,66,218,A,57.72815150455447,68.5567236153612,2.8864075752277234,1.076886496321023,B,1230,Incorrect
2,new_learn,66,219,B,74.65744308164015,64.17448398405581,3.732872154082008,1.0080504371611279,B,800,Correct
2,new_learn,66,220,B,70.23363969032431,55.32945881576512,3.5116819845162155,0.8691131067135337,B,560,Correct
2,new_learn,66,221,B,70.58016684659205,44.06467462837227,3.5290083423296026,0.6921662904765944,B,2624,Correct
2,new_learn,66,222,B,87.35771382027234,60.785696181733854,4.367885691013617,0.9548194828393812,B,607,Correct
2,new_learn,66,223,B,68.85316800698355,50.20098426277604,3.4426584003491776,0.7885552168145702,B,741,Correct
2,new_learn,66,224,A,56.2286984496519,66.09011747897671,2.8114349224825954,1.038141137734198,A,1897,Correct
2,new_learn,66,225,A,31.086540484209298,55.01327148636826,1.5543270242104648,0.8641464477575768,A,567,Correct
2,new_learn,66,226,A,36.68934379482713,61.20996336635125,1.8344671897413565,0.9614838561911474,A,608,Correct
2,new_learn,66,227,A,34.942703151805915,58.4319900840649,1.7471351575902958,0.9178475539136497,A,576,Correct
2,new_learn,66,228,A,40.21016373970707,67.2905158063736,2.0105081869853536,1.0569969505678558,A,617,Correct
2,new_learn,66,229,A,20.53582131866148,33.217570405668994,1.026791065933074,0.5217803757827572,A,635,Correct
2,new_learn,66,230,A,39.56486040467593,57.90946836414845,1.9782430202337966,0.9096398019304966,A,761,Correct
2,new_learn,66,231,A,44.45322345047243,59.871377418838925,2.222661172523621,0.940457397296631,A,920,Correct
2,new_learn,66,232,B,44.48870793485145,24.773117888754587,2.2244353967425723,0.3891352258291265,B,570,Correct
2,new_learn,66,233,B,72.24426922485978,58.275712858855734,3.612213461242989,0.9153927570004471,B,631,Correct
2,new_learn,66,234,A,60.2653831382529,75.35232093446349,3.013269156912645,1.1836314893932542,B,1729,Incorrect
2,new_learn,66,235,B,69.61130374486062,47.463139923284565,3.4805651872430308,0.745549258496476,B,575,Correct
2,new_learn,66,236,B,77.84120351755348,53.95615024460706,3.892060175877674,0.8475412261222234,B,821,Correct
2,new_learn,66,237,A,51.7609849296401,75.98219346355471,2.5880492464820053,1.1935255039437096,A,812,Correct
2,new_learn,66,238,B,41.681095620443756,30.995356427289913,2.084054781022188,0.4868739202368557,B,855,Correct
2,new_learn,66,239,B,37.74804300627821,15.593815221002838,1.8874021503139105,0.24494707669869606,B,848,Correct
2,new_learn,66,240,B,44.614829605781644,16.436297831757273,2.230741480289082,0.25818076260231243,B,706,Correct
2,new_learn,66,241,A,55.50142305499,82.8041742653023,2.7750711527495002,1.3006849277922135,A,928,Correct
2,new_learn,66,242,A,35.88745895995768,44.004108260905525,1.7943729479978838,0.6912149162011535,B,973,Incorrect
2,new_learn,66,243,B,55.08101327006784,25.881741754576165,2.754050663503392,0.4065494487914234,B,770,Correct
2,new_learn,66,244,A,54.706481073163246,73.16737254062281,2.7353240536581622,1.1493104002804408,A,737,Correct
2,new_learn,66,245,A,56.884878127659135,74.2500731838858,2.8442439063829568,1.1663174222150006,A,666,Correct
2,new_learn,66,246,A,52.65651526282362,80.4975804016358,2.632825763141181,1.2644530361076636,A,853,Correct
2,new_learn,66,247,A,27.560288154718847,39.34332939649337,1.3780144077359424,0.6180035729989345,A,719,Correct
2,new_learn,66,248,A,46.501243264039566,76.94128126650826,2.3250621632019786,1.2085908199232416,A,1355,Correct
2,new_learn,66,249,A,24.841295477033853,56.42399670057438,1.2420647738516926,0.8863060676034961,A,776,Correct
2,new_learn,66,250,A,55.56093795821502,64.81036027986366,2.7780468979107513,1.018038758658637,B,1883,Incorrect
2,new_learn,66,251,B,40.66426756312258,29.57127168403583,2.0332133781561286,0.4645044493993742,B,1490,Correct
2,new_learn,66,252,A,42.37261795903241,73.51635091430957,2.1186308979516206,1.1547921397556211,A,956,Correct
2,new_learn,66,253,A,28.119612436688193,60.058456803507084,1.4059806218344095,0.943396033399189,A,1189,Correct
2,new_learn,66,254,A,39.56485397947554,50.22256603309081,1.978242698973777,0.7888942224699318,A,1497,Correct
2,new_learn,66,255,A,25.562510531302877,38.00028385337899,1.2781255265651439,0.5969070629405113,B,1906,Incorrect
2,new_learn,66,256,B,72.8186723811329,52.3971487473861,3.640933619056645,0.823052487869199,B,427,Correct
2,new_learn,66,257,B,72.77696875934026,45.04592314258311,3.638848437967013,0.7075797060945478,B,1073,Correct
2,new_learn,66,258,A,52.41171384512582,81.214974623084,2.6205856922562907,1.275721838186811,A,866,Correct
2,new_learn,66,259,A,51.25848619672147,63.246997967063564,2.5629243098360734,0.9934815208746774,A,1444,Correct
2,new_learn,66,260,B,38.061561031331664,27.780229314298598,1.9030780515665833,0.43637082164420143,B,2014,Correct
2,new_learn,66,261,B,89.83371330959558,66.41551544209675,4.491685665479779,1.0432524769863531,B,1575,Correct
2,new_learn,66,262,B,66.15303023104183,32.9701421278026,3.3076515115520913,0.51789378148258,B,735,Correct
2,new_learn,66,263,A,62.82774441060508,82.15596672100617,3.141387220530254,1.2905029074964025,A,1020,Correct
2,new_learn,66,264,A,19.679071386457284,47.93436075438646,0.9839535693228642,0.752951178002517,A,786,Correct
2,new_learn,66,265,A,63.06339101159592,81.47145536165692,3.153169550579796,1.2797506282072508,A,1271,Correct
2,new_learn,66,266,B,52.27282187960679,35.91348777219402,2.6136410939803394,0.5641277467495579,B,582,Correct
2,new_learn,66,267,B,55.41446554602089,38.80894251993017,2.7707232773010446,0.6096094435710058,B,6588,Correct
2,new_learn,66,268,A,58.72534879310024,80.09436980391827,2.936267439655012,1.258119418849469,A,725,Correct
2,new_learn,66,269,B,37.404824757929276,14.954741725910178,1.870241237896464,0.23490853371226078,B,691,Correct
2,new_learn,66,270,B,65.9547673138966,44.71969104249355,3.29773836569483,0.7024552642495151,B,776,Correct
2,new_learn,66,271,A,19.374241116796174,49.384129591632345,0.9687120558398087,0.7757240936449924,A,545,Correct
2,new_learn,66,272,B,67.38884558800125,41.94106535034298,3.369442279400062,0.6588087139418347,B,1079,Correct
2,new_learn,66,273,B,86.6747299796416,59.669846217854385,4.33373649898208,0.93729175259422,B,669,Correct
2,new_learn,66,274,B,60.34980952366039,42.60203846241992,3.0174904761830197,0.6691912553074412,B,708,Correct
2,new_learn,66,275,B,37.2489222680482,27.916345597428247,1.86244611340241,0.43850893121977175,A,737,Incorrect
2,new_learn,66,276,B,57.591576752041284,27.564919979657702,2.879578837602064,0.4329887505244157,B,700,Correct
2,new_learn,66,277,A,62.988376365816336,78.38615973091906,3.149418818290817,1.231286917768857,A,1515,Correct
2,new_learn,66,278,A,13.192120681973723,35.176820227042995,0.6596060340986861,0.5525562000096356,A,632,Correct
2,new_learn,66,279,A,50.80072586863804,72.97836715707089,2.540036293431902,1.1463415106581627,A,884,Correct
2,new_learn,66,280,A,43.65763179215037,60.13267583517315,2.1828815896075184,0.9445618632223823,B,1845,Incorrect
2,new_learn,66,281,B,56.38384388826723,39.77761317286602,2.8191921944133616,0.6248252866060623,B,581,Correct
2,new_learn,66,282,A,67.38759346808055,80.52218941370856,3.369379673404028,1.2648395935653631,A,635,Correct
2,new_learn,66,283,A,42.09037777019381,67.89460151775627,2.1045188885096904,1.0664859067329475,A,1292,Correct
2,new_learn,66,284,A,49.42293295689974,65.29670797818227,2.471146647844987,1.0256782904392772,A,594,Correct
2,new_learn,66,285,A,40.057676944382614,57.593601843495044,2.0028838472191306,0.9046781822264979,A,806,Correct
2,new_learn,66,286,A,54.26115896987472,63.59369516468914,2.713057948493736,0.9989274277200806,A,1089,Correct
2,new_learn,66,287,A,23.650694164998548,36.319723600566064,1.1825347082499276,0.5705088842197509,A,830,Correct
2,new_learn,66,288,A,65.91376196632288,79.14742656701112,3.2956880983161443,1.2432448692672988,A,970,Correct
2,new_learn,66,289,A,14.105051575667108,34.20860220699288,0.7052525787833553,0.5373474669153221,A,661,Correct
2,new_learn,66,290,B,86.01422687882024,60.64598860975965,4.300711343941012,0.9526249614305559,B,990,Correct
2,new_learn,66,291,B,67.02987156461649,35.02476407314125,3.351493578230824,0.5501677075294814,B,480,Correct
2,new_learn,66,292,B,63.412337626073025,50.922983249228444,3.1706168813036517,0.7998963503732608,B,415,Correct
2,new_learn,66,293,A,45.004898221659026,56.538726779979214,2.250244911082951,0.8881082434765161,B,1735,Incorrect
2,new_learn,66,294,B,77.0057221121759,49.14039248423502,3.8502861056087956,0.7718954801149591,B,671,Correct
2,new_learn,66,295,A,32.97611295894112,46.68531048889384,1.648805647947056,0.733331142312337,A,1106,Correct
2,new_learn,66,296,A,17.952455057905667,42.17983013747135,0.8976227528952834,0.6625592224477267,A,576,Correct
2,new_learn,66,297,B,78.32547301873538,60.892296702789515,3.916273650936769,0.9564939599084676,B,997,Correct
2,new_learn,66,298,B,69.90990723684381,37.313654699622234,3.4954953618421905,0.5861215174145973,B,880,Correct
2,new_learn,66,299,A,25.111670670520006,37.5777036706278,1.2555835335260002,0.5902691889520925,A,793,Correct
2,new_learn,66,300,B,46.70653831311232,28.685293675901825,2.335326915655616,0.4505875393913946,B,1169,Correct
2,new_learn,66,301,A,59.308986566484094,82.33998755495023,2.965449328324205,1.293393499996533,A,2864,Correct
2,new_learn,66,302,B,56.165027569120774,46.3672586088459,2.808251378456039,0.728335195063242,B,722,Correct
2,new_learn,66,303,B,82.18930434149351,56.342618668117076,4.109465217074676,0.8850277844588388,B,672,Incorrect
2,new_learn,66,304,B,48.71680163990398,29.611577364970856,2.435840081995199,0.4651375695549912,A,922,Incorrect
2,new_learn,66,305,A,23.679563183865472,37.0123017858553,1.1839781591932736,0.5813878769144569,A,517,Incorrect
2,new_learn,66,306,B,59.725499950271654,42.14583165320058,2.986274997513583,0.6620251755056356,B,1214,Incorrect
2,new_learn,66,307,B,60.244737638260105,37.61880248096196,3.0122368819130054,0.5909147675551779,A,1390,Incorrect
2,new_learn,66,308,A,28.79039744344106,55.4228617851904,1.439519872172053,0.8705802771263832,B,1905,Incorrect
2,new_learn,66,309,B,32.27515887517227,15.445819243155917,1.6137579437586134,0.24262236131487244,A,815,Incorrect
2,new_learn,66,310,A,30.8344237267196,47.15895845568384,1.5417211863359799,0.7407711871766129,A,2036,Incorrect
2,new_learn,66,311,A,64.21415106266213,85.46440959319467,3.2107075531331066,1.342471806606847,B,2846,Incorrect
2,new_learn,66,312,A,56.09430945653783,70.42605166524868,2.8047154728268913,1.1062498326644024,B,934,Incorrect
2,new_learn,66,313,B,48.196677903040715,34.47157920720786,2.409833895152036,0.5414782999750144,107,2502,Incorrect
2,new_learn,66,314,B,76.23288349330467,49.556449222161575,3.811644174665233,0.7784308840716923,A,2268,Incorrect
2,new_learn,66,315,B,40.058392416940166,30.87932812482434,2.0029196208470084,0.48505135192368415,A,2019,Incorrect
2,new_learn,66,316,B,47.56203097129814,24.91320274881658,2.3781015485649073,0.391335673665376,A,4923,Incorrect
2,new_learn,66,317,B,37.44318171434941,21.613958357299445,1.8721590857174704,0.33951126395143827,B,2766,Correct
2,new_learn,66,318,A,44.765907853995785,52.58379222317607,2.238295392699789,0.8259842767311102,A,1459,Incorrect
2,new_learn,66,319,B,55.445012689176025,33.69942738651497,2.772250634458801,0.5293493675382905,B,3045,Incorrect
2,new_learn,66,320,A,25.451735548272204,48.91803946571455,1.2725867774136104,0.7684027670675219,B,1046,Incorrect
2,new_learn,66,321,B,78.39216834346463,55.96702587503215,3.9196084171732313,0.8791279866613542,B,874,Incorrect
2,new_learn,66,322,B,50.99796584333268,19.618303727771554,2.5498982921666338,0.3081635943353018,B,2069,Incorrect
2,new_learn,66,323,A,49.67389865145779,78.19025456880324,2.4836949325728894,1.22820964667834,B,814,Incorrect
2,new_learn,66,324,B,81.64989641072643,57.81475390638581,4.082494820536322,0.9081520307070173,B,1821,Incorrect
2,new_learn,66,325,A,18.591100452845414,32.344126338229614,0.9295550226422706,0.5080603484548115,A,1231,Incorrect
2,new_learn,66,326,B,45.234072991111546,26.088222789419184,2.261703649555577,0.4097928453022657,B,8554,Correct
2,new_learn,66,327,A,51.23442932932845,76.61717337691687,2.5617214664664227,1.2034997450986875,A,1104,Incorrect
2,new_learn,66,328,B,56.783462581048305,33.20758881444217,2.8391731290524156,0.5216235853144104,B,3288,Correct
2,new_learn,66,329,B,79.08797248572836,59.10597151817891,3.954398624286418,0.9284344295239921,A,782,Incorrect
2,new_learn,66,330,B,72.02140492231018,41.7739422837881,3.6010702461155093,0.6561835509511637,B,964,Correct
2,new_learn,66,331,A,51.92583804659637,68.73787379433055,2.5962919023298183,1.0797319966782561,A,2097,Correct
2,new_learn,66,332,A,55.561643973199644,71.12655879360882,2.778082198659982,1.1172533729056198,A,1129,Incorrect
2,new_learn,66,333,A,41.412538420737995,58.408154437067786,2.0706269210369,0.9174731444461511,B,1247,Incorrect
2,new_learn,66,334,A,26.62224990568042,44.87865342942243,1.3311124952840208,0.7049522395843794,A,679,Correct
2,new_learn,66,335,A,36.497988741890815,56.6552425578533,1.8248994370945408,0.8899384690354986,A,2641,Incorrect
2,new_learn,66,336,A,54.01860292120889,73.90240618407384,2.7009301460604447,1.1608562817524763,B,4256,Incorrect
2,new_learn,66,337,B,50.282426325082625,25.570898884873905,2.514121316254131,0.40166674041203654,B,997,Correct
2,new_learn,66,338,A,43.699698172946626,58.564602908465154,2.184984908647331,0.9199306312881878,A,922,Correct
2,new_learn,66,339,A,55.76224575819846,81.45664205899925,2.788112287909923,1.2795179413932267,A,607,Incorrect
2,new_learn,66,340,B,47.231355327018576,22.778633143497782,2.361567766350929,0.357805932712148,A,953,Correct
2,new_learn,66,341,B,74.56150412358248,53.719880206624566,3.728075206179124,0.8438299050442774,A,1895,Incorrect
2,new_learn,66,342,B,36.00507455602231,12.243148149488718,1.8002537278011153,0.19231492141622614,A,1163,Incorrect
2,new_learn,66,343,B,57.84319702598511,47.425705543800106,2.892159851299256,0.7449612406385757,A,578,Incorrect
2,new_learn,66,344,A,34.785436300801976,50.700989901607656,1.7392718150400988,0.7964092870231043,B,948,Correct
2,new_learn,66,345,B,65.61895715353153,49.69056435927775,3.2809478576765763,0.7805375597191889,B,617,Incorrect
2,new_learn,66,346,B,44.855337472613,29.61640729705733,2.24276687363065,0.4652134379507922,B,1798,Correct
2,new_learn,66,347,A,45.313047029537145,66.1698446740402,2.265652351476857,1.039393489585712,A,1753,Correct
2,new_learn,66,348,A,25.779195330709953,45.28590079250493,1.2889597665354977,0.7113492662046484,B,1226,Correct
2,new_learn,66,349,A,53.588560832480184,77.0063197075831,2.6794280416240093,1.20961244136665,A,1334,Correct
2,new_learn,66,350,A,52.12593044864291,79.282359343298,2.6062965224321455,1.2453643883608552,A,1004,Correct
2,new_learn,66,351,A,25.019954507505116,39.33474634599594,1.2509977253752558,0.6178687507569939,B,572,Incorrect
2,new_learn,66,352,B,45.23027057624415,31.759387459440433,2.2615135288122077,0.4988752916254494,B,919,Correct
2,new_learn,66,353,A,23.509126815661013,41.986576912751715,1.1754563407830505,0.659523607892418,A,1104,Correct
2,new_learn,66,354,B,88.73491123235029,63.24051911225942,4.436745561617514,0.9933797512613954,B,637,Incorrect
2,new_learn,66,355,B,69.07056019196077,60.437089750135385,3.4535280095980387,0.9493435858168616,A,959,Correct
2,new_learn,66,356,B,67.33588369323348,44.71599996424032,3.366794184661674,0.7023972849278942,A,1472,Incorrect
2,new_learn,66,357,A,52.92954644749256,71.10661204646388,2.6464773223746283,1.1169400501341522,A,2199,Correct
2,new_learn,66,358,A,40.65500694314787,49.19306874410277,2.0327503471573936,0.7727229168700547,B,2696,Incorrect
2,new_learn,66,359,A,36.61927343175382,64.64937044009811,1.830963671587691,1.0155099361690867,A,2100,Correct
2,new_learn,66,360,B,72.62020150619351,58.117196218267054,3.6310100753096752,0.9129027834327215,B,6455,Correct
2,new_learn,66,361,B,66.7081159486531,43.462852296724954,3.335405797432655,0.6827128873972469,B,699,Correct
2,new_learn,66,362,B,50.14906571274637,19.536445566197045,2.5074532856373186,0.30687776934010763,A,976,Correct
2,new_learn,66,363,A,21.602402455095373,44.67546430492477,1.0801201227547685,0.7017605522803235,B,1357,Incorrect
2,new_learn,66,364,B,49.55012945798843,21.620734750090698,2.4775064728994214,0.33961770728049245,B,1292,Incorrect
2,new_learn,66,365,A,61.90622988839469,87.23274776526388,3.0953114944197346,1.370248797659022,A,1295,Correct
2,new_learn,66,366,B,67.06908507794397,41.92930320043617,3.353454253897198,0.6586239545231465,B,1619,Correct
2,new_learn,66,367,A,46.67356599221782,55.15642116759292,2.3336782996108907,0.8663950376920724,A,2225,Incorrect
2,new_learn,66,368,B,53.83619369528789,28.84532093725001,2.691809684764394,0.4531012417345223,A,1467,Correct
2,new_learn,66,369,B,38.791980400493415,18.02769429093391,1.9395990200246707,0.2831783597278031,A,3271,Incorrect
2,new_learn,66,370,A,46.56097325630088,56.21461668536126,2.328048662815044,0.8830171340154856,A,984,Correct
2,new_learn,66,371,B,53.77368932768748,36.26638951064418,2.6886844663843736,0.5696711142943284,B,605,Correct
2,new_learn,66,372,B,47.554299732831865,30.755624731052734,2.377714986641593,0.4831082235581991,B,1445,Correct
2,new_learn,66,373,A,30.39557336214262,46.85761694639665,1.519778668107131,0.7360377258176214,B,888,Correct
2,new_learn,66,374,A,40.498819036204274,49.1881700323593,2.0249409518102137,0.7726459680859281,B,905,Incorrect
2,new_learn,66,375,B,58.26209993143404,46.518824420306586,2.9131049965717017,0.7307159852623432,B,1865,Correct
2,new_learn,66,376,B,59.19344679082201,31.439353334009304,2.9596723395411004,0.49384820733868706,B,893,Correct
2,new_learn,66,377,B,39.822972319643675,26.611629583186897,1.9911486159821836,0.41801449999296386,A,984,Incorrect
2,new_learn,66,378,A,64.66106706371325,81.74651153427847,3.233053353185662,1.2840712004634125,A,707,Correct
2,new_learn,66,379,A,27.824285775399737,54.15643991930346,1.391214288769987,0.8506873689753037,A,1361,Correct
2,new_learn,66,380,A,16.198603067448715,35.36427098626443,0.8099301533724358,0.555500669650035,A,1327,Correct
2,new_learn,66,381,A,23.054446436982204,42.203445053647705,1.1527223218491103,0.6629301646836006,A,937,Incorrect
2,new_learn,66,382,B,37.102427339085374,18.801582210292693,1.8551213669542688,0.29533456273860037,A,2023,Incorrect
2,new_learn,66,383,A,13.974710457978482,31.2934013869691,0.6987355228989242,0.49155559951569383,A,779,Correct
2,new_learn,66,384,A,38.34545449545194,54.911839780361156,1.9172727247725971,0.8625531622454118,A,1581,Incorrect
2,new_learn,66,385,A,24.03123994171224,36.98712738398025,1.201561997085612,0.580992438334511,A,1011,Incorrect
2,new_learn,66,386,B,66.21175751950118,53.84302886690669,3.310587875975059,0.8457643196764861,B,1120,Correct
2,new_learn,66,387,A,45.342196598217186,55.170485990675616,2.267109829910859,0.8666159674164257,B,1065,Incorrect
2,new_learn,66,388,A,36.73866970840348,67.15121078088505,1.836933485420174,1.054808752344441,A,1973,Incorrect
2,new_learn,66,389,B,46.80529737804792,33.68854892144322,2.340264868902396,0.5291784890085318,B,957,Correct
2,new_learn,66,390,B,81.79165648581828,54.62735130449995,4.089582824290914,0.8580844277164293,B,1515,Correct
2,new_learn,66,391,B,45.465913727188294,17.92477047486355,2.2732956863594147,0.2815616362055728,A,905,Correct
2,new_learn,66,392,A,24.94986624251913,37.226856828003775,1.2474933121259566,0.5847580996354785,A,2691,Incorrect
2,new_learn,66,393,A,20.142448969549566,36.60140586648234,1.0071224484774783,0.5749335389059963,B,772,Correct
2,new_learn,66,394,B,62.19826863612205,33.16965220217165,3.1099134318061026,0.5210276784023548,B,1444,Incorrect
2,new_learn,66,395,A,48.57153167381036,61.25400425705337,2.428576583690518,0.9621756488845838,A,659,Correct
2,new_learn,66,396,B,79.80207316999329,48.680233610509475,3.9901036584996645,0.7646673214290576,B,637,Correct
2,new_learn,66,397,A,56.728957931336055,82.435650615512,2.8364478965668023,1.2948961718379373,A,1366,Correct
2,new_learn,66,398,B,35.31733755933293,16.635501011198333,1.7658668779666464,0.26130983882783126,B,1320,Incorrect
2,new_learn,66,399,B,48.17822413957265,24.68352301784885,2.4089112069786323,0.38772787288794247,B,904,Correct
2,new_learn,66,400,A,38.10107600625094,52.34289825469954,1.905053800312547,0.8222003231228106,A,827,Incorrect
2,new_learn,66,401,B,72.14081476856677,54.940936805969216,3.6070407384283385,0.8630102172548698,B,684,Incorrect
2,new_learn,66,402,A,58.096451008465785,78.09193991671594,2.904822550423289,1.2266653237346516,A,1281,Correct
2,new_learn,66,403,B,72.86901600415331,60.11628168647657,3.6434508002076655,0.944304344536847,A,1417,Incorrect
2,new_learn,66,404,B,85.47841329866264,66.1153199902908,4.273920664933132,1.03853701785618,B,2043,Incorrect
2,new_learn,66,405,A,22.774952162906512,48.19940531073274,1.1387476081453256,0.7571144881579741,A,773,Incorrect
2,new_learn,66,406,B,54.128174459343185,35.53995359534382,2.7064087229671596,0.5582602856202714,B,9425,Correct
2,new_learn,66,407,A,18.439818065714555,36.05198410965874,0.9219909032857276,0.5663032421311992,A,1876,Incorrect
2,new_learn,66,408,A,22.504059187484057,44.754519494414936,1.1252029593742028,0.7030023482929757,B,847,Incorrect
2,new_learn,66,409,A,43.16912052929609,63.83256981512996,2.1584560264648043,1.0026796619548493,A,1225,Correct
2,new_learn,66,410,A,62.37805982984886,75.61696540820445,3.118902991492443,1.1877885150658432,A,1794,Correct
2,new_learn,66,411,A,22.69649607132995,36.65347259439504,1.1348248035664974,0.5757514011555313,B,1031,Correct
2,new_learn,66,412,A,37.86321359725789,52.14174590603341,1.8931606798628946,0.8190406294187013,A,2057,Incorrect
2,new_learn,66,413,A,32.985608722813545,60.89108782218818,1.6492804361406772,0.9564749708563867,B,786,Incorrect
2,new_learn,66,414,A,43.6489239198932,66.71905468698937,2.18244619599466,1.0480204602955072,B,4883,Incorrect
2,new_learn,66,415,B,50.8851237702928,41.88692763323046,2.54425618851464,0.6579583206700205,B,728,Correct
2,new_learn,66,416,A,46.91019025859342,78.25497185040027,2.345509512929671,1.2292262233604678,A,1121,Correct
2,new_learn,66,417,A,19.1604763970915,33.837978434363066,0.958023819854575,0.5315257223086243,A,880,Correct
2,new_learn,66,418,B,45.61522615041219,22.071530590830495,2.2807613075206095,0.34669879178817736,B,856,Incorrect
2,new_learn,66,419,A,43.500380080447016,57.43639103297111,2.175019004022351,0.9022087205894636,A,816,Incorrect
2,new_learn,66,420,A,52.8967316764891,66.2864986814939,2.6448365838244547,1.0412258864498536,A,3003,Incorrect
2,new_learn,66,421,A,30.90755660455418,52.749546609761445,1.545377830227709,0.8285879405470947,A,2348,Incorrect
2,new_learn,66,422,B,53.812330620690844,26.35896749414992,2.690616531034542,0.4140456931791677,B,2340,Correct
2,new_learn,66,423,A,41.449946589623266,65.67046877302701,2.0724973294811635,1.031549311275698,A,18968,Incorrect
2,new_learn,66,424,B,38.731185694652694,13.764303111507193,1.936559284732635,0.21620916768447063,B,741,Correct
2,new_learn,66,425,A,57.007897747376134,81.022622866344,2.850394887368807,1.2727003838574134,A,618,Correct
2,new_learn,66,426,A,32.13814644635621,47.182116257478484,1.6069073223178105,0.7411349490765696,B,1275,Incorrect
2,new_learn,66,427,A,16.04132341170522,34.11956654411435,0.8020661705852611,0.5359488979932886,A,700,Incorrect
2,new_learn,66,428,B,54.574283567226026,36.8605060696832,2.7287141783613014,0.5790034753805935,B,833,Incorrect
2,new_learn,66,429,B,68.6383635249588,40.09469600461527,3.43191817624794,0.6298060120800768,B,2263,Correct
2,new_learn,66,430,B,60.23293974127347,50.123527117087235,3.0116469870636733,0.7873385228152502,B,848,Correct
2,new_learn,66,431,A,41.29004258221339,66.4853904545586,2.0645021291106698,1.0443500711154512,A,676,Correct
2,new_learn,66,432,B,68.71749143378759,44.82176759856281,3.4358745716893795,0.7040586790427696,B,561,Incorrect
2,new_learn,66,433,B,59.40174650931359,47.90220773509347,2.9700873254656797,0.7524461195565091,B,814,Incorrect
2,new_learn,66,434,A,26.870203353797965,42.29925998151179,1.3435101676898984,0.6644352220510109,A,1249,Correct
2,new_learn,66,435,A,68.77643534512045,85.92371886091907,3.438821767256022,1.3496866197128903,A,8510,Correct
2,new_learn,66,436,A,52.9560476094832,73.27505020281548,2.6478023804741597,1.151001797042942,B,1094,Correct
2,new_learn,66,437,B,80.06605430039147,62.564740437431226,4.003302715019573,0.982764644659931,A,925,Incorrect
2,new_learn,66,438,A,68.75951591797633,86.67382565280089,3.4379757958988164,1.3614692696468091,B,1429,Correct
2,new_learn,66,439,B,62.720197254802585,43.82368098115152,3.1360098627401296,0.6883807711182417,B,1026,Incorrect
2,new_learn,66,440,A,11.162508821768405,35.30382253914703,0.5581254410884202,0.5545511476631102,A,643,Correct
2,new_learn,66,441,A,28.96153759281551,60.29642869641788,1.4480768796407757,0.9471340871518359,B,2208,Incorrect
2,new_learn,66,442,A,30.387529265114104,58.30409110522855,1.5193764632557052,0.9158385214520801,A,964,Correct
2,new_learn,66,443,B,80.23524340435387,61.34114762615094,4.011762170217693,0.963544493725414,B,720,Correct
2,new_learn,66,444,B,77.7963922434576,56.68643627295417,3.88981961217288,0.890428458766494,B,1101,Incorrect
2,new_learn,66,445,A,49.87980423787073,72.4146014022501,2.4939902118935366,1.1374858988897105,A,3046,Incorrect
2,new_learn,66,446,B,78.40122091111256,62.93723728546118,3.9200610455556277,0.9886158114662121,A,1440,Correct
2,new_learn,66,447,B,47.759934156503036,36.47062436124633,2.387996707825152,0.5728792278256221,B,2415,Correct
2,new_learn,66,448,A,27.404713360193476,46.19087889804562,1.370235668009674,0.7255646290447795,A,1432,Correct
2,new_learn,66,449,A,13.310701813518818,34.07502713066529,0.665535090675941,0.5352492745228548,A,765,Incorrect
2,new_learn,66,450,B,46.94900793199276,17.115105610810083,2.347450396599638,0.268843450261672,A,1922,Correct
2,new_learn,66,451,B,71.06773588789767,55.21576907869146,3.553386794394884,0.8673272724996378,B,1045,Correct
2,new_learn,66,452,A,39.33667134656939,53.12310403753549,1.9668335673284696,0.8344557669010388,A,1874,Incorrect
2,new_learn,66,453,B,53.45999531104931,24.75055299483273,2.6729997655524653,0.3887807773042568,A,838,Incorrect
2,new_learn,66,454,A,30.841931781951875,64.07013456465023,1.5420965890975937,1.0064113203140732,A,3335,Incorrect
2,new_learn,66,455,B,62.021312795529035,34.40910552107491,3.101065639776452,0.5404969656080247,A,1756,Correct
2,new_learn,66,456,A,25.410802614968453,53.78939639175398,1.2705401307484225,0.8449218627268182,B,706,Incorrect
2,new_learn,66,457,A,22.18401259456688,42.613516445184324,1.109200629728344,0.6693715510390945,A,751,Incorrect
2,new_learn,66,458,B,54.12371997439678,39.010898330511445,2.7061859987198384,0.6127817580253654,A,880,Correct
2,new_learn,66,459,A,34.65525562787137,65.39964830013066,1.7327627813935687,1.0272952732352334,B,1285,Correct
2,new_learn,66,460,B,35.57276485438711,18.151815210376533,1.7786382427193557,0.28512804657119195,A,858,Incorrect
2,new_learn,66,461,B,37.85062941700474,28.794563157066246,1.892531470850237,0.45230394038783317,A,975,Incorrect
2,new_learn,66,462,A,10.4171873019501,32.45540660342242,0.5208593650975051,0.5098083347729077,A,900,Correct
2,new_learn,66,463,B,69.39053831312536,57.73047515962017,3.4695269156562683,0.9068281832485539,A,2615,Incorrect
2,new_learn,66,464,A,42.543082999118944,67.08060776015944,2.127154149955947,1.0536997226882767,A,1187,Incorrect
2,new_learn,66,465,A,39.16484386541236,60.80004811292274,1.958242193270618,0.9550449224473202,B,2158,Incorrect
2,new_learn,66,466,A,58.906998493909285,76.16088913670684,2.945349924695464,1.1963324490137242,A,798,Incorrect
2,new_learn,66,467,A,52.73377651948327,79.95557612423374,2.6366888259741637,1.2559392528271607,B,874,Incorrect
2,new_learn,66,468,A,51.206537127601685,58.23332770781923,2.5603268563800845,0.9147269726048594,B,1086,Correct
2,new_learn,66,469,A,32.75816512682226,61.756065522660826,1.6379082563411131,0.9700620088030057,B,1326,Correct
2,new_learn,66,470,A,15.577811823807028,43.885610067902434,0.7788905911903514,0.6893535509381427,A,1094,Incorrect
2,new_learn,66,471,B,55.52072452171825,30.796528861765992,2.7760362260859126,0.4837507441409504,B,567,Correct
2,new_learn,66,472,B,81.67313139429862,55.245533146296076,4.083656569714931,0.8677948053802758,A,1767,Incorrect
2,new_learn,66,473,B,86.00778804757881,63.89658932668142,4.300389402378941,1.0036852780907317,B,991,Correct
2,new_learn,66,474,A,26.575146209259785,47.19895083799995,1.3287573104629893,0.7413993860490322,A,651,Incorrect
2,new_learn,66,475,A,32.43632588689594,60.86350117617924,1.6218162943447971,0.9560416408341922,B,1884,Incorrect
2,new_learn,66,476,B,42.018001119116505,13.572001185097758,2.100900055955825,0.21318849608807539,A,996,Incorrect
2,new_learn,66,477,B,72.13660111708406,54.467749031586195,3.606830055854203,0.8555774010760189,B,929,Correct
2,new_learn,66,478,B,64.20033673385892,52.23257367906512,3.210016836692946,0.8204673487411929,B,790,Correct
2,new_learn,66,479,A,62.11301213231312,78.32640190267824,3.105650606615656,1.2303482439978777,B,1126,Correct
2,new_learn,66,480,A,25.490498862383575,44.30293800330285,1.2745249431191787,0.6959089228181015,A,753,Correct
2,new_learn,66,481,A,29.145715809078567,41.97691248239362,1.4572857904539285,0.6593717993753475,A,1072,Incorrect
2,new_learn,66,482,A,55.93388555183285,76.2190099585365,2.7966942775916426,1.197245408748128,B,800,Incorrect
2,new_learn,66,483,B,65.70524814808132,34.245386145219236,3.285262407404066,0.5379252676658322,B,608,Correct
2,new_learn,66,484,A,28.234062735604148,44.73803439984576,1.4117031367802073,0.7027434010330144,B,1297,Incorrect
2,new_learn,66,485,B,67.96008709955228,52.25390333904644,3.398004354977614,0.8208023942566972,A,830,Incorrect
2,new_learn,66,486,A,55.54200648910533,64.72578395609447,2.777100324455267,1.0167102368715326,A,833,Correct
2,new_learn,66,487,A,66.33440822227729,87.39285576932966,3.3167204111138644,1.3727637683057918,B,669,Incorrect
2,new_learn,66,488,B,39.358269827263186,30.37131040357206,1.9679134913631595,0.47707142821878623,A,3312,Incorrect
2,new_learn,66,489,B,60.78689385759619,44.44450050102158,3.03934469287981,0.6981325813323862,B,1070,Incorrect
2,new_learn,66,490,B,70.7364354110792,40.377434122695846,3.53682177055396,0.6342472520533355,B,750,Correct
2,new_learn,66,491,B,41.432973160015095,27.930495265252652,2.0716486580007545,0.43873119368221114,B,673,Correct
2,new_learn,66,492,B,58.0176624069055,47.86059184359047,2.9008831203452754,0.7517924186614171,B,619,Correct
2,new_learn,66,493,A,60.91810656271676,73.94343047559818,3.0459053281358375,1.1615006898168343,B,455,Correct
2,new_learn,66,494,B,57.313901061423536,43.09494012716239,2.8656950530711764,0.6769337365519268,B,760,Correct
2,new_learn,66,495,B,60.30555738440803,51.886836018066006,3.0152778692204016,0.8150365142618723,B,962,Correct
2,new_learn,66,496,B,37.837222210208495,15.136734114858132,1.8918611105104248,0.23776726347290153,A,564,Incorrect
2,new_learn,66,497,A,33.63427616594191,65.40540643391778,1.6817138082970957,1.0273857217892535,A,920,Incorrect
2,new_learn,66,498,B,41.92637284429374,24.754737663650992,2.096318642214687,0.3888465099283426,B,723,Correct
2,new_learn,66,499,A,16.293501631670527,38.58356022777558,0.8146750815835263,0.6060691468045954,A,1325,Correct
2,new_learn,66,500,B,57.34618279679606,47.42030099936045,2.8673091398398025,0.7448763462530376,B,1323,Correct
2,new_learn,66,501,B,37.566021328093456,11.736800297060597,1.8783010664046729,0.18436122794948037,A,955,Correct
2,new_learn,66,502,A,45.47128227137215,74.93998493273848,2.2735641135686073,1.177154530624105,B,620,Correct
2,new_learn,66,503,B,46.11316319663249,29.927332149381705,2.3056581598316246,0.470097434110196,B,1072,Correct
2,new_learn,66,504,B,39.5571019051979,16.204755723089296,1.9778550952598948,0.2545437076643724,A,1353,Incorrect
2,new_learn,66,505,A,25.6115195025086,50.47694369292688,1.28057597512543,0.7928899774068238,B,934,Incorrect
2,new_learn,66,506,B,62.00244377136145,47.95968730487578,3.1001221885680725,0.7533490065273071,B,492,Correct
2,new_learn,66,507,A,34.829581417390735,56.88756461721286,1.7414790708695367,0.8935877754102528,A,795,Correct
2,new_learn,66,508,B,78.87028857187865,55.707801476932374,3.9435144285939323,0.8750560993378468,B,766,Correct
2,new_learn,66,509,B,61.532546601174786,30.13053147176548,3.0766273300587392,0.47328928160227246,B,744,Incorrect
2,new_learn,66,510,A,49.10589160396188,67.59664835120195,2.455294580198094,1.0618056693371432,B,667,Incorrect
2,new_learn,66,511,A,34.18799806583628,42.90702001923111,1.709399903291814,0.6739818943992332,A,882,Correct
2,new_learn,66,512,A,41.67513759665595,68.7579509787194,2.0837568798327974,1.0800473683531602,A,1122,Correct
2,new_learn,66,513,B,76.9944613383144,55.192226831862236,3.84972306691572,0.8669574717511992,B,693,Incorrect
2,new_learn,66,514,B,70.24577691057469,40.667041043146185,3.512288845528735,0.6387963869219132,B,939,Incorrect
2,new_learn,66,515,B,44.413092448247724,23.50942383996979,2.220654622412386,0.36928516612888923,A,658,Incorrect
2,new_learn,66,516,A,32.99129775879178,42.004155060452376,1.649564887939589,0.6597997247908185,A,4369,Correct
2,new_learn,66,517,B,37.92898158440884,24.99075043903666,1.8964490792204418,0.39255378993486734,B,1468,Correct
2,new_learn,66,518,B,67.80936171623128,47.70262611989605,3.390468085811564,0.7493110988760301,B,737,Correct
2,new_learn,66,519,A,34.99659800994125,59.76351927819563,1.7498299004970626,0.9387631655852569,A,580,Correct
2,new_learn,66,520,B,82.1352866707854,54.50132669255809,4.10676433353927,0.8561048377411891,B,615,Incorrect
2,new_learn,66,521,A,56.175396042257304,76.5840631560428,2.8087698021128653,1.202979650965404,B,1592,Incorrect
2,new_learn,66,522,A,56.3589228647695,81.56446517188897,2.817946143238475,1.2812116228899346,A,412,Incorrect
2,new_learn,66,523,A,61.4193819016381,86.23227289768757,3.070969095081905,1.3545333751886273,B,1019,Incorrect
2,new_learn,66,524,B,64.05331774234261,49.3504704605633,3.202665887117131,0.7751953772505287,B,323,Incorrect
2,new_learn,66,525,B,55.03600221450593,43.309282899542474,2.7518001107252963,0.6803006249472235,A,471,Incorrect
2,new_learn,66,526,A,20.204159795696185,45.713253023513445,1.0102079897848093,0.7180620993518062,A,532,Correct
2,new_learn,66,527,A,40.05632999557561,60.546003602885335,2.0028164997787803,0.9510544006152285,A,588,Incorrect
2,new_learn,66,528,A,16.02488027566182,37.22209401414453,0.8012440137830908,0.5846832855303253,A,578,Correct
2,new_learn,66,529,B,68.28508075709257,40.59196970754812,3.414254037854629,0.637617169139863,B,703,Correct
2,new_learn,66,530,B,34.81591517178026,24.05528001348149,1.740795758589013,0.3778594548519941,A,652,Correct
2,new_learn,66,531,A,39.469121651096934,71.61263075211735,1.9734560825548468,1.124888573375452,A,709,Correct
2,new_learn,66,532,B,47.62117964573633,27.73918440572608,2.3810589822868167,0.435726089728008,A,934,Correct
2,new_learn,66,533,B,36.3236878506311,24.757125147538225,1.816184392531555,0.3888840124375461,A,570,Correct
2,new_learn,66,534,A,64.0646276121103,78.8290086050613,3.2032313806055153,1.238243171617136,B,772,Incorrect
2,new_learn,66,535,A,53.79823556565647,70.33553551709178,2.6899117782828235,1.1048280083339974,A,930,Incorrect
2,new_learn,66,536,B,57.637209818750016,46.09645144631686,2.8818604909375005,0.7240813661015382,B,670,Correct
2,new_learn,66,537,A,49.938424868877725,60.604022531212735,2.4969212434438863,0.9519657598102411,B,859,Correct
2,new_learn,66,538,B,57.92923612135654,39.55799459227442,2.896461806067827,0.6213755260091703,B,617,Correct
2,new_learn,66,539,A,69.75978850768219,87.8598284931044,3.487989425384109,1.3800989586979797,A,805,Correct
2,new_learn,66,540,B,41.162635479875505,24.636544238566643,2.0581317739937752,0.3869899319486046,A,823,Incorrect
2,new_learn,66,541,B,69.17822140061938,42.84938415086611,3.4589110700309686,0.6730765522960394,B,575,Incorrect
2,new_learn,66,542,A,18.4121599757985,47.26360280213895,0.9206079987899249,0.7424149367269283,A,760,Incorrect
2,new_learn,66,543,A,66.7038610789629,81.86092256585043,3.3351930539481454,1.285868364744793,B,649,Incorrect
2,new_learn,66,544,B,40.08766896713587,14.159054222439039,2.0043834483567933,0.22240990363497015,A,7713,Correct
2,new_learn,66,545,B,70.37052979961047,48.09978567206626,3.5185264899805238,0.7555496665330349,B,687,Incorrect
2,new_learn,66,546,B,49.227169582368816,30.903131962692775,2.4613584791184406,0.48542526173455774,A,766,Correct
2,new_learn,66,547,B,49.73199541434472,22.533184260609755,2.4865997707172363,0.3539504306755838,A,1500,Correct
2,new_learn,66,548,A,62.37065930842721,88.03127451601158,3.1185329654213603,1.3827920265282416,A,706,Incorrect
2,new_learn,66,549,B,69.0792357328243,53.4926351491239,3.4539617866412153,0.8402603480282339,B,933,Correct
2,new_learn,66,550,A,65.31288169432983,87.09193742780066,3.265644084716491,1.3680369540504025,B,1210,Correct
2,new_learn,66,551,A,47.2920739602686,75.29530226730702,2.36460369801343,1.182735842263973,A,855,Correct
2,new_learn,66,552,B,48.99279609328901,37.91832202715598,2.4496398046644505,0.5956196095848263,B,1313,Correct
2,new_learn,66,553,B,87.37534747729404,63.43993087833888,4.368767373864702,0.9965121039581682,B,928,Incorrect
2,new_learn,66,554,B,55.797327602444575,40.04392940762062,2.7898663801222288,0.6290085722392459,B,1602,Correct
2,new_learn,66,555,B,54.737617358330006,37.23962537281418,2.7368808679165006,0.5849586674683455,B,1056,Incorrect
2,new_learn,66,556,A,37.86240160905579,57.985907848579316,1.8931200804527892,0.9108405105441575,A,994,Correct
2,new_learn,66,557,A,14.482682996456745,43.55303392248741,0.7241341498228373,0.6841294570621674,A,634,Correct
2,new_learn,66,558,B,38.673527458316734,25.70916278839124,1.9336763729158366,0.40383858472976997,B,1689,Incorrect
2,new_learn,66,559,A,41.61046356651657,65.0643217390841,2.0805231783258282,1.0220279759315463,B,1114,Incorrect
2,new_learn,66,560,A,43.17313592009233,71.10681774091216,2.1586567960046166,1.1169432811749902,A,939,Correct
2,new_learn,66,561,B,45.294951932836675,18.744214015354792,2.264747596641834,0.2944334252397673,A,1238,Correct
2,new_learn,66,562,A,60.465544059674016,85.64308558392342,3.0232772029837007,1.3452784425060786,B,507,Correct
2,new_learn,66,563,A,49.3645462521044,64.33940761627272,2.4682273126052197,1.0106410515180078,A,836,Correct
2,new_learn,66,564,A,29.975845007804175,58.23427648841978,1.4987922503902087,0.914741876015682,A,639,Correct
2,new_learn,66,565,A,58.06195580964704,69.88632450415614,2.9030977904823523,1.0977718182432463,A,7384,Correct
2,new_learn,66,566,A,56.001900578919354,64.54616167321865,2.8000950289459676,1.0138887366500138,A,1100,Incorrect
2,new_learn,66,567,A,62.28349879681974,86.84566882246531,3.114174939840987,1.3641685758437456,A,7105,Incorrect
2,new_learn,66,568,B,69.97664694638857,38.26466916459863,3.498832347319428,0.6010600176977346,A,519,Correct
2,new_learn,66,569,A,31.669216799217843,45.42302728882384,1.5834608399608923,0.7135032441718884,B,739,Incorrect
2,new_learn,66,570,A,39.833456417750284,66.59232074259869,1.9916728208875143,1.0460297281522162,A,627,Incorrect
2,new_learn,66,571,B,44.632944034317624,21.94183853226224,2.2316472017158815,0.3446615936960425,B,813,Correct
2,new_learn,66,572,B,67.54296868900344,37.42183447305834,3.377148434450172,0.5878208013220667,B,1051,Correct
2,new_learn,66,573,B,56.73759750008739,32.81597706651357,2.8368798750043696,0.5154721623626508,B,822,Correct
2,new_learn,66,574,B,53.647999169929534,23.35603117011539,2.682399958496477,0.3668756797052437,B,1170,Incorrect
2,new_learn,66,575,A,42.94287707745939,66.66579442011277,2.14714385387297,1.0471838499797685,B,1270,Correct
2,new_learn,66,576,B,55.51435202929376,34.408443756453735,2.775717601464688,0.5404865706336631,B,1270,Incorrect
2,new_learn,66,577,B,77.44461872679719,50.76013409371403,3.8722309363398595,0.7973383218202239,B,2030,Incorrect
2,new_learn,66,578,B,86.39655071547445,67.90552030597357,4.319827535773722,1.0666574186571955,A,894,Correct
2,new_learn,66,579,A,58.693641993379124,86.63218938858441,2.934682099668956,1.3608152487378822,A,749,Incorrect
2,new_learn,66,580,B,62.012202323132506,40.07404973568189,3.1006101161566253,0.6294817012460511,A,806,Incorrect
2,new_learn,66,581,B,50.33599474574444,34.302787827895635,2.516799737287222,0.5388269311888315,B,758,Correct
2,new_learn,66,582,A,32.81315800328785,63.38431341764207,1.6406579001643928,0.9956384669284863,A,1510,Correct
2,new_learn,66,583,A,18.30165068311861,36.53600426726773,0.9150825341559304,0.5739062129878681,A,594,Correct
2,new_learn,66,584,A,60.82731369262556,84.3986252485899,3.0413656846312778,1.32573050527024,B,1608,Correct
2,new_learn,66,585,A,49.734754645950055,78.58681588623939,2.486737732297503,1.2344388172861167,A,881,Incorrect
2,new_learn,66,586,A,28.978809475610927,60.73517766682327,1.4489404737805465,0.9540259398628143,A,817,Correct
2,new_learn,66,587,B,64.96153880525426,51.025449008391085,3.2480769402627128,0.8015058787544102,B,1164,Correct
2,new_learn,66,588,B,31.757414861399667,16.306321006980482,1.5878707430699834,0.256139091413034,A,813,Correct
2,new_learn,66,589,B,79.93295751159326,54.30976051119403,3.996647875579663,0.8530957232009408,B,816,Correct
2,new_learn,66,590,A,61.97051172402685,72.15702300686976,3.098525586201342,1.133439866916459,B,1060,Incorrect
2,new_learn,66,591,A,33.83861775453175,65.9995557962471,1.6919308877265875,1.0367185981483975,A,1220,Incorrect
2,new_learn,66,592,A,34.336209715072975,42.692500738798415,1.7168104857536488,0.6706122334219297,A,789,Correct
2,new_learn,66,593,A,50.85009948142492,72.33006151445265,2.542504974071246,1.1361579494375114,A,1473,Correct
2,new_learn,66,594,B,73.0498669723074,52.722184568759225,3.65249334861537,0.8281581386120958,B,1120,Correct
2,new_learn,66,595,B,58.6110495813866,27.400337993811057,2.93055247906933,0.43040350273617056,A,1461,Incorrect
2,new_learn,66,596,A,12.572904048580796,38.286809896142486,0.6286452024290398,0.6014078034955511,A,858,Incorrect
2,new_learn,66,597,B,59.3089355989317,30.790739932536525,2.965446779946585,0.48365981185325313,B,1181,Correct
2,new_learn,66,598,B,75.0782328636993,50.94229756941559,3.7539116431849653,0.8001997390053059,B,1027,Incorrect
2,new_learn,66,599,A,40.08529963532901,50.5661891898618,2.0042649817664504,0.7942918423945072,B,1031,Correct
2,new_learn,66,600,B,63.14168289511068,14.41436726873168,3.1570841447555336,0.2264203515879631,A,545,Incorrect
2,new_learn,66,601,B,62.93723728546118,21.59877908888744,3.146861864273059,0.3392728285607881,B,1063,Correct
2,new_learn,66,602,A,36.82556779649447,76.19419960737896,1.8412783898247234,1.1968556886634802,A,776,Correct
2,new_learn,66,603,A,67.08060776015944,57.456917000881056,3.354030388007972,0.902531141739432,B,632,Incorrect
2,new_learn,66,604,B,33.69942738651497,44.554987310823975,1.6849713693257484,0.6998681040823552,A,1707,Incorrect
2,new_learn,66,605,B,35.87015733155827,52.32784144300018,1.7935078665779134,0.8219638112777045,B,1179,Correct
2,new_learn,66,606,A,48.19940531073274,77.22504783709348,2.409970265536637,1.213048214790666,A,1002,Correct
2,new_learn,66,607,B,44.926411670885074,44.93049901563877,2.2463205835442537,0.705766628148271,B,829,Correct
2,new_learn,66,608,A,60.76898803469414,65.67938004205598,3.0384494017347072,1.0316892891622758,B,1044,Incorrect
2,new_learn,66,609,B,43.97844255165571,44.0525507303974,2.1989221275827857,0.6919758487325407,B,725,Correct
2,new_learn,66,610,A,52.58379222317607,55.234092146004215,2.6291896111588033,0.8676150905679426,A,1000,Correct
2,new_learn,66,611,A,44.94109299051014,64.77952930689932,2.247054649525507,1.017554466867798,B,973,Incorrect
2,new_learn,66,612,B,17.115105610810083,53.05099206800724,0.8557552805405041,0.8333230347325096,A,1424,Incorrect
2,new_learn,66,613,B,29.626649395884257,39.30706983294551,1.481332469794213,0.617434009106613,A,2364,Incorrect
2,new_learn,66,614,B,46.537655444624704,38.89253136702946,2.3268827722312353,0.6109224541108518,B,960,Correct
2,new_learn,66,615,B,27.400337993811057,41.3889504186134,1.3700168996905528,0.6501361128745402,B,829,Correct
2,new_learn,66,616,B,63.65325269616906,26.000809686086143,3.182662634808453,0.4084197634859728,A,1317,Incorrect
2,new_learn,66,617,B,54.30976051119403,20.06704248840674,2.7154880255597016,0.3152123663042643,B,592,Correct
2,new_learn,66,618,B,23.50942383996979,55.586907551752276,1.1754711919984897,0.8731571020017996,A,961,Incorrect
2,new_learn,66,619,B,66.41551544209675,10.16628669040442,3.3207757721048377,0.15969165790431109,B,1050,Correct
2,new_learn,66,620,B,49.70700413970794,21.02111785648202,2.485350206985397,0.3301989471408457,B,1095,Correct
2,new_learn,66,621,B,52.3971487473861,27.1813276188671,2.619857437369305,0.42696329581125114,B,918,Correct
2,new_learn,66,622,A,51.54778728782219,74.55633364201248,2.5773893643911094,1.1711281502416797,B,988,Incorrect
2,new_learn,66,623,A,67.89460151775627,57.90962222980619,3.3947300758878134,0.9096422188465964,B,905,Incorrect
2,new_learn,66,624,B,41.5813765953657,44.971429771050964,2.0790688297682847,0.7064095669508151,A,3239,Incorrect
2,new_learn,66,625,B,36.26638951064418,46.22631067231252,1.813319475532209,0.7261211900534822,B,797,Correct
2,new_learn,66,626,B,60.437089750135385,30.929439808039234,3.0218544875067694,0.4858385044029188,B,934,Correct
2,new_learn,66,627,A,82.99776463690755,39.274687146922076,4.149888231845377,0.6169253430640395,B,664,Incorrect
2,new_learn,66,628,B,53.719880206624566,25.43849587641752,2.6859940103312283,0.39958695881863765,B,1183,Correct
2,new_learn,66,629,B,29.611577364970856,51.28319836009602,1.4805788682485428,0.8055545961033289,B,978,Correct
2,new_learn,66,630,B,43.42925827775228,41.04969204702133,2.1714629138876145,0.6448070548352278,B,1028,Correct
2,new_learn,66,631,B,32.9701421278026,33.846969768958175,1.6485071063901302,0.5316669578621741,B,851,Correct
2,new_learn,66,632,B,31.759387459440433,54.76972942375585,1.5879693729720217,0.8603208979838606,B,1083,Correct
2,new_learn,66,633,A,73.90240618407384,45.98139707879111,3.6951203092036917,0.7222740963226266,A,479,Correct
2,new_learn,66,634,B,55.707801476932374,21.129711428121354,2.785390073846619,0.3319047309752917,A,767,Incorrect
2,new_learn,66,635,A,63.08573896426965,45.308259276354065,3.1542869482134823,0.7117004724476776,B,1075,Incorrect
2,new_learn,66,636,A,60.19884294067188,59.43128222881777,3.009942147033594,0.9335443982173778,A,538,Correct
2,new_learn,66,637,B,27.044496582372396,56.70325373037441,1.3522248291186199,0.8906926267699113,B,774,Correct
2,new_learn,66,638,A,72.06258931094536,42.67848473233045,3.6031294655472674,0.6703920705071675,A,1066,Correct
2,new_learn,66,639,A,56.889651223722716,56.93656156700184,2.844482561186136,0.8943574176977797,A,1015,Correct
2,new_learn,66,640,A,64.07013456465023,69.15806821804813,3.2035067282325116,1.0863323952514088,A,1627,Correct
2,new_learn,66,641,A,51.67651962376757,70.7658162489053,2.5838259811883786,1.1115868422642303,A,698,Correct
2,new_learn,66,642,A,41.03692368517308,71.25846573565299,2.051846184258654,1.119325362306037,B,483,Incorrect
2,new_learn,66,643,B,19.66856404156256,55.385566934342556,0.9834282020781281,0.8699944509791817,B,1418,Correct
2,new_learn,66,644,B,50.24061869447456,22.192554205508415,2.512030934723728,0.3485998262820925,A,2079,Incorrect
2,new_learn,66,645,B,33.33267416507645,35.71150543988104,1.6666337082538223,0.560955015692811,B,1469,Correct
2,new_learn,66,646,B,47.425705543800106,42.15680297401489,2.3712852771900055,0.6621975126099875,B,801,Correct
2,new_learn,66,647,A,48.79861870458106,67.95984757202316,2.439930935229053,1.0675107893567506,B,866,Incorrect
2,new_learn,66,648,A,41.986576912751715,76.490873184339,2.099328845637586,1.2015158263129395,A,747,Correct
2,new_learn,66,649,A,72.87566964297399,51.183887146418066,3.6437834821486996,0.8039946192067802,A,1169,Correct
2,new_learn,66,650,B,42.599130513711735,49.16387214089081,2.129956525685587,0.7722642976992522,B,1567,Correct
2,new_learn,66,651,B,59.10597151817891,20.912027514271642,2.9552985759089454,0.32848536005251705,B,1181,Correct
2,new_learn,66,652,A,84.23579868771475,45.80176777424009,4.211789934385737,0.7194524858048921,A,658,Correct
2,new_learn,66,653,A,70.95063779567778,49.66964055075631,3.547531889783889,0.7802088893035086,A,757,Correct
2,new_learn,66,654,B,61.962308240418395,12.60466901307278,3.0981154120209196,0.19799367786200175,A,1145,Incorrect
2,new_learn,66,655,A,49.236434782635186,68.10475022834504,2.461821739131759,1.0697869149596828,A,1189,Correct
2,new_learn,66,656,B,46.21797976784533,34.18872777445779,2.310898988392266,0.5370352800590895,B,1119,Correct
2,new_learn,66,657,A,65.0643217390841,58.38953643348343,3.253216086954205,0.9171806935297256,A,1048,Correct
2,new_learn,66,658,A,43.66484764651445,74.42400515310814,2.1832423823257225,1.1690495391986673,A,1115,Correct
2,new_learn,66,659,A,78.59329643228838,46.921965991465946,3.9296648216144194,0.7370485182538976,A,688,Correct
2,new_learn,66,660,A,33.217570405668994,79.46417868133852,1.6608785202834497,1.248220399844199,A,1070,Correct
2,new_learn,66,661,A,52.14174590603341,62.13678640274211,2.60708729530167,0.9760423584026638,B,940,Incorrect
2,new_learn,66,662,B,52.23257367906512,35.79966326614108,2.611628683953256,0.5623397955894861,B,761,Correct
2,new_learn,66,663,B,19.61869130941252,48.87308311011344,0.980934565470626,0.767696594285079,B,955,Correct
2,new_learn,66,664,B,18.34561165502721,64.35260014056568,0.9172805827513605,1.010848279205013,B,751,Correct
2,new_learn,66,665,B,48.499879154597124,43.87903036409151,2.424993957729856,0.6892501971923668,B,1121,Correct
2,new_learn,66,666,B,19.775226853381625,63.09982532612381,0.9887613426690812,0.9911697384367487,B,3368,Correct
2,new_learn,66,667,B,45.926825470799145,22.776550646219945,2.2963412735399573,0.3577732209214021,B,1956,Correct
2,new_learn,66,668,A,71.10681774091216,56.82686407990767,3.5553408870456082,0.8926342935999183,A,1017,Correct
2,new_learn,66,669,B,28.402055461406498,52.955653076752355,1.4201027730703248,0.8318254533598746,B,854,Correct
2,new_learn,66,670,A,38.23390433872659,81.42870602143824,1.9116952169363293,1.2790791231413665,A,820,Correct
2,new_learn,66,671,B,26.611629583186897,60.177027680356325,1.3305814791593449,0.9452585403773852,B,912,Correct
2,new_learn,66,672,A,55.20249826966586,64.45380598273775,2.7601249134832933,1.0124380168563538,A,759,Correct
2,new_learn,66,673,A,56.46243857210155,55.85965977021162,2.8231219286050773,0.8774414838306106,A,663,Correct
2,new_learn,66,674,B,33.769569998901446,42.71697544866601,1.6884784999450722,0.6709966812655235,B,1344,Correct
2,new_learn,66,675,B,27.559511286855162,50.031631364783934,1.377975564342758,0.7858950277135892,B,662,Correct
2,new_learn,66,676,A,60.546003602885335,59.94367000442439,3.0273001801442665,0.9415929665755526,B,2309,Incorrect
2,new_learn,66,677,A,32.23073941371845,80.99995931404291,1.6115369706859226,1.2723443856103467,B,552,Incorrect
2,new_learn,66,678,A,42.613516445184324,77.81598740543312,2.1306758222592164,1.222330671823723,A,1828,Correct
2,new_learn,66,679,A,66.71905468698937,56.3510760801068,3.335952734349468,0.8851606331757153,A,686,Correct
2,new_learn,66,680,A,86.23227289768757,38.5806180983619,4.311613644884378,0.6060229319438358,A,914,Correct
2,new_learn,66,681,A,55.468708252023006,67.47350302147146,2.7734354126011507,1.0598713070211172,A,1288,Correct
2,new_learn,66,682,B,40.60971208264003,43.52223346701901,2.030485604132002,0.6836456446390338,B,598,Correct
2,new_learn,66,683,B,29.973781318756114,38.252523168804245,1.4986890659378056,0.6008692288419438,B,848,Correct
2,new_learn,66,684,B,33.853158593308855,49.53763187672858,1.6926579296654427,0.7781353019008304,B,945,Correct
2,new_learn,66,685,B,41.18923320631967,29.154806609559586,2.0594616603159834,0.4579626313071177,B,931,Correct
2,new_learn,66,686,B,35.02476407314125,32.970128435383515,1.7512382036570626,0.5178935664025639,B,704,Correct
2,new_learn,66,687,B,40.48022855522385,51.205001665485206,2.0240114277611925,0.8043262852967074,B,748,Correct
2,new_learn,66,688,A,81.47145536165692,36.93660898840408,4.073572768082846,0.5801988972324449,A,530,Correct
2,new_learn,66,689,A,47.588139799833414,61.77358681461817,2.3794069899916708,0.9703372326134789,B,870,Incorrect
2,new_learn,66,690,B,60.11628168647657,27.13098399584669,3.0058140843238284,0.426172500030071,A,534,Incorrect
2,new_learn,66,691,A,61.787128977289285,49.80034649705773,3.0893564488644643,0.7822620135069138,A,1156,Correct
2,new_learn,66,692,A,40.91039604802904,76.44819974612861,2.045519802401452,1.2008455135130138,B,1014,Incorrect
2,new_learn,66,693,A,88.03127451601158,37.62934069157279,4.401563725800579,0.5910803013803628,A,823,Correct
2,new_learn,66,694,B,64.85762892258938,22.958807215586646,3.242881446129469,0.36063610041835664,A,2022,Incorrect
2,new_learn,66,695,A,48.882659752596524,68.499081847568,2.444132987629826,1.0759810615498278,B,1074,Incorrect
2,new_learn,66,696,A,62.06116718398383,59.87688041430181,3.103058359199191,0.9405438381472258,A,866,Correct
2,new_learn,66,697,A,40.245326694261365,70.7238928918589,2.0122663347130683,1.1109283117116764,B,1159,Incorrect
2,new_learn,66,698,A,62.29261050989956,64.20670424308977,3.1146305254949778,1.0085565518065172,A,1020,Correct
2,new_learn,66,699,B,44.745292187920015,43.115625742399814,2.237264609396001,0.6772586654362511,B,1092,Correct
2,new_learn,66,700,A,56.538726779979214,54.995101778340974,2.826936338998961,0.8638610386512948,A,866,Correct
2,new_learn,66,701,B,26.89696692654514,57.591910282069435,1.344848346327257,0.9046516112417589,B,1255,Correct
2,new_learn,66,702,B,50.20098426277604,31.14683199301645,2.510049213138802,0.48925329285928,B,609,Correct
2,new_learn,66,703,B,53.95615024460706,22.15879648244652,2.697807512230353,0.3480695612082267,B,665,Correct
2,new_learn,66,704,B,63.59050375385996,16.159962766909402,3.179525187692998,0.2538401015540358,B,560,Correct
2,new_learn,66,705,B,51.34088666860378,23.474666161371317,2.567044333430189,0.36873919379018516,B,935,Correct
2,new_learn,66,706,A,41.679306681825025,73.60463391850104,2.0839653340912516,1.1561788859426447,A,820,Correct
2,new_learn,66,707,A,45.28590079250493,74.22080466929005,2.264295039625247,1.1658576734628232,A,622,Correct
2,new_learn,66,708,A,63.506484113028705,53.54603241594249,3.1753242056514352,0.8410991103340292,B,765,Incorrect
2,new_learn,66,709,A,85.92371886091907,31.223564654879553,4.296185943045953,0.4904586066932776,A,514,Correct
2,new_learn,66,710,A,44.87865342942243,73.37775009431958,2.2439326714711214,1.1526150031663105,A,1053,Correct
2,new_learn,66,711,A,81.45664205899925,44.23775424180154,4.072832102949962,0.6948850186867722,A,581,Correct
2,new_learn,66,712,A,63.98447948583898,62.25153142017936,3.1992239742919493,0.9778447689217483,A,517,Correct
2,new_learn,66,713,A,73.94343047559818,39.08189343728324,3.6971715237799088,0.6138969465547409,A,841,Correct
2,new_learn,66,714,A,80.67205522791798,48.52981703667536,4.033602761395899,0.7623045834123805,A,611,Correct
2,new_learn,66,715,B,34.63985576720445,35.18146971907849,1.7319927883602224,0.5526292340597437,B,672,Correct
2,new_learn,66,716,A,50.193254675068545,65.28311387573578,2.5096627337534274,1.0254647547773872,B,545,Incorrect
2,new_learn,66,717,B,11.736800297060597,62.433978671906544,0.5868400148530298,0.9807106436502172,B,1231,Correct
2,new_learn,66,718,B,24.82440816666274,62.088533958508194,1.2412204083331368,0.9752844107810488,B,784,Correct
2,new_learn,66,719,A,81.56446517188897,43.6410771352305,4.0782232585944485,0.6855124366139282,A,700,Correct
2,new_learn,66,720,A,36.830806948051425,78.80226421766761,1.841540347402571,1.237823071762332,A,678,Correct
2,new_learn,66,721,A,54.911839780361156,61.65454550454806,2.745591989018058,0.968467336087529,A,1501,Correct
2,new_learn,66,722,A,65.34673160263593,66.32891848895892,3.2673365801317966,1.0418922152273475,A,721,Correct
2,new_learn,66,723,A,74.93998493273848,54.52871772862785,3.746999246636924,0.8565350951296439,A,607,Correct
2,new_learn,66,724,B,37.27249885617132,46.05834700075639,1.863624942808566,0.7234828228703288,B,1008,Correct
2,new_learn,66,725,A,77.47592346744564,52.29902755292305,3.873796173372282,0.8215112037507663,A,759,Correct
2,new_learn,66,726,A,42.004155060452376,67.00870224120823,2.1002077530226186,1.0525702334378284,B,1088,Incorrect
2,new_learn,66,727,A,44.73803439984576,71.76593726439586,2.236901719992288,1.12729670643906,A,1051,Correct
2,new_learn,66,728,A,77.56345533410985,48.896496968875155,3.878172766705492,0.7680643783184689,A,604,Correct
2,new_learn,66,729,A,37.739627852311,84.29860516842754,1.88698139261555,1.3241593935249927,A,763,Correct
2,new_learn,66,730,B,63.89658932668142,13.992211952421187,3.194829466334071,0.21978915138598848,A,1186,Incorrect
2,new_learn,66,731,B,55.75197869982712,22.351906731350056,2.7875989349913564,0.3511029299046679,B,864,Correct
2,new_learn,66,732,A,76.2190099585365,44.06611444816715,3.810950497926825,0.6921889071130447,A,687,Correct
2,new_learn,66,733,B,47.281438422618486,41.23038432585244,2.3640719211309245,0.6476453625139089,A,1596,Incorrect
2,new_learn,66,734,B,37.313654699622234,30.090092763156193,1.8656827349811118,0.47265407185283453,B,838,Correct
2,new_learn,66,735,B,31.767780561632335,42.680249140115315,1.5883890280816166,0.6704197857598418,B,912,Correct
2,new_learn,66,736,B,19.828195358342796,48.87054215910981,0.9914097679171399,0.7676566811200481,B,784,Correct
2,new_learn,66,737,A,59.76351927819563,65.00340199005875,2.988175963909782,1.0210710507515635,A,838,Correct
2,new_learn,66,738,B,18.393491463226944,52.8714686095591,0.9196745731613473,0.830503086841471,B,1376,Correct
2,new_learn,66,739,A,79.78070719399807,43.15886072509511,3.9890353596999035,0.6779377989563192,A,874,Correct
2,new_learn,66,740,B,12.243148149488718,63.99492544397769,0.6121574074744359,1.0052299382091343,B,963,Correct
2,new_learn,66,741,B,61.29594694954652,11.667444395613003,3.064797347477326,0.18327178799712607,A,677,Incorrect
2,new_learn,66,742,A,61.731046277073034,65.25841612169599,3.0865523138536513,1.025076803364129,A,583,Correct
2,new_learn,66,743,A,79.1489239271292,42.08276377936017,3.95744619635646,0.6610345076599627,A,675,Correct
2,new_learn,66,744,B,17.982202872498902,61.60404681258659,0.8991101436249451,0.9676741044891187,B,1306,Correct
2,new_learn,66,745,B,20.407864271881973,61.64848694879103,1.0203932135940987,0.9683721685162409,B,529,Correct
2,new_learn,66,746,A,78.38615973091906,37.011623634183664,3.9193079865459532,0.5813772245329089,A,1172,Correct
2,new_learn,66,747,A,41.41956440544659,78.04161739028903,2.0709782202723295,1.2258748593379873,B,1115,Incorrect
2,new_learn,66,748,A,37.22209401414453,83.97511972433819,1.8611047007072268,1.319078096051521,A,11256,Correct
2,new_learn,66,749,B,51.025449008391085,35.038461194745736,2.5512724504195545,0.5503828614125212,B,1056,Correct
2,new_learn,66,750,B,32.41991393497881,35.5395021279913,1.6209956967489405,0.5582531939876815,B,1044,Correct
2,new_learn,66,751,A,47.182116257478484,67.86185355364378,2.359105812873924,1.0659715029155687,A,845,Correct
2,new_learn,66,752,A,55.4228617851904,71.20960255655893,2.77114308925952,1.1185578212836722,A,635,Correct
2,new_learn,66,753,B,28.287157850664336,58.706430434499026,1.4143578925332168,0.922158452857512,A,1017,Incorrect
2,new_learn,66,754,B,44.44450050102158,39.21310614240381,2.2222250250510793,0.6159580309070629,A,995,Incorrect
2,new_learn,66,755,A,82.43215999516698,31.75253846950092,4.12160799975835,0.4987677079430569,A,1308,Correct
2,new_learn,66,756,B,54.351860710523795,37.30310099753336,2.71759303552619,0.5859557402498445,A,2569,Incorrect
2,new_learn,66,757,A,76.16088913670684,41.093001506090715,3.8080444568353418,0.6454873582274445,A,9130,Correct
2,new_learn,66,758,B,38.73432116436115,44.04038421025708,1.9367160582180574,0.6917847374810778,B,998,Correct
2,new_learn,66,759,B,26.105257042094298,46.085081090272425,1.305262852104715,0.7239027609664488,B,856,Correct
2,new_learn,66,760,B,18.044336640486776,52.401877864978395,0.9022168320243388,0.8231267726746286,B,517,Correct
2,new_learn,66,761,A,43.885610067902434,84.42218817619298,2.1942805033951216,1.3261006308715149,A,1031,Correct
2,new_learn,66,762,A,54.782328054786504,62.207905364827496,2.739116402739325,0.9771594924467556,A,1489,Correct
2,new_learn,66,763,B,18.496937592439505,52.57505028660712,0.9248468796219753,0.8258469587125944,B,930,Correct
2,new_learn,66,764,A,57.43639103297111,56.499619919552984,2.871819551648555,0.8874939543494158,A,936,Correct
2,new_learn,66,765,A,44.733653971051375,67.45761062820795,2.2366826985525687,1.059621669891494,A,661,Correct
2,new_learn,66,766,A,49.19306874410277,59.34499305685213,2.459653437205138,0.9321889710737198,A,680,Correct
2,new_learn,66,767,B,28.84532093725001,46.16380630471211,1.4422660468625004,0.7251393737431288,B,1172,Correct
2,new_learn,66,768,B,41.88692763323046,49.1148762297072,2.094346381661523,0.7714946717261005,A,1469,Incorrect
2,new_learn,66,769,B,13.483120150447888,63.18065403420135,0.6741560075223945,0.9924393928142266,B,928,Correct
2,new_learn,66,770,B,55.21940259194198,28.607323196098974,2.760970129597099,0.4493627819586671,B,859,Correct
2,new_learn,66,771,B,16.63550101119833,64.68266244066707,0.8317750505599164,1.0160328856911405,B,850,Correct
2,new_learn,66,772,A,72.40573789102766,43.318924762276986,3.620286894551383,0.6804520789728918,A,815,Correct
2,new_learn,66,773,A,80.98782161002278,49.11104915604906,4.049391080501139,0.7714345561936546,A,556,Correct
2,new_learn,66,774,A,53.19722663926017,56.595756750520955,2.6598613319630084,0.8890040681589579,A,636,Correct
2,new_learn,66,775,B,50.67538973372651,37.310333183745406,2.533769486686326,0.5860693431652103,B,1367,Correct
2,new_learn,66,776,B,47.672790207010614,23.207649771716476,2.383639510350531,0.36454491014954654,B,985,Correct
2,new_learn,66,777,B,25.2786168427971,51.932646851524545,1.263930842139855,0.815756109151113,A,1926,Incorrect
2,new_learn,66,778,B,23.56772518005061,59.690591451857074,1.1783862590025305,0.9376176179679194,B,808,Correct
2,new_learn,66,779,B,63.43993087833888,12.624652522705958,3.1719965439169435,0.19830757809728444,B,1021,Correct
2,new_learn,66,780,A,76.36540376757455,44.54470753258621,3.8182701883787273,0.6997066297033938,B,697,Incorrect
2,new_learn,66,781,A,61.638311354828645,71.48746828817175,3.0819155677414325,1.1229225259892686,A,588,Correct
2,new_learn,66,782,A,59.939337173074556,64.96561197200957,2.9969668586537277,1.0204774465361517,A,571,Correct
2,new_learn,66,783,B,28.30020491737247,41.818975404611095,1.4150102458686233,0.6568909295588924,B,917,Correct
2,new_learn,66,784,A,81.71117876138383,40.91164367389378,4.085558938069192,0.6426385960609401,A,719,Correct
2,new_learn,66,785,B,38.80894251993017,44.58553445397911,1.9404471259965084,0.7003479374849768,B,686,Correct
2,new_learn,66,786,B,46.3672586088459,43.834972430879226,2.3183629304422952,0.6885581367958065,B,618,Correct
2,new_learn,66,787,A,52.34289825469954,61.89892399374906,2.617144912734977,0.9723060244193751,B,592,Incorrect
2,new_learn,66,788,A,56.62312574333892,74.71529405509125,2.831156287166946,1.173625094571379,A,569,Correct
2,new_learn,66,789,A,35.176820227042995,86.80787931802628,1.7588410113521495,1.3635749796961034,A,1226,Correct
2,new_learn,66,790,A,69.91703726521797,60.51282414863455,3.4958518632608984,0.9505332189666067,A,890,Correct
2,new_learn,66,791,A,47.67651204665462,78.75169460309085,2.383825602332731,1.2370287261140858,A,719,Correct
2,new_learn,66,792,B,52.567528312547736,24.20373892317164,2.6283764156273866,0.38019144195220683,B,689,Correct
2,new_learn,66,793,A,45.42302728882384,68.33078320078215,2.271151364441192,1.0733374325880702,A,636,Correct
2,new_learn,66,794,B,33.68854892144322,53.19470262195208,1.6844274460721609,0.8355804348350918,B,798,Correct
2,new_learn,66,795,A,58.23332770781923,48.793462872398315,2.9116663853909612,0.7664459225156643,A,782,Correct
2,new_learn,66,796,A,82.33998755495023,40.691013433515906,4.116999377747511,0.6391729443492858,A,634,Correct
2,new_learn,66,797,B,51.59517076990657,36.199894810699874,2.5797585384953283,0.56862661799009,B,1250,Correct
2,new_learn,66,798,B,53.356273878533955,37.618091431372754,2.6678136939266976,0.5909035984143489,B,766,Correct
2,new_learn,66,799,A,53.12310403753549,60.66332865343061,2.656155201876775,0.9528973381996041,A,1142,Correct
2,new_learn,66,800,A,46.223830449924606,72.81769282600729,2.3111915224962303,1.1438176441677135,A,560,Correct
2,new_learn,66,801,A,64.72578395609447,44.45799351089467,3.2362891978047235,0.6983445290358469,B,988,Incorrect
2,new_learn,66,802,A,67.38212643453346,51.44493428744179,3.3691063217266732,0.8080951381091839,A,651,Correct
2,new_learn,66,803,B,34.408443756453735,44.48564797070624,1.7204221878226866,0.698778924274762,B,786,Correct
2,new_learn,66,804,A,46.68531048889384,67.02388704105888,2.334265524444692,1.0528087557161137,A,1064,Correct
2,new_learn,66,805,A,45.49629280744108,81.91456637078446,2.274814640372054,1.2867109996622499,A,539,Correct
2,new_learn,66,806,B,17.327470621304386,52.88135676988465,0.8663735310652193,0.8306584097006524,B,819,Correct
2,new_learn,66,807,B,55.245533146296076,18.326868605701378,2.762276657314804,0.2878777788748843,B,823,Correct
2,new_learn,66,808,A,31.2934013869691,86.02528954202151,1.564670069348455,1.351282088240748,A,671,Correct
2,new_learn,66,809,B,55.66142652781328,16.259646728979277,2.7830713263906643,0.255405933568633,B,867,Correct
2,new_learn,66,810,A,35.36427098626443,83.80139693255128,1.7682135493132216,1.3163492648193267,A,645,Correct
2,new_learn,66,811,A,60.59160562845574,72.04341645273949,3.029580281422787,1.131655339337182,A,846,Correct
2,new_learn,66,812,A,55.12465581472817,65.345554284152,2.7562327907364086,1.0264455664192247,A,1490,Correct
2,new_learn,66,813,A,45.266935154930835,70.118999357164,2.2633467577465414,1.1014266662876693,A,696,Correct
2,new_learn,66,814,A,52.749546609761445,69.09244339544583,2.637477330488072,1.085301562948506,B,779,Incorrect
2,new_learn,66,815,A,58.08193915036919,58.85578674725511,2.9040969575184596,0.9245045363321207,A,1122,Correct
2,new_learn,66,816,B,33.31999594042146,43.60509779522299,1.6659997970210727,0.684947274462685,B,737,Correct
2,new_learn,66,817,B,30.13053147176548,38.467453398825214,1.506526573588274,0.6042453450002849,B,1314,Correct
2,new_learn,66,818,A,50.5661891898618,59.91470036467099,2.52830945949309,0.9411379125384204,A,537,Correct
2,new_learn,66,819,B,44.71599996424032,32.664116306766516,2.235799998212016,0.5130867391267012,B,1464,Correct
2,new_learn,66,820,B,41.65063007683739,44.771079891007716,2.0825315038418695,0.7032624783943577,B,813,Correct
2,new_learn,66,821,A,76.29997955205837,53.63153594970268,3.814998977602919,0.8424421967016141,A,650,Correct
2,new_learn,66,822,B,30.790739932536525,40.6910644010683,1.5395369966268262,0.6391737449457267,B,769,Correct
2,new_learn,66,823,A,53.8383037526622,59.74517579202233,2.69191518763311,0.9384750267782407,A,595,Correct
2,new_learn,66,824,A,72.15702300686976,38.02948827597315,3.607851150343488,0.597365804937882,A,750,Correct
2,new_learn,66,825,A,47.15895845568384,69.16557627328041,2.357947922784192,1.086450331507211,B,741,Incorrect
2,new_learn,66,826,A,48.92485091705605,63.14646326400883,2.4462425458528028,0.9919023254519395,B,776,Incorrect
2,new_learn,66,827,B,53.57410838893517,28.814871630481818,2.678705419446759,0.4526229451422731,B,787,Correct
2,new_learn,66,828,B,59.133409397562914,19.93272921233472,2.9566704698781456,0.31310257829732707,B,1189,Correct
2,new_learn,66,829,B,37.23962537281418,45.262382641669994,1.861981268640709,0.7109798439552032,B,868,Correct
2,new_learn,66,830,B,53.84302886690669,33.78824248049882,2.6921514433453346,0.5307444717722284,B,2149,Correct
2,new_learn,66,831,B,62.985632237421626,15.633852063065987,3.149281611871081,0.2455759739431887,A,627,Incorrect
2,new_learn,66,832,A,71.10661204646388,47.07045355250744,3.5553306023231936,0.7393809554084847,A,682,Correct
2,new_learn,66,833,B,40.09469600461527,31.361636475041195,2.004734800230764,0.4926274337727155,B,685,Correct
2,new_learn,66,834,B,22.05156485706067,52.46058246789583,1.1025782428530335,0.8240489024209152,B,618,Correct
2,new_learn,66,835,A,37.958455758652015,76.94098082995062,1.8979227879326006,1.2085861006768297,A,1449,Correct
2,new_learn,66,836,B,42.84938415086611,30.82177859938062,2.1424692075433054,0.4841473660919263,B,599,Correct
2,new_learn,66,837,A,65.2100937767859,43.255349779012164,3.260504688839295,0.6794534454710075,A,1252,Correct
2,new_learn,66,838,B,28.269889429596212,38.645828514977445,1.4134944714798108,0.6070472547727205,B,705,Correct
2,new_learn,66,839,A,77.10330408306068,46.33004876055422,3.8551652041530335,0.7277507041330702,A,568,Correct
2,new_learn,66,840,B,14.686812557931574,66.71766424877293,0.7343406278965787,1.047998619343077,B,644,Correct
2,new_learn,66,841,B,41.94106535034298,32.611154411998754,2.0970532675171487,0.5122548156290883,B,2058,Correct
2,new_learn,66,842,A,39.82150110754722,78.28390628523647,1.991075055377361,1.2296807244000536,A,633,Correct
2,new_learn,66,843,B,37.91832202715598,51.00720390671099,1.895916101357799,0.8012192853673993,A,644,Incorrect
2,new_learn,66,844,B,46.83227400247958,37.65507240662052,2.341613700123979,0.5914844942151537,A,1119,Incorrect
2,new_learn,66,845,A,64.33940761627272,50.6354537478956,3.2169703808136365,0.7953798475278729,A,681,Correct
2,new_learn,66,846,B,39.010898330511445,45.87628002560322,1.9505449165255724,0.720622921512316,B,762,Correct
2,new_learn,66,847,B,59.669846217854385,13.325270020358403,2.9834923108927196,0.20931285201529137,B,999,Correct
2,new_learn,66,848,A,74.75616172456422,36.874683437386345,3.737808086228211,0.5792261729517107,A,1672,Correct
2,new_learn,66,849,A,52.575025479594615,63.74732836678561,2.6287512739797307,1.0013406924153496,A,1584,Correct
2,new_learn,66,850,A,59.601677094617195,49.04795662228863,2.98008385473086,0.770443500990864,A,509,Correct
2,new_learn,66,851,B,22.533184260609755,50.26800458565528,1.1266592130304878,0.7896079695845634,B,806,Correct
2,new_learn,66,852,B,29.57127168403583,59.33573243687742,1.4785635842017912,0.9320435055953185,B,848,Correct
2,new_learn,66,853,A,65.40540643391778,66.36572383405809,3.270270321695889,1.0424703522362295,A,734,Correct
2,new_learn,66,854,B,54.28818257950212,25.193311107234265,2.714409128975106,0.3957356054704465,B,2611,Correct
2,new_learn,66,855,A,60.86350117617924,67.56367411310406,3.043175058808962,1.0612877112163128,A,654,Correct
2,new_learn,66,856,B,53.68481033648529,30.282120351142964,2.6842405168242647,0.47567043415136356,B,2132,Correct
2,new_learn,66,857,B,21.487992396523666,63.26781839917177,1.0743996198261834,0.9938085674574559,B,687,Correct
2,new_learn,66,858,B,26.36159764529249,48.568534934438915,1.3180798822646245,0.7629127627282627,B,875,Correct
2,new_learn,66,859,A,78.73080796522802,42.59921437761362,3.936540398261401,0.6691468946870381,A,656,Correct
2,new_learn,66,860,B,55.21576907869146,28.93226411210233,2.760788453934573,0.4544669419315015,A,1450,Incorrect
2,new_learn,66,861,B,54.62735130449995,18.20834351418172,2.7313675652249976,0.28601599109096326,B,559,Correct
2,new_learn,66,862,B,25.982185725351137,47.758562916127055,1.2991092862675568,0.7501897520165535,B,1015,Correct
2,new_learn,66,863,B,20.510070237977356,57.53829899058009,1.0255035118988678,0.9038094870442971,B,761,Correct
2,new_learn,66,864,A,71.80435807719553,53.885978061248856,3.5902179038597763,0.8464389640436009,A,800,Correct
2,new_learn,66,865,B,16.204755723089292,60.4428980948021,0.8102377861544646,0.9494348230815339,B,779,Correct
2,new_learn,66,866,B,63.3007743290004,26.18302847750273,3.1650387164500198,0.4112820495682746,A,809,Incorrect
2,new_learn,66,867,B,42.60203846241992,39.65019047633961,2.130101923120996,0.6228237355695225,B,969,Correct
2,new_learn,66,868,B,56.36412032930461,22.01905679232833,2.818206016465231,0.34587453528877554,B,2016,Correct
2,new_learn,66,869,A,71.41148158244083,39.08211305897806,3.5705740791220415,0.613900396364256,A,1040,Correct
2,new_learn,66,870,B,41.7739422837881,27.978595077689818,2.0886971141894053,0.43948674376916935,B,750,Correct
2,new_learn,66,871,A,78.08120828322839,40.064352039505316,3.9040604141614197,0.6293293701907258,A,819,Correct
2,new_learn,66,872,A,54.75320679193887,76.40494668932926,2.737660339596944,1.200166096085583,B,1442,Incorrect
2,new_learn,66,873,A,73.99451957382573,46.15595617388799,3.6997259786912866,0.7250160641764948,A,699,Correct
2,new_learn,66,874,A,81.74651153427847,35.33893293628675,4.087325576713924,0.5551026604917042,A,737,Correct
2,new_learn,66,875,A,43.937366792631934,74.78355074533025,2.196868339631597,1.174697268154445,A,987,Correct
2,new_learn,66,876,B,45.04592314258311,27.223031240659736,2.2522961571291558,0.4276183747705103,B,1498,Correct
2,new_learn,66,877,B,52.25390333904644,32.03991290044772,2.612695166952322,0.503281774948517,A,2759,Incorrect
2,new_learn,66,878,B,47.70262611989605,32.19063828376872,2.3851313059948027,0.5056493637332707,B,897,Correct
2,new_learn,66,879,B,39.10618439357293,51.95431747948626,1.9553092196786466,0.816096510579129,A,1454,Incorrect
2,new_learn,66,880,B,36.44520075728499,46.38575724284409,1.8222600378642495,0.7286257709265926,B,603,Correct
2,new_learn,66,881,A,40.049180663277184,69.5735758586102,2.002459033163859,1.0928591740069098,A,865,Correct
2,new_learn,66,882,B,55.3664422262004,33.868882825415824,2.76832211131002,0.5320111673480993,A,1021,Incorrect
2,new_learn,66,883,A,60.058456803507084,71.88038756331181,3.002922840175354,1.1290944875304376,A,1031,Correct
2,new_learn,66,884,A,51.90465554846595,66.6254939972371,2.5952327774232975,1.0465508124175547,A,1401,Correct
2,new_learn,66,885,A,55.15642116759292,53.32643400778218,2.757821058379646,0.8376496666049472,A,1391,Correct
2,new_learn,66,886,A,78.68731000512786,33.75305989738911,3.934365500256393,0.5301918250490694,A,723,Correct
2,new_learn,66,887,B,58.549566375346764,31.94567776732407,2.927478318767338,0.5018015329388603,B,1595,Correct
2,new_learn,66,888,B,38.96615492891983,28.829125442911703,1.9483077464459913,0.45284684350435,B,665,Correct
2,new_learn,66,889,B,54.88979259005437,23.954545722295393,2.744489629502718,0.37627712430622,B,1080,Correct
2,new_learn,66,890,A,36.60140586648234,79.85755103045044,1.8300702933241169,1.2543994782546755,A,886,Correct
2,new_learn,66,891,B,60.744507058866944,14.368508366754227,3.037225352943347,0.2257000016401928,B,826,Correct
2,new_learn,66,892,A,64.38117598929553,48.121443107791535,3.219058799464776,0.7558898607378853,A,1523,Correct
2,new_learn,66,893,A,82.15596672100617,37.17225558939492,4.107798336050308,0.583900425385026,A,621,Correct
2,new_learn,66,894,B,52.722184568759225,26.9501330276926,2.6361092284379612,0.4233316996653337,B,981,Correct
2,new_learn,66,895,A,86.84566882246531,37.71650120318026,4.342283441123266,0.5924494154951085,A,665,Correct
2,new_learn,66,896,A,50.62970996631013,74.1684442653709,2.5314854983155066,1.1650351981613662,A,728,Correct
2,new_learn,66,897,B,32.42570078236119,45.06869281896189,1.6212850391180595,0.7079373713347287,B,656,Correct
2,new_learn,66,898,A,82.66122762142314,36.449179783909095,4.1330613810711565,0.5725423771925121,A,1148,Correct
