experiment,condition,subject,trial,cat,x,y,xt,yt,resp,rt,fb
2,relearn,65,0,B,80.8361152741776,59.24819258312368,4.04180576370888,0.930668432788073,B,1654,Correct
2,relearn,65,1,A,67.2803734186327,85.43021765981237,3.3640186709316358,1.3419347209732178,B,866,Incorrect
2,relearn,65,2,A,55.235023943873564,80.85040295169496,2.7617511971936786,1.269995159764097,A,795,Correct
2,relearn,65,3,A,66.36337482691616,82.9543309669527,3.3181687413458074,1.3030435837461742,A,625,Correct
2,relearn,65,4,B,63.16363366523729,46.33111359101507,3.1581816832618648,0.7277674304508358,B,756,Correct
2,relearn,65,5,B,30.388802572538197,11.977973307900037,1.51944012862691,0.1881495647449669,B,806,Correct
2,relearn,65,6,B,67.81507231830044,49.55967507000093,3.3907536159150222,0.7784815555710607,B,1146,Correct
2,relearn,65,7,B,43.90944070724389,27.79141200162298,2.1954720353621946,0.43654647888592973,A,834,Incorrect
2,relearn,65,8,B,50.70926767248686,37.03478114038704,2.535463383624343,0.5817409817897287,B,626,Correct
2,relearn,65,9,B,33.60117211562431,12.516709412889067,1.6800586057812155,0.19661201169325251,B,545,Correct
2,relearn,65,10,A,62.01314245165609,76.33304089061721,3.1006571225828043,1.1990366024406616,A,543,Correct
2,relearn,65,11,B,39.39864151667195,20.568666826405668,1.9699320758335974,0.32309186297986064,B,720,Correct
2,relearn,65,12,B,56.297002544487775,37.26500189181101,2.8148501272243887,0.5853572808966161,B,679,Correct
2,relearn,65,13,A,42.3272165215008,64.43767186932513,2.11636082607504,1.0121845827955074,A,565,Correct
2,relearn,65,14,A,17.33496467054372,36.42100282599639,0.8667482335271859,0.5720997745726166,B,918,Incorrect
2,relearn,65,15,B,53.37623977934286,41.14865849925248,2.668811988967143,0.6463616162316339,B,1060,Correct
2,relearn,65,16,A,23.23950307031354,34.70552911734895,1.1619751535156768,0.5451531765700506,A,788,Correct
2,relearn,65,17,B,79.10406205789377,57.53453143357861,3.9552031028946883,0.903750306397308,A,676,Incorrect
2,relearn,65,18,A,17.47391232672707,31.391232949202756,0.8736956163363536,0.49309233410170616,A,626,Correct
2,relearn,65,19,B,83.92468846104634,55.57808127227683,4.196234423052317,0.8730184591280069,B,477,Correct
2,relearn,65,20,A,16.064509693651797,39.21554162039189,0.8032254846825899,0.6159962873058396,A,415,Correct
2,relearn,65,21,A,20.72413802246951,36.78888626910595,1.0362069011234754,0.5778784741838684,A,855,Correct
2,relearn,65,22,A,35.16047422877716,54.55803314812554,1.7580237114388582,0.856995580662298,A,613,Correct
2,relearn,65,23,B,79.25131328934347,66.94313210230399,3.9625656644671734,1.0515402601044463,B,467,Correct
2,relearn,65,24,A,47.94966823231296,57.47620888266358,2.3974834116156476,0.9028341779098417,B,562,Incorrect
2,relearn,65,25,A,34.29824311940632,62.94053426362732,1.7149121559703162,0.9886676002781413,A,620,Correct
2,relearn,65,26,B,56.164343495846865,43.49042942409232,2.8082171747923432,0.6831460679009691,B,583,Correct
2,relearn,65,27,B,57.45047528419546,35.40271872853396,2.8725237642097734,0.5561046053733403,B,681,Correct
2,relearn,65,28,B,67.83334719615064,44.54332998387597,3.3916673598075318,0.6996849912188535,B,552,Correct
2,relearn,65,29,A,25.23734852617486,56.35938763776512,1.2618674263087428,0.8852911908181115,A,680,Correct
2,relearn,65,30,B,35.5937457289592,11.126453381048691,1.7796872864479598,0.1747739210120594,B,569,Correct
2,relearn,65,31,A,36.627198446852496,66.3542107163367,1.831359922342625,1.0422895046059626,A,690,Correct
2,relearn,65,32,B,55.40528993257345,28.439433044477276,2.7702644966286725,0.44672556962394305,B,671,Correct
2,relearn,65,33,A,15.684209523280927,45.44631525718406,0.7842104761640464,0.713869050723476,A,551,Correct
2,relearn,65,34,A,69.47223657668576,84.32103540521847,3.473611828834288,1.324511726860596,B,491,Incorrect
2,relearn,65,35,B,68.6848462434464,39.93849649015395,3.43424231217232,0.627352435844447,A,560,Incorrect
2,relearn,65,36,B,53.19029361068614,23.45818227956973,2.659514680534307,0.36848026558033264,B,674,Correct
2,relearn,65,37,A,57.25978020240706,81.6951014809378,2.862989010120353,1.283263653233934,B,951,Incorrect
2,relearn,65,38,A,30.99682299337146,46.15587834400813,1.5498411496685731,0.725014841627601,B,828,Incorrect
2,relearn,65,39,B,44.33002652852929,30.436939563776274,2.2165013264264646,0.47810232865658037,A,792,Incorrect
2,relearn,65,40,A,24.1894629827243,35.30164749221724,1.2094731491362152,0.5545169821058311,A,681,Correct
2,relearn,65,41,A,50.71943899299954,63.66485912290144,2.535971949649977,1.0000452685616814,B,1190,Incorrect
2,relearn,65,42,B,50.09216122416331,27.913129001069773,2.5046080612081654,0.438458405042325,B,874,Correct
2,relearn,65,43,B,77.47547322262122,49.73473858823031,3.8737736611310605,0.7812314468849656,B,1434,Correct
2,relearn,65,44,B,72.07778537936476,44.668516448080354,3.6038892689682376,0.7016514156002205,B,850,Correct
2,relearn,65,45,A,43.24275274529998,71.55007633350706,2.162137637264999,1.1239059708656736,B,1827,Incorrect
2,relearn,65,46,B,53.253088857129164,30.189360598453757,2.662654442856458,0.4742133673633774,B,633,Correct
2,relearn,65,47,B,52.86900980781792,26.890834615229586,2.643450490390896,0.4224002423805169,B,655,Correct
2,relearn,65,48,A,50.56894912088039,78.35592630775301,2.5284474560440198,1.2308120122683004,A,948,Correct
2,relearn,65,49,B,39.20967145754989,25.46619747403209,1.9604835728774943,0.4000220944964308,B,638,Correct
2,relearn,65,50,A,25.569424450047613,37.35924841781669,1.2784712225023807,0.586837701865245,B,1648,Incorrect
2,relearn,65,51,A,49.31686821837918,58.16928022751486,2.465843410918959,0.9137209171368336,B,547,Incorrect
2,relearn,65,52,A,24.07802230780378,51.14992148504345,1.203901115390189,0.8034610878455362,A,618,Correct
2,relearn,65,53,B,47.329826762295546,25.07337229796216,2.3664913381147774,0.3938516110599987,B,785,Correct
2,relearn,65,54,A,37.436956397154596,56.28624491897279,1.87184781985773,0.8841422676780036,A,932,Correct
2,relearn,65,55,A,49.31959322988645,64.27959292006813,2.4659796614943224,1.0097014844671426,A,725,Correct
2,relearn,65,56,B,72.77722564693758,56.08430059928611,3.638861282346879,0.8809701337221945,A,758,Incorrect
2,relearn,65,57,B,59.07782698117495,48.37280119084967,2.9538913490587477,0.7598381842736646,B,537,Correct
2,relearn,65,58,A,69.04205236155954,89.05914340176433,3.452102618077977,1.3989377532299134,A,2122,Correct
2,relearn,65,59,A,37.886337721267616,55.83052935506813,1.8943168860633808,0.8769839043395566,B,773,Incorrect
2,relearn,65,60,B,66.08046339819829,32.765831382767516,3.3040231699099145,0.5146844758043215,B,762,Correct
2,relearn,65,61,A,55.0548634814764,79.48065147994413,2.75274317407382,1.2484791539596158,A,1252,Correct
2,relearn,65,62,A,13.402881342889529,38.54225909492471,0.6701440671444765,0.6054203901268493,A,1638,Correct
2,relearn,65,63,A,38.93457537740236,63.50277163628994,1.946728768870118,0.9974992042757939,B,1116,Incorrect
2,relearn,65,64,B,63.49584438406509,54.440439748635086,3.1747922192032543,0.8551484278625486,A,1821,Incorrect
2,relearn,65,65,A,46.08968858451326,76.0950987431567,2.304484429225663,1.1952990159284547,A,609,Correct
2,relearn,65,66,B,58.52090323550006,42.524908134325656,2.9260451617750025,0.6679796949468916,B,678,Correct
2,relearn,65,67,A,53.82617196437352,72.6588092278162,2.691308598218676,1.1413219064434483,A,694,Correct
2,relearn,65,68,B,60.62746561630054,34.8157838188431,3.0313732808150267,0.5468850533712394,A,681,Incorrect
2,relearn,65,69,B,54.14231667985585,34.47016047684691,2.707115833992793,0.5414560146106174,B,764,Correct
2,relearn,65,70,A,37.94192889632161,62.9217840184808,1.8970964448160805,0.9883730721161146,B,626,Incorrect
2,relearn,65,71,B,56.57812683815511,33.81209045989894,2.8289063419077554,0.5311190749566602,A,573,Incorrect
2,relearn,65,72,B,55.55144593097149,44.41958250135958,2.7775722965485743,0.6977411703089847,B,664,Correct
2,relearn,65,73,B,75.16314325164761,60.32728318063694,3.7581571625823806,0.9476187482566006,B,1567,Correct
2,relearn,65,74,B,63.01267984659294,48.58870421784777,3.150633992329647,0.7632295810911897,A,2427,Incorrect
2,relearn,65,75,B,50.323127044137834,37.824309400303875,2.5161563522068917,0.5941428626955101,B,534,Correct
2,relearn,65,76,A,56.037542624411174,72.80049044994104,2.8018771312205586,1.1435474298763433,B,476,Incorrect
2,relearn,65,77,A,55.92197574203493,72.55634626747778,2.7960987871017466,1.139712422026127,A,528,Correct
2,relearn,65,78,B,68.87180082167978,60.00167701432619,3.4435900410839895,0.9425041385563735,A,694,Incorrect
2,relearn,65,79,A,44.802159159771556,57.3113411559053,2.240107957988578,0.9002444417138523,B,548,Incorrect
2,relearn,65,80,B,77.89877963352862,57.076076225953074,3.894938981676431,0.8965489088359261,B,1508,Correct
2,relearn,65,81,B,63.78396776505353,36.963475300348094,3.189198388252677,0.5806209122736068,B,625,Correct
2,relearn,65,82,A,58.45667620037385,67.24343142088354,2.922833810018693,1.0562573507700839,B,673,Incorrect
2,relearn,65,83,A,51.352572090393174,67.97971314586906,2.567628604519659,1.0678228370610188,A,604,Correct
2,relearn,65,84,A,54.123212218030396,83.6149062882958,2.7061606109015197,1.3134198766295453,A,3533,Correct
2,relearn,65,85,A,50.76156715504385,62.319586200721616,2.5380783577521924,0.9789137709147143,B,1362,Incorrect
2,relearn,65,86,B,82.91987023854216,66.64332519907379,4.145993511927108,1.0468309042810287,B,1441,Correct
2,relearn,65,87,A,29.089897773263296,41.39865028572457,1.4544948886631648,0.6502884780308265,A,630,Correct
2,relearn,65,88,A,20.681761559887903,49.66960965426041,1.034088077994395,0.7802084039824859,A,668,Correct
2,relearn,65,89,A,29.36706576310903,41.86428196187423,1.4683532881554515,0.6576026032961788,A,628,Correct
2,relearn,65,90,B,66.40571672953786,41.795878225307156,3.320285836476893,0.6565281199147929,B,566,Correct
2,relearn,65,91,A,45.93302682901486,60.40018234673095,2.296651341450743,0.9487638456798694,B,772,Incorrect
2,relearn,65,92,B,63.813747820550624,42.36018423575778,3.1906873910275313,0.665392217998834,A,475,Incorrect
2,relearn,65,93,A,25.330827334496245,55.57211431088224,1.2665413667248122,0.8729247303175992,A,577,Correct
2,relearn,65,94,B,32.54631453139581,14.911962564272557,1.6273157265697904,0.2342365602126234,B,600,Correct
2,relearn,65,95,B,36.73655576115095,10.876416875315922,1.8368277880575477,0.17084635676436274,B,778,Correct
2,relearn,65,96,A,29.530566126511502,45.716619602544895,1.4765283063255752,0.7181149814515709,B,853,Incorrect
2,relearn,65,97,B,45.70864107191977,29.974878965016686,2.2854320535959887,0.47084429774369824,B,1045,Correct
2,relearn,65,98,A,22.551417332900076,40.33719968841706,1.1275708666450037,0.6336152510375775,A,531,Correct
2,relearn,65,99,A,15.762224283295872,31.305406223066704,0.7881112141647936,0.4917441710401528,A,811,Correct
2,relearn,65,100,B,78.41608689686076,53.55525786267225,3.920804344843038,0.8412440233123907,B,922,Correct
2,relearn,65,101,A,52.94684922548118,77.69103725197449,2.647342461274059,1.2203679594028702,B,700,Incorrect
2,relearn,65,102,A,45.51706174361228,63.751698408637324,2.275853087180614,1.0014093368722357,A,594,Correct
2,relearn,65,103,A,42.23535683449883,55.11638007049751,2.1117678417249413,0.8657660736096895,A,3036,Correct
2,relearn,65,104,A,37.87918850825703,47.97040322610547,1.8939594254128513,0.7535173318243652,A,648,Correct
2,relearn,65,105,B,38.38705099474865,22.276769891811167,1.9193525497374324,0.3499226831891213,B,695,Correct
2,relearn,65,106,B,51.662097300824136,25.285685952768212,2.5831048650412067,0.3971866261509762,B,613,Correct
2,relearn,65,107,A,24.840634324539458,54.36946305970716,1.2420317162269727,0.8540335286399882,A,644,Correct
2,relearn,65,108,B,52.50869866861733,38.83097086206323,2.6254349334308666,0.6099554639600859,B,667,Correct
2,relearn,65,109,A,12.294440709366768,38.769320293847805,0.6147220354683384,0.6089870590991097,A,649,Correct
2,relearn,65,110,B,58.64709751732059,31.97956352383697,2.9323548758660296,0.5023338091574716,B,662,Correct
2,relearn,65,111,B,37.09003503956021,22.752637701053764,1.8545017519780105,0.35739759725710335,B,754,Correct
2,relearn,65,112,A,36.693611748310694,61.26375160181645,1.8346805874155347,0.9623287598180825,A,670,Correct
2,relearn,65,113,B,72.8346526770528,42.11275072790886,3.6417326338526403,0.6615055415462835,B,649,Correct
2,relearn,65,114,B,46.87652261574734,20.66951597673511,2.343826130787367,0.32467599772883937,A,727,Incorrect
2,relearn,65,115,B,62.19771364782703,44.453295450349096,3.109885682391351,0.6982707320733664,A,894,Incorrect
2,relearn,65,116,A,34.230963620300656,67.43001705029616,1.7115481810150328,1.0591882309832246,A,607,Correct
2,relearn,65,117,A,17.813810604532733,39.12885031140554,0.8906905302266367,0.6146345434086317,A,573,Correct
2,relearn,65,118,B,54.7406633493818,38.17147728992702,2.7370331674690895,0.5995961631535217,B,679,Correct
2,relearn,65,119,A,46.5025690376944,68.20921648570778,2.32512845188472,1.071427867093077,B,515,Incorrect
2,relearn,65,120,B,70.04188667214657,49.06654280272121,3.502094333607329,0.7707354520303906,A,547,Incorrect
2,relearn,65,121,A,46.75734314717584,62.82967642243257,2.337867157358792,0.9869262493806901,B,627,Incorrect
2,relearn,65,122,B,49.348394606187966,31.531612007411475,2.4674197303093983,0.49529740319163795,B,1766,Correct
2,relearn,65,123,A,46.17910741202377,63.28155595108597,2.3089553706011885,0.9940243564183157,A,698,Correct
2,relearn,65,124,B,49.40944298799294,41.83544356848874,2.470472149399647,0.6571496108721728,B,2394,Correct
2,relearn,65,125,A,14.149504099397511,42.99010745478783,0.7074752049698756,0.6752870287849864,A,654,Correct
2,relearn,65,126,A,42.64224384662835,54.79466573297765,2.1321121923314172,0.8607125966131548,B,769,Incorrect
2,relearn,65,127,A,25.98639147967793,57.350142119660944,1.2993195739838965,0.900853925827287,A,470,Correct
2,relearn,65,128,B,44.8023702599343,26.861484156759026,2.2401185129967147,0.42193920645696387,B,1241,Correct
2,relearn,65,129,A,61.041533960510804,79.72867124088206,3.0520766980255405,1.2523750392541546,A,851,Correct
2,relearn,65,130,B,76.49172969691342,52.02491106588019,3.824586484845671,0.8172053920411577,B,3347,Correct
2,relearn,65,131,A,28.14959860574958,43.76071075635163,1.4074799302874792,0.6873916371401105,A,1158,Correct
2,relearn,65,132,A,41.92076192417421,66.8937779981751,2.0960380962087104,1.0507650076496673,A,1083,Correct
2,relearn,65,133,A,17.95791183182521,36.13872282198835,0.8978955915912605,0.5676657306383821,A,618,Correct
2,relearn,65,134,A,46.230647225005825,73.7504050674695,2.3115323612502916,1.1584686537961681,B,624,Incorrect
2,relearn,65,135,A,45.32629041951072,64.77583239471366,2.266314520975536,1.017496395906981,A,557,Correct
2,relearn,65,136,B,55.07151501418876,33.91567431450088,2.7535757507094383,0.5327461663399001,B,1084,Correct
2,relearn,65,137,B,68.24509701408097,51.23063540944466,3.4122548507040484,0.8047289392052421,B,1025,Correct
2,relearn,65,138,A,40.55149553138909,52.50089508565467,2.0275747765694545,0.8246821315399059,B,672,Incorrect
2,relearn,65,139,A,53.21627710263486,68.83459688113041,2.6608138551317433,1.0812513193728708,A,824,Correct
2,relearn,65,140,B,80.74836799768104,62.58852610638924,4.037418399884052,0.9831382690742271,B,718,Correct
2,relearn,65,141,A,22.498306577726066,42.48724714697036,1.1249153288863034,0.6673881175408799,A,651,Correct
2,relearn,65,142,A,46.75047422830771,74.58965715760957,2.3375237114153857,1.1716515948006379,B,579,Incorrect
2,relearn,65,143,A,43.44157003716818,55.335613289764495,2.1720785018584086,0.8692097809650494,A,635,Correct
2,relearn,65,144,A,46.19968195539866,61.30609862669903,2.309984097769933,0.962993945329445,A,713,Correct
2,relearn,65,145,B,47.84410104902055,27.69262116566183,2.392205052451027,0.4349946760634421,B,2402,Correct
2,relearn,65,146,B,45.77998042788897,18.04146430200565,2.2889990213944484,0.28339465855591733,B,908,Correct
2,relearn,65,147,B,57.48628229400268,49.265186504529346,2.8743141147001334,0.7738557400018021,B,703,Correct
2,relearn,65,148,B,69.10056519037465,38.49177213635747,3.4550282595187327,0.6046273428361646,B,617,Correct
2,relearn,65,149,B,55.71753535278989,29.860778316858266,2.7858767676394947,0.46905200895357657,B,489,Correct
2,relearn,65,150,A,48.15631862625279,73.29818434623726,2.4078159313126393,1.1513651873180468,A,661,Correct
2,relearn,65,151,A,40.394418902249896,51.1921947352144,2.019720945112495,0.8041251145064382,A,997,Correct
2,relearn,65,152,B,54.510989807221236,38.74032111429421,2.7255494903610615,0.6085315410518812,B,507,Correct
2,relearn,65,153,B,82.78659518369126,62.983502042040186,4.139329759184563,0.989342536563156,B,605,Correct
2,relearn,65,154,B,70.53708809311301,47.501639644126215,3.526854404655651,0.7461540106972829,B,699,Correct
2,relearn,65,155,A,44.43674605459913,54.8109430026511,2.2218373027299565,0.8609682793672877,A,749,Correct
2,relearn,65,156,B,48.35967513965958,29.615870187408866,2.417983756982979,0.46520500105216334,A,552,Incorrect
2,relearn,65,157,B,52.76992629026956,26.526980686671365,2.6384963145134783,0.4166848382358254,A,610,Incorrect
2,relearn,65,158,A,23.24090711162426,44.68664125184783,1.1620453555812131,0.7019361193520387,A,627,Correct
2,relearn,65,159,A,28.967524276667877,38.629751301280564,1.4483762138333938,0.6067947144905189,A,651,Correct
2,relearn,65,160,A,12.997330200039947,35.641252787061575,0.6498665100019975,0.5598514896028469,A,654,Correct
2,relearn,65,161,B,47.403704894730645,37.46013427091864,2.370185244736532,0.5884224131400261,B,1675,Correct
2,relearn,65,162,B,73.53039840547856,63.156594038254966,3.676519920273928,0.9920614592816737,A,846,Incorrect
2,relearn,65,163,A,51.967656777520865,82.26711414020419,2.5983828388760433,1.2922488070744924,A,699,Correct
2,relearn,65,164,A,59.07249396783175,77.7026890844484,2.9536246983915873,1.2205509859593744,B,469,Incorrect
2,relearn,65,165,B,37.93982720819746,19.023803299628533,1.896991360409873,0.29882520344725133,A,535,Incorrect
2,relearn,65,166,B,37.53671561852977,20.854383493319393,1.8768357809264884,0.3275798898887822,B,586,Correct
2,relearn,65,167,A,51.770751674084465,78.00660516570898,2.5885375837042233,1.2253248886003545,A,668,Correct
2,relearn,65,168,B,33.57703165135936,22.37503275039181,1.6788515825679682,0.3514661925623097,B,1973,Correct
2,relearn,65,169,A,61.83922031435128,75.41333923842181,3.091961015717564,1.184589962670504,A,738,Correct
2,relearn,65,170,B,63.126408567818764,37.54158584591835,3.156320428390938,0.5897018514882382,B,1008,Correct
2,relearn,65,171,A,20.714448934152145,40.347078210753864,1.0357224467076072,0.6337704225035858,A,733,Correct
2,relearn,65,172,A,23.56060550150288,52.09377278338255,1.178030275075144,0.8182870693702526,A,1716,Correct
2,relearn,65,173,B,41.87009650516713,29.838586738112237,2.0935048252583566,0.4687034244497761,B,793,Correct
2,relearn,65,174,A,40.81900898706191,52.268600920556004,2.0409504493530957,0.8210332633271773,A,819,Correct
2,relearn,65,175,B,81.32007629292117,62.56144697568364,4.066003814646058,0.9827129110837755,A,1883,Incorrect
2,relearn,65,176,A,51.168588642356156,71.55169761732306,2.5584294321178076,1.1239314379323022,B,847,Incorrect
2,relearn,65,177,A,30.81252940578866,59.72543941640269,1.540626470289433,0.9381650085149649,A,788,Correct
2,relearn,65,178,B,73.37019971999362,45.64769617812321,3.668509985999681,0.7170323348324538,A,619,Incorrect
2,relearn,65,179,A,14.932671941813485,37.39667311301966,0.7466335970906742,0.5874255676028075,A,514,Correct
2,relearn,65,180,B,68.25327252438711,54.26407350328273,3.4126636262193557,0.852378073358848,B,548,Correct
2,relearn,65,181,A,59.81747171614265,71.38572139449957,2.9908735858071327,1.1213242895208377,A,838,Correct
2,relearn,65,182,B,43.9977537496965,33.84653220283859,2.199887687484825,0.5316600845896404,B,1095,Correct
2,relearn,65,183,B,39.32186628831471,26.856258560703328,1.9660933144157355,0.4218571229860678,B,1467,Correct
2,relearn,65,184,A,34.29849334839357,58.950989513130935,1.7149246674196785,0.9259999778815055,A,620,Correct
2,relearn,65,185,B,62.73118238067318,47.5468143343391,3.136559119033659,0.7468636130717878,B,787,Correct
2,relearn,65,186,A,55.565596468757036,75.40543793872396,2.7782798234378516,1.1844658493450817,A,1147,Correct
2,relearn,65,187,A,16.714714895895945,36.21227842040675,0.8357357447947973,0.5688211392764901,B,763,Incorrect
2,relearn,65,188,B,50.24277627869295,22.22723375130825,2.5121388139346474,0.34914457131366555,A,584,Incorrect
2,relearn,65,189,B,61.29896964586053,41.156306201289176,3.0649484822930266,0.6464817460543106,B,740,Correct
2,relearn,65,190,B,44.001719027006324,14.615280747625736,2.200085951350316,0.22957629313446676,B,1134,Correct
2,relearn,65,191,A,46.349242375617436,54.60612851583418,2.317462118780872,0.8577510609316238,A,1615,Correct
2,relearn,65,192,B,54.00010107873895,34.943165904073574,2.700005053936948,0.5488859664870344,B,652,Correct
2,relearn,65,193,A,39.709061132209676,72.04279971842618,1.985453056610484,1.1316456516972424,A,570,Correct
2,relearn,65,194,B,72.57559305929446,55.740893369630804,3.6287796529647234,0.8755759055728207,A,704,Incorrect
2,relearn,65,195,A,37.5193765966994,63.52587407762687,1.8759688298349702,0.9978620965757143,A,593,Correct
2,relearn,65,196,B,79.24147906052505,48.65618582306026,3.9620739530262528,0.7642895796671298,B,1034,Correct
2,relearn,65,197,A,60.8472210565067,74.17152228733622,3.0423610528253344,1.1650835476173353,A,912,Correct
2,relearn,65,198,B,76.2960854866509,44.568543768316246,3.8148042743325448,0.7000810484186873,B,916,Correct
2,relearn,65,199,A,55.96847431984112,68.90022522909538,2.798423715992056,1.0822822070520408,A,1973,Correct
2,relearn,65,200,A,68.14413908469085,85.87560177513015,3.4072069542345425,1.3489307982967573,A,530,Correct
2,relearn,65,201,B,67.84822598009767,44.59906295696149,3.392411299004883,0.7005604427128944,B,2507,Correct
2,relearn,65,202,A,25.194135361791865,37.36304652108904,1.2597067680895933,0.586897362331935,A,692,Correct
2,relearn,65,203,B,71.89643186280728,46.61633595386563,3.594821593140364,0.7322476928496898,B,931,Correct
2,relearn,65,204,B,63.526359220794035,35.87185532103165,3.1763179610397017,0.5634737857359448,B,940,Correct
2,relearn,65,205,B,73.21468057436054,55.36896421602056,3.660734028718027,0.8697336560896316,B,1111,Correct
2,relearn,65,206,B,50.24519917799185,38.5643383352701,2.5122599588995924,0.6057672100231789,A,748,Incorrect
2,relearn,65,207,B,82.22031424042815,57.1258449241722,4.111015712021407,0.8973306737194459,B,685,Correct
2,relearn,65,208,A,42.861466451024306,64.95930417831255,2.1430733225512153,1.0203783639444572,A,1186,Correct
2,relearn,65,209,A,40.00664735020165,50.918462416326676,2.0003323675100826,0.7998253372960993,A,1453,Correct
2,relearn,65,210,A,20.802387416271706,41.89870067838592,1.0401193708135852,0.6581432512308745,A,1249,Correct
2,relearn,65,211,B,77.95042484507987,49.95503091241054,3.897521242253993,0.7846917906213998,B,3048,Correct
2,relearn,65,212,B,64.37353074929445,45.05862435447885,3.2186765374647224,0.7077792162644645,B,613,Correct
2,relearn,65,213,B,70.11485601594714,45.041032864812514,3.5057428007973566,0.7075028897909572,B,809,Correct
2,relearn,65,214,B,56.63002135231864,33.604021555834606,2.8315010676159322,0.5278507362544153,A,1039,Incorrect
2,relearn,65,215,A,49.94996661440604,59.57137615233636,2.497498330720302,0.9357449884220705,A,496,Correct
2,relearn,65,216,A,46.348617628489436,73.00913907808072,2.3174308814244715,1.1468248748630694,A,848,Correct
2,relearn,65,217,A,38.000292150197026,47.92987849187578,1.9000146075098514,0.7528807707876418,A,849,Correct
2,relearn,65,218,A,45.75527069126974,76.05127105113384,2.2877635345634872,1.1946105721520408,A,636,Correct
2,relearn,65,219,A,27.29807995977226,43.63391976418305,1.3649039979886128,0.6854000088924197,A,519,Correct
2,relearn,65,220,A,34.24108862553701,64.09886131715405,1.7120544312768504,1.0068625590872105,A,800,Correct
2,relearn,65,221,B,73.9210688984119,62.406997177697676,3.6960534449205955,0.9802868193302698,A,650,Incorrect
2,relearn,65,222,B,65.4185810470769,43.64571789465097,3.2709290523538446,0.6855853334924403,B,1270,Correct
2,relearn,65,223,A,46.16639676443915,60.10258132368258,2.3083198382219576,0.9440891397413214,A,626,Correct
2,relearn,65,224,A,49.87013315526349,69.25388796276323,2.4935066577631746,1.0878375282817379,A,499,Correct
2,relearn,65,225,A,51.25869861106338,79.45974215554594,2.562934930553169,1.2481507110600116,A,495,Correct
2,relearn,65,226,A,58.07601780053239,73.70941171489977,2.90380089002662,1.1578247317197727,A,592,Correct
2,relearn,65,227,A,21.778145601229273,48.24636781234993,1.0889072800614636,0.7578521734083481,A,772,Correct
2,relearn,65,228,B,62.75899421043069,31.019853975683194,3.137949710521535,0.4872587268271723,B,843,Correct
2,relearn,65,229,B,48.618815523815556,23.779005133853307,2.430940776190778,0.3735197391909376,B,2093,Correct
2,relearn,65,230,A,58.04289310628809,73.92757003842215,2.9021446553144044,1.1612515546522595,A,718,Correct
2,relearn,65,231,A,69.08443237285952,88.54367931114098,3.454221618642976,1.3908408622284552,A,2982,Correct
2,relearn,65,232,A,66.96345766504533,83.18714524724783,3.3481728832522664,1.3067006219093042,A,815,Correct
2,relearn,65,233,A,39.893526130061645,46.923198838016994,1.9946763065030821,0.7370678837622364,B,792,Incorrect
2,relearn,65,234,B,39.77705278073057,13.154536014506437,1.9888526390365286,0.20663096852277887,B,568,Correct
2,relearn,65,235,A,22.847626450241382,44.05598969860263,1.1423813225120691,0.6920298679187881,A,606,Correct
2,relearn,65,236,B,79.81574913017579,66.58314618169783,3.9907874565087895,1.045885614486586,A,603,Incorrect
2,relearn,65,237,B,55.782891262144645,41.74593955034558,2.7891445631072322,0.6557436850428463,A,706,Incorrect
2,relearn,65,238,A,45.37903865830748,62.035981944988514,2.268951932915374,0.9744589256830248,A,621,Correct
2,relearn,65,239,A,56.90617898270345,74.20766453712776,2.845308949135173,1.1656512687494818,A,717,Correct
2,relearn,65,240,B,66.87971156079801,50.51751283881839,3.3439855780399004,0.7935272360602995,B,1263,Correct
2,relearn,65,241,B,56.12539041409207,31.029376217216125,2.8062695207046033,0.4874083018474001,B,871,Correct
2,relearn,65,242,B,38.96826731511331,17.201797832757467,1.9484133657556655,0.2702052084996384,B,1332,Correct
2,relearn,65,243,A,35.40087772084197,61.93996261828914,1.7700438860420986,0.9729506576262179,A,811,Correct
2,relearn,65,244,B,84.99601758198853,57.00748816151679,4.249800879099427,0.8954715300391414,A,1916,Incorrect
2,relearn,65,245,B,50.064688029605556,19.961007113413267,2.503234401480278,0.31354676652876357,B,1047,Correct
2,relearn,65,246,A,13.596778500391778,41.96893842906139,0.6798389250195889,0.659246543238508,A,557,Correct
2,relearn,65,247,B,83.53864909915508,57.40077862444464,4.176932454957754,0.9016493221844466,A,865,Incorrect
2,relearn,65,248,B,86.03432092925327,59.510755765184136,4.301716046462664,0.9347927656073947,B,802,Correct
2,relearn,65,249,B,73.26535980822645,54.895192470517074,3.663267990411322,0.8622916669138708,B,700,Correct
2,relearn,65,250,B,45.86507368554322,35.84723100229312,2.293253684277161,0.5630869878417017,A,674,Incorrect
2,relearn,65,251,A,22.068351993454538,37.84802018496697,1.103417599672727,0.5945153108300522,A,645,Correct
2,relearn,65,252,B,52.22546814616574,39.863964661607774,2.611273407308287,0.6261816926193505,B,672,Correct
2,relearn,65,253,B,67.99830322852233,44.17319995729745,3.3999151614261165,0.6938710023569931,B,1979,Correct
2,relearn,65,254,A,48.87924682835041,56.10871334940286,2.4439623414175204,0.8813536083042979,A,673,Correct
2,relearn,65,255,B,36.596738771599874,26.205273461033226,1.8298369385799935,0.41163147295246777,B,2234,Correct
2,relearn,65,256,A,29.21683306530391,61.50808401674358,1.4608416532651955,0.9661667244169271,A,798,Correct
2,relearn,65,257,A,30.235516817944458,48.31020797454481,1.511775840897223,0.7588549723311249,B,2913,Incorrect
2,relearn,65,258,B,57.22201564105684,26.238059732340005,2.861100782052842,0.4121464784978477,A,849,Incorrect
2,relearn,65,259,A,34.00240296070891,66.34757003699922,1.7001201480354455,1.042185193058855,A,629,Correct
2,relearn,65,260,B,65.83196245845319,33.01942227597467,3.291598122922659,0.518667872239906,B,1013,Correct
2,relearn,65,261,B,49.40001341056602,39.86989018788375,2.470000670528301,0.6262747705684367,B,1800,Correct
2,relearn,65,262,B,75.53987823002421,49.98940967481498,3.7769939115012106,0.7852318109584464,A,667,Incorrect
2,relearn,65,263,A,26.122697638806322,55.08048944926432,1.3061348819403162,0.8652023050496945,A,903,Correct
2,relearn,65,264,A,58.24859266012163,71.69981762511523,2.9124296330060817,1.1262581015739497,A,510,Correct
2,relearn,65,265,B,57.82190574604691,27.909744931524322,2.8910952873023454,0.4384052482022089,B,1372,Correct
2,relearn,65,266,A,36.38502254328319,65.54172449915964,1.8192511271641596,1.0295270009508304,A,548,Correct
2,relearn,65,267,B,74.0403326080335,63.067449971751785,3.702016630401675,0.9906611875594861,A,787,Incorrect
2,relearn,65,268,B,79.9732579775276,54.59836469531902,3.99866289887638,0.8576291071241527,B,641,Correct
2,relearn,65,269,B,48.60421459147538,21.958560701955253,2.430210729573769,0.3449242649233408,B,669,Correct
2,relearn,65,270,A,29.911200703470932,55.25283673017665,1.4955600351735467,0.8679095298075963,A,648,Correct
2,relearn,65,271,B,81.27400842181379,54.63745204657326,4.063700421090689,0.8582430898018959,B,605,Correct
2,relearn,65,272,B,65.62374298681434,41.86171160148748,3.281187149340717,0.6575622281696384,B,573,Correct
2,relearn,65,273,B,86.5446353614347,65.47914008463425,4.327231768071735,1.0285439272663195,B,1989,Correct
2,relearn,65,274,B,64.50823846945868,39.86976188097756,3.2254119234729335,0.6262727551282674,B,1165,Correct
2,relearn,65,275,A,18.40623625370721,37.24535642674131,0.9203118126853604,0.5850486906529194,A,530,Correct
2,relearn,65,276,A,40.430483597876965,68.80551005139887,2.021524179893848,1.0807944245198668,A,2658,Correct
2,relearn,65,277,B,42.75030538299997,33.347038240311335,2.1375152691499983,0.5238140517737,B,1509,Correct
2,relearn,65,278,B,51.07768349932938,21.206958835215474,2.5538841749664694,0.3331181304084705,B,991,Correct
2,relearn,65,279,B,67.88849831776265,51.89175110044191,3.3944249158881323,0.8151137201952919,A,638,Incorrect
2,relearn,65,280,B,81.10442129516396,65.85338322273964,4.055221064758197,1.034422524732961,B,462,Correct
2,relearn,65,281,B,74.58714345155418,52.41028464974383,3.7293571725777093,0.8232588261409256,B,612,Correct
2,relearn,65,282,B,69.14733842328643,56.75692717921878,3.4573669211643216,0.8915357273328229,B,588,Correct
2,relearn,65,283,A,43.245671525972526,63.45696007288813,2.162283576298626,0.9967795979206309,A,1042,Correct
2,relearn,65,284,A,34.366474874313155,42.55304634421829,1.7183237437156578,0.668421688914311,B,2448,Incorrect
2,relearn,65,285,B,37.30200911446626,21.68506395398069,1.865100455723313,0.34062818805225287,B,526,Correct
2,relearn,65,286,A,44.08120269217735,73.6475629324988,2.2040601346088677,1.1568532133176508,A,573,Correct
2,relearn,65,287,A,49.7065410126048,62.55200214994216,2.4853270506302403,0.9825645521079562,A,2052,Correct
2,relearn,65,288,A,29.943926118377448,49.810361863743054,1.4971963059188724,0.7824193345189219,B,734,Incorrect
2,relearn,65,289,B,64.65434496429845,32.240578848327345,3.2327172482149225,0.5064338282869384,B,1395,Correct
2,relearn,65,290,A,63.04880035500031,73.32156393068064,3.1524400177500156,1.1517324329717034,A,555,Correct
2,relearn,65,291,A,21.859448132884822,45.91329937610114,1.092972406644241,0.721204420110141,A,640,Correct
2,relearn,65,292,A,23.170498192497952,42.5169741281237,1.1585249096248975,0.6678550678689036,A,1752,Correct
2,relearn,65,293,B,83.07611567179744,65.4087600932903,4.153805783589871,1.0274384009474902,B,830,Correct
2,relearn,65,294,B,66.53358587216745,37.46387636315966,3.3266792936083727,0.5884811937874935,B,447,Correct
2,relearn,65,295,B,72.84272306093314,46.793429278005334,3.6421361530466574,0.7350294682802755,B,565,Correct
2,relearn,65,296,A,53.353201177861195,69.67015786313388,2.66766005889306,1.0943762805863129,B,718,Incorrect
2,relearn,65,297,A,33.19313336752002,41.51579570288543,1.659656668376001,0.6521285939405979,B,1815,Incorrect
2,relearn,65,298,B,60.94121581702633,52.17301507877373,3.0470607908513165,0.8195318044355253,B,735,Correct
2,relearn,65,299,B,55.593327188924015,38.047440278270344,2.7796663594462006,0.5976477943305525,B,825,Correct
2,relearn,65,300,A,38.900805001904665,62.00746650776003,1.9450402500952333,0.9740110062424702,A,625,Incorrect
2,relearn,65,301,B,51.842547660307986,37.01255541496685,2.5921273830153995,0.5813918609112249,B,653,Incorrect
2,relearn,65,302,B,79.64717161784951,57.023047451808424,3.982358580892475,0.8957159347995175,B,637,Correct
2,relearn,65,303,A,30.424576630321347,57.13375186372695,1.5212288315160674,0.8974548756355337,A,990,Correct
2,relearn,65,304,A,23.729554219031897,49.70380235762921,1.186477710951595,0.7807455017110349,A,627,Correct
2,relearn,65,305,A,30.39045901084974,58.85966748625408,1.5195229505424868,0.9245654948377691,A,870,Correct
2,relearn,65,306,A,59.79664007058784,86.15199218759409,2.989832003529392,1.3532723287433541,B,505,Incorrect
2,relearn,65,307,A,43.7291161284691,57.41263851448319,2.186455806423455,0.901835616901534,B,1058,Incorrect
2,relearn,65,308,A,58.42968999657068,77.53159322343409,2.9214844998285336,1.2178634184592636,A,847,Correct
2,relearn,65,309,B,58.2858648506924,26.9326404155769,2.9142932425346197,0.4230569263567597,B,3006,Correct
2,relearn,65,310,A,61.018594314457516,80.58630713898548,3.0509297157228756,1.2658467524388373,A,711,Incorrect
2,relearn,65,311,A,49.293436514838945,78.75072776473203,2.4646718257419473,1.2370135390526595,A,853,Correct
2,relearn,65,312,B,46.60479890816363,18.862427121713512,2.3302399454081812,0.2962903123722401,B,698,Incorrect
2,relearn,65,313,B,70.05176383496048,37.75689791326606,3.502588191748024,0.5930839655332822,B,1675,Incorrect
2,relearn,65,314,A,35.0043113057326,56.991584776512134,1.7502155652866298,0.895221720251652,A,861,Incorrect
2,relearn,65,315,B,67.88360031953069,40.99201071861539,3.3941800159765343,0.6439009986473808,B,917,Correct
2,relearn,65,316,A,16.42635647535974,40.29718430195414,0.821317823767987,0.6329866908168654,A,614,Correct
2,relearn,65,317,A,52.91401035389167,76.55083080702852,2.645700517694584,1.20245763844778,A,3186,Incorrect
2,relearn,65,318,B,86.40278039811858,68.66275932500523,4.320139019905929,1.0785521013532025,B,576,Correct
2,relearn,65,319,B,59.75645096216678,48.68897857503846,2.987822548108339,0.7648046870106585,B,573,Correct
2,relearn,65,320,A,31.291742929187077,42.76928725455692,1.5645871464593537,0.6718183931909381,A,1715,Correct
2,relearn,65,321,B,34.427883085405114,19.670259706357328,1.7213941542702558,0.3089797169384775,A,1098,Correct
2,relearn,65,322,A,42.9078078833398,64.27154868966538,2.1453903941669896,1.0095751259914572,A,938,Correct
2,relearn,65,323,B,64.83911836772486,40.47855750100278,3.241955918386243,0.6358356943653117,B,445,Incorrect
2,relearn,65,324,A,37.026401676330124,47.54133243491057,1.8513200838165063,0.746777503596926,A,868,Incorrect
2,relearn,65,325,A,12.601508732400834,38.932897563570705,0.6300754366200416,0.6115565248433884,A,629,Correct
2,relearn,65,326,A,56.77485870116166,71.80791032154359,2.838742935058083,1.12795601767898,B,895,Correct
2,relearn,65,327,A,44.16823504055041,62.66173464439192,2.20841175202752,0.9842882261000734,B,463,Incorrect
2,relearn,65,328,A,23.007365910466646,41.96976401227298,1.1503682955233323,0.6592595114692704,A,481,Correct
2,relearn,65,329,B,47.37739536983082,27.249845748643096,2.368869768491541,0.428039576076961,B,4011,Correct
2,relearn,65,330,B,34.8910750432743,24.259181761747023,1.7445537521637149,0.3810623360240198,B,1650,Incorrect
2,relearn,65,331,A,51.697373218995246,66.85297660862797,2.584868660949762,1.0501241009213795,B,775,Correct
2,relearn,65,332,B,55.763661709448364,28.359924373820114,2.788183085472418,0.4454766503457769,B,621,Incorrect
2,relearn,65,333,B,67.95644190622508,54.480198349708196,3.397822095311254,0.8557729545077903,A,553,Incorrect
2,relearn,65,334,A,57.411682382431835,75.62898941861026,2.8705841191215917,1.1879773877796311,A,615,Incorrect
2,relearn,65,335,A,23.386998905737634,37.86035346604254,1.1693499452868819,0.5947090415561606,A,660,Incorrect
2,relearn,65,336,A,30.670634686516394,40.253975839728994,1.5335317343258197,0.6323079738793682,B,724,Correct
2,relearn,65,337,B,45.1557467706546,35.08512968086834,2.2577873385327303,0.5511159282783059,B,516,Correct
2,relearn,65,338,A,38.00302328997769,64.23565244941724,1.9001511644988847,1.009011269168182,A,694,Incorrect
2,relearn,65,339,A,60.34543127070471,86.59777412752437,3.0172715635352354,1.3602746550812943,A,901,Correct
2,relearn,65,340,B,58.630643577581104,47.44199553251771,2.931532178879055,0.7452171231829872,B,397,Correct
2,relearn,65,341,B,88.60021836921345,66.0620899995967,4.430010918460672,1.0377008831176033,B,797,Incorrect
2,relearn,65,342,B,71.92778072004099,46.258246953127596,3.596389036002049,0.7266228439794403,B,666,Correct
2,relearn,65,343,A,50.546501525335074,58.42764178068471,2.527325076266754,0.9177792509238756,A,909,Incorrect
2,relearn,65,344,A,13.21607935542249,38.92610275208213,0.6608039677711246,0.6114497921941132,B,194,Incorrect
2,relearn,65,345,B,84.33324027650565,64.59354188186356,4.216662013825283,1.014632983227036,B,721,Correct
2,relearn,65,346,A,66.66640041384275,79.67514416475365,3.333320020692138,1.2515342379084888,B,1032,Incorrect
2,relearn,65,347,B,72.85737832393771,46.8260355321582,3.6428689161968855,0.735541646122814,A,553,Incorrect
2,relearn,65,348,A,32.91171099098449,60.6225302080051,1.6455855495492244,0.9522564777174706,A,962,Incorrect
2,relearn,65,349,A,26.047024530891697,41.227423769108015,1.3023512265445847,0.6475988581973148,A,608,Correct
2,relearn,65,350,B,60.25495506496674,28.09812295456261,3.0127477532483367,0.44136428326858307,B,680,Correct
2,relearn,65,351,B,75.87422904157202,57.266483789713504,3.793711452078601,0.8995398238534146,B,1200,Incorrect
2,relearn,65,352,B,42.98309701320136,21.338417297954212,2.149154850660068,0.3351830751124316,A,528,Correct
2,relearn,65,353,B,41.57144820242628,28.91148142510609,2.078572410121314,0.45414048824755526,A,638,Correct
2,relearn,65,354,B,81.33665308731256,56.85557491319748,4.066832654365628,0.8930852823146267,B,878,Correct
2,relearn,65,355,B,64.1157140103484,34.71186347572995,3.2057857005174197,0.5452526764388254,B,560,Incorrect
2,relearn,65,356,A,31.13944580740212,59.149875984250244,1.556972290370106,0.9291240792643395,A,479,Correct
2,relearn,65,357,A,34.68024016593335,47.664302298485374,1.7340120082966675,0.7487091096970236,B,573,Incorrect
2,relearn,65,358,A,27.147082208776574,40.17204689556367,1.3573541104388287,0.6310210370338374,A,398,Correct
2,relearn,65,359,A,68.79763115109738,89.39441489637329,3.439881557554869,1.4042041855520215,B,598,Correct
2,relearn,65,360,A,32.669903290194696,56.83406840398929,1.6334951645097349,0.8927474588579628,B,584,Correct
2,relearn,65,361,B,50.6369189359149,37.785350416302585,2.531845946795745,0.5935308964058612,B,571,Incorrect
2,relearn,65,362,B,81.89345334196548,68.11987381296711,4.0946726670982745,1.0700244756714061,B,595,Correct
2,relearn,65,363,A,62.836952968814145,74.47849117364291,3.1418476484407076,1.1699054036078442,B,576,Correct
2,relearn,65,364,A,23.73574283304564,54.262165612901086,1.186787141652282,0.8523481042868138,A,503,Correct
2,relearn,65,365,A,50.15780769971598,64.22464687611526,2.507890384985799,1.0088383940270116,B,473,Correct
2,relearn,65,366,B,55.596440462242235,47.33904889514307,2.7798220231121116,0.7436000411845475,B,481,Correct
2,relearn,65,367,B,53.58134372363716,40.54251150278312,2.679067186181858,0.6368402814761157,B,442,Correct
2,relearn,65,368,B,37.64480625217476,21.841735283453072,1.882240312608738,0.34308917554074575,A,620,Incorrect
2,relearn,65,369,A,61.63933176637339,85.26864468449614,3.0819665883186698,1.339396738611857,A,591,Correct
2,relearn,65,370,A,24.119074328215447,39.3662027707144,1.2059537164107723,0.6183628671210126,B,383,Correct
2,relearn,65,371,B,67.06465712332758,56.05092477502147,3.3532328561663793,0.880445867500608,A,562,Correct
2,relearn,65,372,B,71.78573094163538,62.46662897089386,3.589286547081769,0.9812235133473974,B,269,Correct
2,relearn,65,373,A,41.521229031099125,50.6648933865892,2.0760614515549562,0.7958422842910936,A,200,Correct
2,relearn,65,374,A,57.430827534778324,79.90236927348015,2.871541376738916,1.2551034815699202,A,1408,Correct
2,relearn,65,375,A,46.23560634258935,74.70231963976839,2.3117803171294673,1.1734212929320644,A,523,Correct
2,relearn,65,376,B,36.918853937321344,24.863780379109336,1.845942696866067,0.39055934889739974,B,2293,Correct
2,relearn,65,377,B,54.87484572438866,31.820165613558533,2.743742286219433,0.4998299926378301,B,715,Incorrect
2,relearn,65,378,A,16.64751514045428,39.25631070420406,0.8323757570227142,0.6166366865768294,A,576,Incorrect
2,relearn,65,379,A,36.58268438757807,64.51693098529068,1.8291342193789035,1.0134295820777446,B,314,Incorrect
2,relearn,65,380,A,41.44460191377173,69.76398061979036,2.072230095688586,1.0958500450015705,A,509,Correct
2,relearn,65,381,A,51.49421733312087,80.65111296814241,2.574710866656044,1.2668647200227836,A,2041,Correct
2,relearn,65,382,B,36.400439053564824,17.868726784015603,1.820021952678241,0.2806813039683329,B,716,Incorrect
2,relearn,65,383,B,36.65337362486983,20.39532022715995,1.8326686812434914,0.320368940966285,A,504,Correct
2,relearn,65,384,B,64.44576175722928,53.82246767685112,3.2222880878614637,0.8454413452583479,B,323,Correct
2,relearn,65,385,B,83.17571373739082,59.6983238102883,4.158785686869541,0.937739077570132,A,642,Incorrect
2,relearn,65,386,B,79.78743180206116,67.00073263372245,3.989371590103058,1.0524450471361817,B,635,Incorrect
2,relearn,65,387,A,46.81151174229137,56.258531120762015,2.340575587114569,0.8837069403536935,A,523,Incorrect
2,relearn,65,388,A,30.40598047448168,40.974894188000576,1.520299023724084,0.6436321328132087,B,581,Correct
2,relearn,65,389,A,55.195018796288814,65.68942023759769,2.7597509398144404,1.031847000185048,A,647,Correct
2,relearn,65,390,B,70.87068205226537,39.8720525454899,3.5435341026132683,0.6263087368022865,A,2165,Incorrect
2,relearn,65,391,B,73.2872347114584,62.164530948514184,3.6643617355729194,0.9764781687085373,B,566,Incorrect
2,relearn,65,392,A,26.077558206045204,58.07641971786301,1.3038779103022602,0.9122622676621792,A,1103,Correct
2,relearn,65,393,A,49.69841915460132,74.94322579183802,2.4849209577300657,1.1772054379197971,A,896,Correct
2,relearn,65,394,B,74.55051488060543,63.90112921652218,3.7275257440302716,1.0037565905135908,A,854,Incorrect
2,relearn,65,395,A,22.427924536666758,41.55265087702814,1.1213962268333377,0.6527075136622654,A,584,Incorrect
2,relearn,65,396,A,51.13967530921597,61.5583201629933,2.556983765460798,0.9669558319569409,A,568,Incorrect
2,relearn,65,397,A,18.437946077674194,42.156543913283585,0.9218973038837097,0.6621934432935361,A,958,Correct
2,relearn,65,398,A,39.42844510805382,66.47159279635612,1.9714222554026912,1.044133338007223,B,453,Correct
2,relearn,65,399,B,36.413898118819574,18.86089482617948,1.820694905940979,0.29626624313027594,B,662,Correct
2,relearn,65,400,A,52.268305068170434,68.80741799463931,2.6134152534085215,1.080824394422205,B,687,Correct
2,relearn,65,401,A,47.88328198664224,60.239292640045704,2.394164099332112,0.9462365960770663,B,602,Correct
2,relearn,65,402,B,75.07820965972586,49.04863956726729,3.753910482986293,0.7704542286655028,B,971,Correct
2,relearn,65,403,A,54.83909742812615,63.24771697983256,2.7419548714063073,0.993492815100842,B,739,Incorrect
2,relearn,65,404,B,58.87180715075639,32.38135268708195,2.9435903575378193,0.5086450985751838,B,470,Correct
2,relearn,65,405,B,64.39933833209075,40.814517636767995,3.2199669166045375,0.6411129438374068,B,637,Correct
2,relearn,65,406,A,55.064023565944396,74.6113854298688,2.75320117829722,1.1719929017031618,A,856,Correct
2,relearn,65,407,B,50.774244345566665,32.290133025691105,2.5387122172783334,0.5072122234847417,B,497,Correct
2,relearn,65,408,B,60.7800082927601,49.767401137243006,3.039000414638005,0.7817445090050948,B,545,Correct
2,relearn,65,409,A,29.631583605348542,62.71700011419083,1.4815791802674272,0.9851563340696609,A,530,Correct
2,relearn,65,410,B,43.15521179146195,16.954044145188494,2.1577605895730976,0.2663135026758061,B,815,Incorrect
2,relearn,65,411,B,54.3219458417352,25.59114948886612,2.71609729208676,0.40198483615569996,B,763,Correct
2,relearn,65,412,A,28.891696248032808,39.76788995148664,1.4445848124016405,0.6246725546017888,A,624,Incorrect
2,relearn,65,413,A,60.555292904753756,76.07985683137669,3.0277646452376876,1.1950595965380812,A,473,Correct
2,relearn,65,414,A,64.64866118388855,85.57896401735924,3.232433059194427,1.3442712232938052,A,639,Correct
2,relearn,65,415,A,24.933747117462417,51.2395332894082,1.2466873558731209,0.8048687067768724,A,583,Correct
2,relearn,65,416,A,49.338646892044906,66.02227030352852,2.4669323446022453,1.0370753967944235,A,784,Correct
2,relearn,65,417,B,68.80493681641725,36.59013788872085,3.4402468408208624,0.5747565419252147,B,572,Correct
2,relearn,65,418,A,52.96541519500532,63.34886339891982,2.6482707597502664,0.9950816193365492,B,655,Correct
2,relearn,65,419,B,84.03206219862919,61.82309026466865,4.20160310993146,0.9711148309885085,A,750,Correct
2,relearn,65,420,B,84.87877365517869,63.34221033791793,4.243938682758935,0.9949771132987122,A,3007,Correct
2,relearn,65,421,A,42.95630080160716,73.05588650624057,2.147815040080358,1.1475591817474753,A,927,Incorrect
2,relearn,65,422,B,43.90182223943257,20.40385590967822,2.1950911119716285,0.3205030191537489,B,381,Correct
2,relearn,65,423,B,80.05945731469423,64.5757407647122,4.002972865734711,1.0143533639326938,B,664,Correct
2,relearn,65,424,A,39.03852493654063,60.56086072223916,1.9519262468270315,0.951287775700306,B,478,Correct
2,relearn,65,425,B,38.54043917173702,16.50242400815591,1.927021958586851,0.2592194701522322,B,588,Correct
2,relearn,65,426,B,67.69951866901867,41.39987619987789,3.3849759334509337,0.6503077346453163,B,414,Correct
2,relearn,65,427,A,49.95296555663586,65.26520674339312,2.497648277831793,1.0251834702003144,B,450,Incorrect
2,relearn,65,428,B,61.783947429308235,42.30314611933817,3.0891973714654117,0.664496265361242,A,581,Incorrect
2,relearn,65,429,B,68.14920675347406,36.675290585587355,3.407460337673703,0.5760941173597607,B,439,Incorrect
2,relearn,65,430,B,86.27987619150974,64.15102512291006,4.3139938095754875,1.0076819462319426,B,698,Correct
2,relearn,65,431,A,31.487262693983013,46.4006134160544,1.5743631346991507,0.7288591311496824,B,468,Correct
2,relearn,65,432,B,32.95748289721319,19.179885358282498,1.6478741448606595,0.3012769346913736,A,691,Correct
2,relearn,65,433,B,68.47172523567772,58.332396337071806,3.423586261783886,0.9162831389941647,B,514,Correct
2,relearn,65,434,B,79.29779853292129,55.75239755457004,3.9648899266460647,0.875756612887274,B,544,Incorrect
2,relearn,65,435,B,60.22426775815783,36.736656670671024,3.0112133879078913,0.5770580535701527,A,644,Incorrect
2,relearn,65,436,A,13.909358775562666,34.11404060095332,0.6954679387781333,0.5358620966810944,A,609,Incorrect
2,relearn,65,437,A,28.74416662566758,54.7189154979889,1.4372083312833792,0.8595227147044129,B,798,Correct
2,relearn,65,438,A,29.788916481014695,57.90959481081159,1.4894458240507347,0.9096417881500364,A,1598,Incorrect
2,relearn,65,439,A,24.638053735901238,56.79097743688262,1.231902686795062,0.8920705875294707,B,833,Incorrect
2,relearn,65,440,A,45.35886183954855,54.763430483551446,2.2679430919774277,0.8602219544625028,B,459,Incorrect
2,relearn,65,441,B,51.23734828634318,34.10609956422206,2.5618674143171587,0.5357373591678103,A,688,Correct
2,relearn,65,442,B,62.543195894135025,31.683451055743653,3.127159794706751,0.49768248538548016,A,510,Incorrect
2,relearn,65,443,B,63.982066044061355,56.495811215240664,3.199103302203068,0.8874341273619795,B,254,Incorrect
2,relearn,65,444,A,49.03251498426417,69.92713834304207,2.4516257492132083,1.0984129205252904,A,1201,Correct
2,relearn,65,445,B,50.57044655186764,27.233764141179996,2.528522327593382,0.42778696677764105,B,556,Correct
2,relearn,65,446,A,15.726769502103618,33.372742561791426,0.786338475105181,0.5242178143113367,B,761,Incorrect
2,relearn,65,447,A,53.99403600081986,61.856496495345226,2.6997018000409927,0.9716395748328966,B,565,Incorrect
2,relearn,65,448,B,55.49329460614375,32.99610414973918,2.7746647303071876,0.5183015919695214,B,484,Correct
2,relearn,65,449,B,73.73830587538033,48.5896972047034,3.6869152937690166,0.7632451788922435,A,423,Incorrect
2,relearn,65,450,A,54.33320920540282,64.86171296952574,2.7166604602701407,1.0188454048215594,A,780,Incorrect
2,relearn,65,451,B,38.13970953882411,18.183710231461458,1.9069854769412051,0.28562905239082437,B,636,Correct
2,relearn,65,452,A,67.6166325472135,89.57454905182425,3.380831627360675,1.4070337262491481,A,636,Incorrect
2,relearn,65,453,B,60.93994295505429,47.61179964298189,3.0469971477527142,0.7478843999129053,B,475,Incorrect
2,relearn,65,454,B,56.01321846228954,24.824975450009948,2.8006609231144766,0.38994980249649114,B,657,Correct
2,relearn,65,455,B,58.28111348264892,26.58409130345396,2.914055674132446,0.4175819297064563,B,838,Correct
2,relearn,65,456,A,15.01174519532971,37.5315916275756,0.7505872597664854,0.5895448626736185,A,550,Correct
2,relearn,65,457,A,36.70933928561115,46.238551505814996,1.8354669642805574,0.7263134686165084,A,893,Correct
2,relearn,65,458,B,58.90213697975517,44.60466521426935,2.9451068489877583,0.700648442764904,A,625,Incorrect
2,relearn,65,459,B,81.00192283308016,65.01195844124777,4.0500961416540076,1.0212054551725447,B,666,Incorrect
2,relearn,65,460,A,40.937813434312396,70.8841520494034,2.04689067171562,1.113445656671738,A,405,Incorrect
2,relearn,65,461,A,21.721874730361197,51.434355732474344,1.0860937365180598,0.8079289705563273,B,420,Correct
2,relearn,65,462,B,58.53101648090531,51.103005821282395,2.926550824045265,0.802724138322486,A,449,Correct
2,relearn,65,463,A,51.15396882314727,59.30578006447917,2.5576984411573633,0.9315730148298988,A,580,Correct
2,relearn,65,464,A,47.94926086067892,62.78419819176945,2.397463043033946,0.9862118790039424,A,498,Correct
2,relearn,65,465,A,22.625924232983138,47.108690116261116,1.131296211649157,0.7399815739474201,B,711,Correct
2,relearn,65,466,A,19.810397610907415,36.96653340716179,0.9905198805453708,0.5806689489031057,B,655,Incorrect
2,relearn,65,467,B,63.77562413823508,33.09597462828248,3.188781206911754,0.519870353778032,A,405,Correct
2,relearn,65,468,A,43.26104895378982,51.62886048496851,2.163052447689491,0.8109842440639472,A,468,Incorrect
2,relearn,65,469,B,74.15201594075438,57.196618564604094,3.707600797037719,0.898442383463689,A,820,Incorrect
2,relearn,65,470,B,40.641876402415335,18.158465424105625,2.0320938201207666,0.2852325078841724,B,318,Correct
2,relearn,65,471,A,54.966531543937144,76.42048053246522,2.748326577196857,1.2004101011229726,A,497,Incorrect
2,relearn,65,472,B,77.60007971165095,57.0807454046686,3.8800039855825474,0.8966222521236811,B,612,Correct
2,relearn,65,473,B,55.674886719586084,27.214958566188805,2.7837443359793044,0.42749156949644684,A,634,Incorrect
2,relearn,65,474,B,53.36992924336552,39.991639619070526,2.668496462168276,0.6281872061614124,B,431,Correct
2,relearn,65,475,A,43.80819289285116,59.533294814827705,2.1904096446425583,0.9351468081712903,A,748,Incorrect
2,relearn,65,476,A,12.666311894734925,40.37928552814055,0.6333155947367463,0.634276333862055,A,622,Correct
2,relearn,65,477,B,71.54439805411045,50.076885117475086,3.5772199027055223,0.7866058719985989,B,401,Incorrect
2,relearn,65,478,A,28.67662499335014,53.866520206340795,1.433831249667507,0.8461333207734321,B,938,Incorrect
2,relearn,65,479,B,51.110190312225896,31.216006257392483,2.555509515611295,0.4903398796631862,A,508,Correct
2,relearn,65,480,B,70.053033107802,61.00034569283072,3.5026516553900997,0.9581911894751738,B,638,Correct
2,relearn,65,481,B,58.35630086463201,26.41011074219786,2.9178150432316006,0.4148490494409083,A,611,Incorrect
2,relearn,65,482,B,57.27491066693668,39.458891903326084,2.8637455333468336,0.6198188246114149,B,447,Correct
2,relearn,65,483,A,11.379980651096645,32.38481768759342,0.5689990325548322,0.5086995266759414,A,491,Correct
2,relearn,65,484,A,29.990222507753366,46.345586104465866,1.4995111253876683,0.7279947641605159,B,393,Incorrect
2,relearn,65,485,A,14.715433294886264,37.27778300804546,0.7357716647443132,0.5855580462009502,B,372,Correct
2,relearn,65,486,A,68.53656402920357,89.61657642834804,3.4268282014601787,1.407693890735832,A,1120,Incorrect
2,relearn,65,487,B,47.979416876291324,28.095336323747134,2.3989708438145665,0.44132051097409225,B,551,Correct
2,relearn,65,488,A,49.383070716275085,76.26786252534798,2.469153535813754,1.1980127830731475,B,499,Incorrect
2,relearn,65,489,A,13.047559016789567,33.68141167512593,0.6523779508394782,0.5290663774055456,B,335,Incorrect
2,relearn,65,490,B,83.31970502403932,58.60561865606012,4.165985251201966,0.920574905144817,B,666,Incorrect
2,relearn,65,491,A,40.37905276167316,68.53765167536423,2.018952638083658,1.0765869149881022,A,873,Incorrect
2,relearn,65,492,A,46.16412379166439,69.68488390451056,2.3082061895832195,1.09460759670334,A,674,Correct
2,relearn,65,493,B,55.56607062760844,40.14813895995987,2.778303531380422,0.6306454920595604,B,787,Incorrect
2,relearn,65,494,A,64.95885522983949,78.33301902753966,3.2479427614919745,1.2304521855521404,A,723,Correct
2,relearn,65,495,A,30.498900879996135,41.66078743962914,1.524945043999807,0.6544061188155241,B,497,Incorrect
2,relearn,65,496,B,68.6235319811386,44.34685730043612,3.43117659905693,0.696598805524225,A,786,Correct
2,relearn,65,497,B,59.47737615508149,33.00222562711444,2.9738688077540747,0.5183977479112777,B,1146,Correct
2,relearn,65,498,A,34.174620965992126,50.0148291341815,1.7087310482996063,0.7856310988924669,A,905,Incorrect
2,relearn,65,499,B,45.37245303418666,21.89393948157827,2.2686226517093333,0.3439091971673291,B,819,Correct
2,relearn,65,500,B,41.47773714940344,19.533855585246247,2.0738868574701717,0.3068370860144678,B,675,Incorrect
2,relearn,65,501,A,50.93942558862024,73.81652615139551,2.5469712794310118,1.1595072813537146,A,568,Correct
2,relearn,65,502,A,20.658206319334212,33.59357538584718,1.0329103159667106,0.527686648199962,A,1743,Correct
2,relearn,65,503,A,17.390172149104448,38.167599566578346,0.8695086074552223,0.5995352520175975,A,622,Incorrect
2,relearn,65,504,A,12.593867200523832,32.61853798935832,0.6296933600261916,0.5123707965910385,B,582,Incorrect
2,relearn,65,505,B,69.06898333203428,39.34123341577539,3.453449166601714,0.6179706494108063,B,575,Incorrect
2,relearn,65,506,A,52.237329719400876,66.13103196685397,2.611866485970044,1.0387838210069011,B,706,Incorrect
2,relearn,65,507,B,76.17454136961211,49.444396550565855,3.808727068480606,0.7766707648221909,B,309,Incorrect
2,relearn,65,508,B,41.48093551302809,13.834855375524583,2.074046775651405,0.21731740005612643,A,644,Correct
2,relearn,65,509,B,72.29035838348877,48.60558380111689,3.614517919174438,0.7634947249651594,A,670,Incorrect
2,relearn,65,510,A,48.82915551440882,61.07957662681941,2.441457775720441,0.9594357460759535,B,358,Incorrect
2,relearn,65,511,A,11.82009087674238,38.023170986676945,0.5910045438371191,0.5972665731896643,B,248,Correct
2,relearn,65,512,A,32.60255209574352,45.28238249397301,1.630127604787176,0.7112940009005434,A,435,Incorrect
2,relearn,65,513,A,33.4621812345769,62.29031886614617,1.6731090617288453,0.9784540406982525,A,444,Incorrect
2,relearn,65,514,A,33.17615162307865,62.16993480817414,1.6588075811539327,0.9765630523375812,B,264,Incorrect
2,relearn,65,515,A,42.2727697384149,68.76015200458875,2.113638486920745,1.0800819419866674,A,376,Incorrect
2,relearn,65,516,A,28.426964456022127,54.0192897717239,1.4213482228011063,0.8485330194949302,A,705,Correct
2,relearn,65,517,B,64.04714984433886,56.30329255563727,3.202357492216943,0.8844100513285347,B,512,Correct
2,relearn,65,518,A,16.44277540860748,31.956102359538264,0.822138770430374,0.5019652820504442,A,521,Correct
2,relearn,65,519,A,46.969226127972796,65.82693323175616,2.3484613063986397,1.0340070492461548,B,581,Incorrect
2,relearn,65,520,B,61.10903080187003,51.860352499610855,3.0554515400935016,0.8146205121267727,B,556,Incorrect
2,relearn,65,521,A,20.692316802551023,48.5982208232691,1.0346158401275511,0.7633790675795836,A,587,Correct
2,relearn,65,522,A,49.3133171402517,77.1907518917962,2.465665857012585,1.2125094953416968,B,279,Correct
2,relearn,65,523,B,64.67107725474457,33.27424236109038,3.2335538627372284,0.5226705767768391,A,751,Correct
2,relearn,65,524,B,73.80035071565086,42.3970693896246,3.6900175357825433,0.6659716086409068,A,714,Correct
2,relearn,65,525,B,52.10534461306001,26.738955894105203,2.6052672306530007,0.420014537007912,B,649,Correct
2,relearn,65,526,B,54.336890862878995,33.744337711791225,2.71684454314395,0.5300548172780816,B,938,Incorrect
2,relearn,65,527,A,20.05540393553237,36.870887594286486,1.0027701967766185,0.5791665479877273,A,383,Incorrect
2,relearn,65,528,A,61.54781800599504,70.45051085834783,3.0773909002997524,1.1066340367711673,A,401,Incorrect
2,relearn,65,529,A,32.108026341757586,41.31984592503059,1.6054013170878791,0.6490506220276913,A,480,Correct
2,relearn,65,530,A,16.305133630991154,46.068278442279095,0.8152566815495577,0.7236388255889652,A,606,Incorrect
2,relearn,65,531,B,60.11189516249793,27.547119973737587,3.0055947581248965,0.43270914868525334,B,370,Correct
2,relearn,65,532,A,48.68472898142802,55.36362758902405,2.434236449071401,0.8696498285487958,A,894,Correct
2,relearn,65,533,B,73.65509842724865,46.14325854120282,3.682754921362432,0.724816610228686,A,894,Correct
2,relearn,65,534,A,41.9878938546841,67.8267116564216,2.0993946927342053,1.0654194952848364,A,767,Incorrect
2,relearn,65,535,B,82.39862376639135,64.36707316581948,4.119931188319567,1.0110756209540759,B,653,Correct
2,relearn,65,536,A,28.2741013998035,56.451323497460734,1.413705069990175,0.8867353159252176,B,543,Incorrect
2,relearn,65,537,B,49.53779507154114,19.981908783966766,2.476889753577057,0.3138750892020567,A,331,Incorrect
2,relearn,65,538,B,81.17549768238263,51.33517348734108,4.058774884119131,0.8063710194929413,A,1136,Incorrect
2,relearn,65,539,A,20.740190513626906,52.149464792337746,1.0370095256813454,0.8191618774012391,B,513,Incorrect
2,relearn,65,540,B,82.73197114973496,68.07646075212928,4.136598557486748,1.0693425449064162,B,645,Correct
2,relearn,65,541,B,75.16675727561268,43.93737182881458,3.7583378637806337,0.6901666227772351,B,430,Correct
2,relearn,65,542,B,44.92052981663368,24.29543284101171,2.2460264908316843,0.38163176664553294,A,436,Correct
2,relearn,65,543,B,63.3373856255095,50.94827411658552,3.166869281275475,0.8002936183887205,B,572,Incorrect
2,relearn,65,544,A,31.186843886261556,54.58318147471993,1.5593421943130779,0.8573906096526931,A,576,Incorrect
2,relearn,65,545,A,13.313701979018028,41.66280070099869,0.6656850989509013,0.6544377430511658,B,430,Correct
2,relearn,65,546,A,38.90915670544846,49.05316877082943,1.945457835272423,0.77052537322869,A,541,Correct
2,relearn,65,547,A,59.482821426185666,67.95572927048973,2.974141071309283,1.0674460992275372,B,370,Correct
2,relearn,65,548,B,77.56396243032847,55.61712827305067,3.878198121516424,0.8736318079818858,A,29,Incorrect
2,relearn,65,549,A,22.08209880484815,39.829875935381715,1.1041049402424077,0.6256462281599403,B,2138,Incorrect
2,relearn,65,550,A,35.41981834246238,65.05663623863316,1.7709909171231188,1.0219072523727672,B,386,Correct
2,relearn,65,551,B,67.54193012344818,48.53372343588322,3.377096506172409,0.7623659449876475,A,789,Incorrect
2,relearn,65,552,B,37.599010104851,17.458191939589824,1.87995050524255,0.27423263771187967,B,401,Correct
2,relearn,65,553,B,48.581873151242476,30.47384755379788,2.429093657562124,0.4786820780081336,B,495,Incorrect
2,relearn,65,554,B,70.13438820394963,41.939590885687686,3.5067194101974817,0.6587855531051894,A,271,Incorrect
2,relearn,65,555,B,79.48092141315044,65.35086285744595,3.974046070657522,1.0265289532935316,B,243,Correct
2,relearn,65,556,B,63.15715359847779,48.4603721779967,3.1578576799238895,0.7612137461231081,A,295,Incorrect
2,relearn,65,557,B,51.9284055660528,32.15611551968812,2.5964202783026398,0.5051070814231847,B,234,Incorrect
2,relearn,65,558,A,62.85142553740191,87.37816037764739,3.142571276870095,1.3725329336330387,B,346,Incorrect
2,relearn,65,559,A,16.671977279960885,46.448277887088715,0.8335988639980443,0.7296078429098756,B,556,Correct
2,relearn,65,560,B,39.92444185299132,28.504249076359564,1.9962220926495662,0.4477436974719243,B,1274,Correct
2,relearn,65,561,A,47.295124111882515,74.6882433485455,2.3647562055941256,1.1732001830665864,A,533,Correct
2,relearn,65,562,A,26.486721976235014,40.7451934990944,1.3243360988117507,0.6400240028292478,B,605,Incorrect
2,relearn,65,563,B,79.16783914833448,47.97683986185599,3.958391957416724,0.7536184382623037,A,577,Incorrect
2,relearn,65,564,A,65.61327574550234,79.65472366069713,3.2806637872751168,1.251213473380856,A,664,Correct
2,relearn,65,565,A,52.35691504704844,77.60150407349717,2.6178457523524217,1.2189615755240857,A,837,Incorrect
2,relearn,65,566,A,58.07489314104075,86.16449168582815,2.9037446570520378,1.3534686704024825,B,311,Incorrect
2,relearn,65,567,B,52.1775354318441,42.55359972698253,2.608876771592205,0.6684303814304448,A,599,Correct
2,relearn,65,568,B,44.40622943198945,26.721030937276957,2.2203114715994725,0.4197329724444744,A,727,Incorrect
2,relearn,65,569,A,32.48537509125017,49.7131180702398,1.6242687545625085,0.7808918325825368,B,907,Correct
2,relearn,65,570,B,57.87053320870167,36.8641484145892,2.8935266604350836,0.5790606892005863,B,499,Incorrect
2,relearn,65,571,B,53.71042250944623,37.60740180645652,2.6855211254723117,0.5907356861788166,A,616,Incorrect
2,relearn,65,572,A,25.958394599137335,49.62366146043169,1.2979197299568668,0.7794866514415958,B,514,Correct
2,relearn,65,573,B,36.53695173960311,15.577451136932861,1.8268475869801557,0.24469003026721123,A,726,Incorrect
2,relearn,65,574,A,60.02918361366882,71.92955531248984,3.0014591806834408,1.1298668127284939,B,594,Incorrect
2,relearn,65,575,B,51.72947516452797,27.385034297488577,2.5864737582263984,0.4301631128364732,A,652,Incorrect
2,relearn,65,576,B,41.114993062041194,26.818162233704957,2.05574965310206,0.4212587072809336,A,411,Incorrect
2,relearn,65,577,A,49.996850332287366,79.05417301302171,2.4998425166143683,1.2417800458666275,B,696,Incorrect
2,relearn,65,578,A,16.61292005966598,31.783688495090757,0.830646002983299,0.49925701140081774,B,672,Correct
2,relearn,65,579,B,74.77679038605507,45.26363470448826,3.7388395193027533,0.7109995113119616,A,811,Correct
2,relearn,65,580,A,51.35478235554752,79.47907467710482,2.5677391177773763,1.2484543855985353,A,1441,Correct
2,relearn,65,581,B,82.88642010583793,58.491121245053314,4.144321005291896,0.9187763840184469,A,1094,Incorrect
2,relearn,65,582,B,69.73000598403446,42.0076575880555,3.486500299201723,0.6598547423657536,A,675,Incorrect
2,relearn,65,583,A,37.12017067108149,63.11359806279026,1.8560085335540746,0.9913860800784045,B,525,Correct
2,relearn,65,584,B,63.142439526492424,54.933823649523795,3.157121976324621,0.8628984840547059,A,462,Incorrect
2,relearn,65,585,A,41.17324236166101,57.46978689510981,2.0586621180830504,0.9027333015652398,B,624,Incorrect
2,relearn,65,586,A,46.5638517019351,74.74356374604939,2.328192585096755,1.1740691538385457,A,588,Correct
2,relearn,65,587,B,63.37938571596341,41.2968665017597,3.16896928579817,0.6486896620910335,B,1072,Incorrect
2,relearn,65,588,B,58.40080213754697,50.484114540068255,2.920040106877348,0.7930026168103205,B,259,Correct
2,relearn,65,589,A,34.36572071052561,50.91656346128184,1.7182860355262803,0.7997955085800075,A,258,Incorrect
2,relearn,65,590,A,61.996360028956595,86.0877998952072,3.09981800144783,1.3522639985724556,B,827,Incorrect
2,relearn,65,591,B,52.048033249498815,24.19259784146828,2.6024016624749406,0.38001643825004516,B,787,Correct
2,relearn,65,592,A,30.69979160368308,62.23381958618365,1.534989580184154,0.9775665520839357,A,505,Correct
2,relearn,65,593,B,76.02937383468112,53.14897544195074,3.801468691734056,0.8348621539712839,B,702,Correct
2,relearn,65,594,B,51.00416550348729,35.43581989854074,2.5502082751743647,0.5566245573359331,B,1134,Correct
2,relearn,65,595,A,59.92829278811212,79.16264784581473,2.996414639405606,1.243483964555637,A,439,Incorrect
2,relearn,65,596,B,63.088167760535114,41.42158211473281,3.1544083880267557,0.6506486903585548,B,1488,Correct
2,relearn,65,597,B,38.53422946180202,19.782074862461236,1.9267114730901012,0.3107361053033577,A,1139,Incorrect
2,relearn,65,598,A,37.457570349608616,51.5039565691519,1.8728785174804308,0.809022257942277,B,550,Correct
2,relearn,65,599,B,63.509133717013775,31.741539293054323,3.1754566858506887,0.4985949332834561,A,1131,Correct
2,relearn,65,600,B,79.01280261183142,51.34915919921099,3.9506401305915713,0.8065907065412699,B,731,Correct
2,relearn,65,601,A,12.812066991387479,38.47659174804704,0.6406033495693739,0.6043888898541913,A,1394,Correct
2,relearn,65,602,B,67.65928978570953,53.69793601852059,3.3829644892854764,0.8434852065435953,B,783,Correct
2,relearn,65,603,B,65.9733714740851,48.64733601184551,3.2986685737042545,0.7641505671576402,B,734,Correct
2,relearn,65,604,B,55.96214301247144,45.280201561773794,2.7981071506235717,0.7112597428976681,A,2229,Incorrect
2,relearn,65,605,A,33.20326073676853,51.4280347916136,1.6601630368384264,0.8078296814494678,A,570,Correct
2,relearn,65,606,A,27.863610037692542,50.52100912953634,1.393180501884627,0.7935821556664711,A,661,Correct
2,relearn,65,607,B,50.38852724246213,22.143161925515187,2.5194263621231068,0.34782397416223865,B,755,Correct
2,relearn,65,608,B,37.18121040380852,17.415820873082822,1.859060520190426,0.27356707455556384,B,1149,Correct
2,relearn,65,609,B,52.331662311814746,39.77245328999662,2.6165831155907373,0.624744235355483,A,647,Incorrect
2,relearn,65,610,B,43.759593929324396,28.724746970130333,2.18797969646622,0.45120727028793567,B,700,Correct
2,relearn,65,611,A,24.48254536723062,36.98014586046452,1.224127268361531,0.5808827728195716,A,2328,Correct
2,relearn,65,612,A,41.82668082431542,72.4631206118336,2.091334041215771,1.138248036851638,A,1071,Correct
2,relearn,65,613,B,47.22953382540727,23.9677082922784,2.3614766912703633,0.3764838814720249,B,899,Correct
2,relearn,65,614,B,36.90541548570947,15.604409842979397,1.8452707742854733,0.24511349663154164,B,1511,Correct
2,relearn,65,615,A,57.87752540065176,66.28264887696433,2.893876270032588,1.0411654138617144,A,660,Correct
2,relearn,65,616,B,40.814854341220155,24.15925881440713,2.0407427170610077,0.3794927500375795,B,929,Correct
2,relearn,65,617,A,20.94907699929508,39.79701343279545,1.0474538499647539,0.6251300251764226,A,760,Correct
2,relearn,65,618,B,88.50825899991004,65.06515715183205,4.4254129499955015,1.022041098564305,B,761,Correct
2,relearn,65,619,A,15.000985965598204,30.464000885247266,0.7500492982799102,0.4785274069002288,A,689,Correct
2,relearn,65,620,A,30.351783844641087,55.14105297465271,1.5175891922320544,0.8661536346818728,B,781,Incorrect
2,relearn,65,621,B,70.97817772404554,60.29890792685901,3.5489088862022764,0.9471730308125381,B,1234,Correct
2,relearn,65,622,A,60.81754869378213,75.006786048242,3.040877434689106,1.1782038400926924,A,683,Correct
2,relearn,65,623,A,50.15711535393171,81.12699143682421,2.5078557676965856,1.274339801528845,A,741,Correct
2,relearn,65,624,B,67.59591979414786,57.63934845006371,3.379795989707393,0.9053967682421119,B,1975,Correct
2,relearn,65,625,B,62.259449516886114,31.55378928632787,3.112972475844306,0.49564576307423985,B,2872,Correct
2,relearn,65,626,A,65.0740264899458,79.98328505245146,3.25370132449729,1.2563745036537992,A,647,Correct
2,relearn,65,627,B,50.33215332155506,40.463372942569954,2.516607666077753,0.6355971758792089,B,743,Correct
2,relearn,65,628,A,40.15547143017548,52.30019658930023,2.007773571508774,0.8215295669312378,A,688,Correct
2,relearn,65,629,A,14.489685846542631,34.59864557604023,0.7244842923271315,0.5434742538292248,A,925,Correct
2,relearn,65,630,B,58.49912459146408,42.14018376641883,2.924956229573204,0.6619364587075263,B,862,Correct
2,relearn,65,631,A,39.95391595501774,50.2102959306844,1.9976957977508871,0.788701484152038,A,944,Correct
2,relearn,65,632,A,48.32088219566255,75.47951559199078,2.4160441097831273,1.1856294584015723,A,825,Correct
2,relearn,65,633,B,78.18410279386983,63.0049287366749,3.9092051396934915,0.9896791062954317,B,1215,Correct
2,relearn,65,634,B,37.769344113436524,11.343760929768855,1.8884672056718261,0.17818738000520382,A,617,Incorrect
2,relearn,65,635,A,52.44577312495691,67.48280049161423,2.622288656247845,1.0600173513406046,A,704,Correct
2,relearn,65,636,B,48.62831845946262,40.0257465115925,2.4314159229731307,0.6287229559763314,B,3294,Correct
2,relearn,65,637,A,57.29346248574463,80.37060702520604,2.864673124287231,1.2624585429746975,A,769,Correct
2,relearn,65,638,B,73.33753006591758,59.69055844434402,3.666876503295879,0.9376170994871169,B,1522,Correct
2,relearn,65,639,A,44.29193145897883,66.52112787505979,2.2145965729489414,1.044911433203975,A,867,Correct
2,relearn,65,640,B,50.596298193287,32.67111174943058,2.52981490966435,0.5131966232831114,B,1880,Correct
2,relearn,65,641,A,57.11021585240846,81.62931491986585,2.8555107926204233,1.2822302803490913,A,550,Correct
2,relearn,65,642,B,79.14594057365312,52.393643336116014,3.957297028682656,0.8229974249977293,B,1031,Correct
2,relearn,65,643,B,71.5647155745386,38.72642762303972,3.5782357787269294,0.608313302601592,B,1091,Correct
2,relearn,65,644,B,70.46724893934615,38.06365293542161,3.5233624469673077,0.5979024621535605,B,564,Correct
2,relearn,65,645,B,72.17334667860212,47.87434001101154,3.608667333930106,0.7520083743702688,B,578,Correct
2,relearn,65,646,B,49.13482997345508,26.36338487683296,2.4567414986727543,0.4141150812640934,B,998,Correct
2,relearn,65,647,A,49.1034326414937,67.84757523304596,2.455171632074685,1.06574721958009,A,701,Correct
2,relearn,65,648,A,50.257829849269356,75.25041323255931,2.5128914924634675,1.1820307269550223,A,702,Correct
2,relearn,65,649,A,23.838322397430602,44.31056467474399,1.19191611987153,0.6960287222929556,A,1597,Correct
2,relearn,65,650,A,46.416732576246844,53.384358667401465,2.320836628812342,0.8385595450305552,A,1814,Correct
2,relearn,65,651,A,48.08656596640084,59.773292132528965,2.404328298320042,0.938916677222148,A,1051,Correct
2,relearn,65,652,B,61.63818030600965,29.536654110626614,3.0819090153004827,0.4639606778278366,B,737,Correct
2,relearn,65,653,A,45.264957534955755,66.92404348036374,2.263247876747788,1.051240416732173,A,1386,Correct
2,relearn,65,654,B,59.66368738034312,45.936872125111705,2.983184369017156,0.7215746999857234,A,1947,Incorrect
2,relearn,65,655,B,52.91730754540028,35.974106022933796,2.6458653772700136,0.5650799360055457,A,734,Incorrect
2,relearn,65,656,A,46.69690576156584,76.65759250601093,2.334845288078292,1.2041346472938197,A,700,Correct
2,relearn,65,657,A,29.502031504206116,43.63291058612152,1.4751015752103058,0.6853841567604984,A,1909,Correct
2,relearn,65,658,B,65.5544402526026,51.621350129046014,3.27772201263013,0.8108662716689875,B,517,Correct
2,relearn,65,659,A,27.098736795026973,50.11044216111596,1.3549368397513488,0.7871329848074907,A,2428,Correct
2,relearn,65,660,A,48.092939395899435,67.97244391910962,2.404646969794972,1.0677086523140948,A,1500,Correct
2,relearn,65,661,B,59.44523424229005,47.519370028391954,2.9722617121145025,0.7464325189220559,B,4078,Correct
2,relearn,65,662,B,45.828172702487436,32.266111710314064,2.291408635124372,0.5068348975451513,B,970,Correct
2,relearn,65,663,A,39.55639366634708,61.47195461200984,1.9778196833173538,0.9655992050544766,A,642,Correct
2,relearn,65,664,A,63.376258568848726,78.49428897966038,3.1688129284424362,1.2329854080362765,B,837,Incorrect
2,relearn,65,665,A,46.748699218018466,68.68710534171103,2.3374349609009233,1.0789345276893378,A,782,Correct
2,relearn,65,666,B,82.79677999676642,64.28226932873291,4.139838999838321,1.0097435253961389,B,1649,Correct
2,relearn,65,667,B,54.94125033705869,45.439229099916716,2.747062516852935,0.7137577416254095,B,1941,Correct
2,relearn,65,668,A,53.573776155502685,69.12073742086983,2.678688807775134,1.0857460044605687,A,731,Correct
2,relearn,65,669,A,24.967859726281805,49.319915371974886,1.2483929863140901,0.7747154190413331,A,862,Correct
2,relearn,65,670,A,38.307473972179416,68.64526648688286,1.9153736986089709,1.0782773244945243,A,2597,Correct
2,relearn,65,671,B,64.5770942051418,55.20655585285233,3.22885471025709,0.8671825514865775,A,1617,Incorrect
2,relearn,65,672,B,51.02371751088708,38.66660476772778,2.551185875544354,0.6073736073877684,B,1413,Correct
2,relearn,65,673,B,50.85284311362001,38.250257476543844,2.5426421556810004,0.600833639431141,A,855,Incorrect
2,relearn,65,674,B,55.264282028851255,31.55160732570036,2.763214101442563,0.4956114889168507,B,766,Correct
2,relearn,65,675,A,48.06083307413217,79.57531897368168,2.4030416537066084,1.249966187473914,A,603,Correct
2,relearn,65,676,B,80.21283509049653,54.64364448365402,4.010641754524826,0.8583403603760994,A,941,Incorrect
2,relearn,65,677,A,37.70564772932683,59.77004100150969,1.8852823864663413,0.9388656085755177,A,641,Correct
2,relearn,65,678,B,64.20038156447576,41.89621144103439,3.2100190782237883,0.6581041503819913,B,1357,Correct
2,relearn,65,679,B,64.32853283655415,51.47020347646715,3.216426641827707,0.8084920656022052,B,546,Correct
2,relearn,65,680,A,22.077968881347587,35.652037638578605,1.1038984440673794,0.5600208976543267,A,627,Correct
2,relearn,65,681,A,47.61782741125101,61.73452413765585,2.38089137056255,0.969723637518607,A,1184,Correct
2,relearn,65,682,A,40.127290268475406,51.51212568304162,2.00636451342377,0.8091505780831882,A,1398,Correct
2,relearn,65,683,B,52.94800070130205,21.5057072120582,2.647400035065102,0.33781085893827534,B,732,Correct
2,relearn,65,684,A,67.00753636488174,79.05017011702816,3.350376818244087,1.2417171685233954,A,819,Correct
2,relearn,65,685,B,75.45083706627736,58.37872646262471,3.772541853313868,0.9170108909045492,A,784,Incorrect
2,relearn,65,686,B,76.73128793789212,46.63150301994334,3.836564396894606,0.7324859365665211,B,629,Correct
2,relearn,65,687,A,16.67743672836699,35.12075403563437,0.8338718364183495,0.5516755143344151,A,597,Correct
2,relearn,65,688,B,49.79785122385822,40.815108704664226,2.489892561192911,0.6411222283102097,B,2474,Correct
2,relearn,65,689,A,31.340379963338627,40.154736837270875,1.5670189981669314,0.6307491312740081,A,1831,Correct
2,relearn,65,690,A,47.412702317759496,70.49996436801004,2.370635115887975,1.1074108506844127,A,691,Correct
2,relearn,65,691,A,39.61733303914706,48.914170854452905,1.9808666519573532,0.7683419990639261,A,1766,Correct
2,relearn,65,692,B,88.02351744116167,63.74233885999505,4.401175872058084,1.0012623174259583,B,672,Correct
2,relearn,65,693,B,42.93180319217841,33.9132688455296,2.14659015960892,0.532708381321657,B,2657,Correct
2,relearn,65,694,A,30.3078217708971,47.730187601432945,1.5153910885448552,0.7497440336156218,A,647,Correct
2,relearn,65,695,B,65.29841930885776,48.17294448112606,3.2649209654428883,0.756698842418473,B,1295,Correct
2,relearn,65,696,A,59.12881343958174,82.84039167571558,2.956440671979087,1.3012538295446454,A,752,Correct
2,relearn,65,697,A,21.96204674664122,36.065719792547114,1.098102337332061,0.56651900173347,A,856,Correct
2,relearn,65,698,A,57.26446764660277,66.94332810024618,2.8632233823301387,1.0515433388329227,B,633,Incorrect
2,relearn,65,699,B,41.204601169930996,19.479778127097365,2.0602300584965496,0.3059876392882411,A,836,Incorrect
2,relearn,65,700,A,46.792346852524446,69.04654704512507,2.339617342626222,1.0845806247635348,A,589,Correct
2,relearn,65,701,A,39.07931844337046,50.46356500738499,1.953965922168523,0.7926798255057583,A,898,Correct
2,relearn,65,702,B,85.4266134413317,58.215391003369064,4.271330672066585,0.914445223510208,B,885,Correct
2,relearn,65,703,A,40.5762830533716,50.100630820774825,2.0288141526685797,0.7869788686338027,A,991,Correct
2,relearn,65,704,B,80.61199861681635,54.80725426137025,4.030599930840817,0.8609103367547432,B,1444,Correct
2,relearn,65,705,B,61.641104452747584,45.42247715867175,3.082055222637379,0.7134946027476666,A,958,Incorrect
2,relearn,65,706,A,35.82426836133412,59.76922180855921,1.791213418066706,0.9388527407227423,A,863,Correct
2,relearn,65,707,A,36.05317511625068,65.81315981447055,1.802658755812534,1.0337906969133583,B,712,Incorrect
2,relearn,65,708,B,41.75034076152332,15.264154641792103,2.087517038076166,0.23976878042956307,B,697,Correct
2,relearn,65,709,B,38.84133672391145,15.954524236882694,1.9420668361955729,0.2506130806705549,B,658,Correct
2,relearn,65,710,B,54.21287787434112,35.087852489142016,2.710643893717056,0.5511586980506544,A,766,Incorrect
2,relearn,65,711,A,12.517191488703787,31.414189107985507,0.6258595744351894,0.4934529286006388,A,871,Correct
2,relearn,65,712,A,40.25187591347779,68.81593049922095,2.0125937956738893,1.0809581085314917,B,638,Incorrect
2,relearn,65,713,B,53.19843254061145,46.153987207516636,2.6599216270305726,0.7249851357250577,B,735,Correct
2,relearn,65,714,B,50.088196612871485,25.587398608505353,2.5044098306435743,0.4019259174647705,B,601,Correct
2,relearn,65,715,A,52.9908489961425,64.86275924953101,2.649542449807125,1.0188618397494502,A,728,Correct
2,relearn,65,716,A,47.62265257134096,69.2144971101601,2.3811326285670478,1.0872187782159546,A,653,Correct
2,relearn,65,717,B,65.23752647404419,52.356886447191755,3.2618763237022095,0.8224200491366631,B,1935,Correct
2,relearn,65,718,B,30.43526669779416,15.267175641060344,1.521763334889708,0.23981623417510106,B,3029,Correct
2,relearn,65,719,A,39.58916586838211,68.64027987023546,1.9794582934191056,1.0781989949033954,A,731,Correct
2,relearn,65,720,B,34.85465050066489,20.244432478435584,1.7427325250332444,0.3179988017517391,B,2033,Correct
2,relearn,65,721,A,46.90388550278333,60.0515937267728,2.345194275139167,0.9432882284419416,A,593,Correct
2,relearn,65,722,A,52.585464884971955,62.766160842899026,2.6292732442485978,0.9859285489904347,A,1030,Correct
2,relearn,65,723,A,35.311947894454796,52.51324879651713,1.7655973947227397,0.8248761831763562,A,879,Correct
2,relearn,65,724,B,70.26200884002179,57.10457314374854,3.5131004420010896,0.896996537373907,B,747,Correct
2,relearn,65,725,B,52.74073694656887,33.06672110551517,2.6370368473284436,0.5194108405169451,A,1014,Incorrect
2,relearn,65,726,A,29.17823848431611,47.80592422404641,1.4589119242158057,0.7509337017016727,A,599,Correct
2,relearn,65,727,B,74.28194307580006,45.668823690252985,3.714097153790003,0.7173642050169314,B,631,Correct
2,relearn,65,728,B,60.484382075579994,37.631415299381366,3.0242191037789996,0.5911128892436152,B,1077,Correct
2,relearn,65,729,B,60.57205863451639,28.505198640899863,3.0286029317258194,0.44775861319684385,B,841,Correct
2,relearn,65,730,B,57.35775169053962,36.44570318756016,2.867887584526981,0.5724877669447656,B,916,Correct
2,relearn,65,731,A,20.57695506578629,43.56408093093208,1.0288477532893145,0.684302983065037,A,792,Correct
2,relearn,65,732,A,18.62850628958912,38.81870456758481,0.931425314479456,0.6097627854569849,A,710,Correct
2,relearn,65,733,B,45.39419374088023,25.26689561270758,2.2697096870440117,0.3968914681795115,B,1632,Correct
2,relearn,65,734,A,46.30586681302182,75.55119593726346,2.315293340651091,1.1867554106321496,A,923,Correct
2,relearn,65,735,A,30.53952378139264,53.248625149672584,1.5269761890696318,0.8364274479198405,A,749,Correct
2,relearn,65,736,B,69.75440439414885,51.06329976137782,3.487720219707443,0.80210043699199,B,1884,Correct
2,relearn,65,737,B,71.8559130058163,60.900040560336514,3.5927956502908156,0.9566156001383681,B,758,Correct
2,relearn,65,738,A,11.905909998840603,38.99259188248372,0.5952954999420301,0.6124942010121793,A,834,Correct
2,relearn,65,739,A,52.48743801085235,82.61996615010648,2.6243719005426174,1.2977913934850596,A,935,Correct
2,relearn,65,740,B,30.937912151997132,13.113811965127958,1.5468956075998566,0.20599127665101963,B,811,Correct
2,relearn,65,741,B,47.36374371296357,23.705087773950943,2.3681871856481784,0.3723586480167275,B,1622,Correct
2,relearn,65,742,A,18.729932972130793,43.441308323027414,0.9364966486065397,0.6823744754497602,A,775,Correct
2,relearn,65,743,B,65.53627098136646,56.530587126369454,3.2768135490683226,0.8879803860966,B,805,Correct
2,relearn,65,744,A,24.58144010794431,49.59383729589417,1.2290720053972155,0.7790181745605431,A,714,Correct
2,relearn,65,745,A,62.74843059161981,74.61213078993656,3.1374215295809904,1.1720046097917276,A,803,Correct
2,relearn,65,746,B,52.97048426867001,40.14588384895686,2.6485242134335003,0.63061006885876,B,744,Correct
2,relearn,65,747,A,39.4954995381676,52.965397493682495,1.97477497690838,0.8319785183030809,A,720,Correct
2,relearn,65,748,A,60.70417202924656,72.84447644861659,3.035208601462328,1.144238360327843,A,1146,Correct
2,relearn,65,749,A,63.984015541431404,82.93547357518163,3.19920077707157,1.3027473725289052,A,586,Correct
2,relearn,65,750,A,54.622237450721826,79.36099773727693,2.7311118725360917,1.246599637364927,A,526,Correct
2,relearn,65,751,B,48.175564138976966,17.901832903652473,2.408778206948848,0.2812013336795332,B,913,Correct
2,relearn,65,752,A,18.95666300258509,45.992123883138106,0.9478331501292544,0.7224425925712917,A,750,Correct
2,relearn,65,753,B,32.75538265066649,19.174662564522794,1.6377691325333246,0.3011948952388402,B,1722,Correct
2,relearn,65,754,B,44.027615268013804,24.65752248672344,2.20138076340069,0.3873194575000774,A,964,Incorrect
2,relearn,65,755,B,70.97759652345314,48.62451847444906,3.5488798261726573,0.7637921501183516,B,889,Correct
2,relearn,65,756,B,55.340724767825044,28.491914263908697,2.767036238391252,0.44754994269102905,B,727,Correct
2,relearn,65,757,B,74.59494442890356,56.31475658932974,3.729747221445178,0.8845901279486786,B,933,Correct
2,relearn,65,758,A,50.43149884300337,81.58255503253628,2.5215749421501683,1.281495777756505,A,643,Correct
2,relearn,65,759,B,88.35818343722097,69.6810027417317,4.417909171861049,1.0945466315409729,B,806,Correct
2,relearn,65,760,B,35.01825176817241,13.128769658443296,1.7509125884086205,0.20622623154819017,A,611,Incorrect
2,relearn,65,761,A,14.761951441570428,41.43986310739402,0.7380975720785214,0.6509358475197787,A,745,Correct
2,relearn,65,762,A,18.046336231671766,34.393991307198476,0.9023168115835883,0.5402595520916297,A,1165,Correct
2,relearn,65,763,B,67.55146645913466,45.813498741450076,3.377573322956733,0.7196367554069241,B,1302,Correct
2,relearn,65,764,A,59.45364555304481,80.35501886434098,2.97268227765224,1.262213684716414,A,2152,Correct
2,relearn,65,765,B,38.3503971453802,28.357670049083687,1.9175198572690102,0.4454412394956231,B,1292,Correct
2,relearn,65,766,A,28.015532890784204,37.37410856105349,1.4007766445392102,0.5870711244493652,B,1804,Incorrect
2,relearn,65,767,A,23.764426673866634,37.22641642604927,1.1882213336933318,0.584751181817754,B,1253,Incorrect
2,relearn,65,768,A,42.32240940201261,69.34550193406625,2.116120470100631,1.0892765971777965,A,1090,Correct
2,relearn,65,769,B,39.008093320703836,20.44289489030093,1.9504046660351917,0.32111624202738864,B,1556,Correct
2,relearn,65,770,B,32.311644403998145,18.23655737283147,1.6155822201999073,0.2864591733462806,B,935,Correct
2,relearn,65,771,A,25.88520375971042,57.54181251418714,1.294260187985521,0.9038646773440577,A,883,Correct
2,relearn,65,772,A,32.16863056723709,47.15751246173517,1.6084315283618542,0.7407484735567818,B,2582,Incorrect
2,relearn,65,773,A,16.21239834129494,45.217526007927255,0.810619917064747,0.7102752376000484,A,600,Correct
2,relearn,65,774,A,53.04635715771438,66.80660853834146,2.6523178578857194,1.0493957529765134,B,1105,Incorrect
2,relearn,65,775,B,48.971566770390716,23.419565168994417,2.448578338519536,0.36787366942590133,B,7623,Correct
2,relearn,65,776,B,45.56538982589552,19.593329510809493,2.2782694912947763,0.307771300252616,B,1821,Correct
2,relearn,65,777,B,67.94791598388258,48.05808472205653,3.397395799194129,0.7548946295420432,A,4873,Incorrect
2,relearn,65,778,A,51.351633442009486,81.32931020962175,2.567581672100474,1.2775178173803652,A,1142,Correct
2,relearn,65,779,B,38.684223375833554,29.84920075638293,1.9342111687916776,0.46887014905889757,B,555,Correct
2,relearn,65,780,B,68.1896428643169,55.881547670202465,3.409482143215845,0.8777852981596794,A,643,Incorrect
2,relearn,65,781,B,80.37859399273019,64.5165970470866,4.01892969963651,1.0134243365887012,B,531,Correct
2,relearn,65,782,B,76.17733610179484,43.89089486942248,3.8088668050897416,0.6894365644062981,B,862,Correct
2,relearn,65,783,B,31.74694114457027,18.307435838925027,1.5873470572285135,0.28757252968816677,A,662,Incorrect
2,relearn,65,784,B,71.07570923914446,50.71094645034409,3.5537854619572227,0.7965656841249319,B,616,Correct
2,relearn,65,785,A,40.722170100765716,53.717415609099376,2.036108505038286,0.8437911912368814,A,461,Correct
2,relearn,65,786,B,71.32145864885359,54.169811414569736,3.5660729324426796,0.8508974079317839,B,580,Correct
2,relearn,65,787,A,58.91800479946835,79.35539607743755,2.9459002399734175,1.2465116466979305,A,1187,Correct
2,relearn,65,788,B,67.22160927646276,34.88823442477097,3.3610804638231375,0.5480231048278951,B,1026,Correct
2,relearn,65,789,A,34.31321844491746,49.94816952975731,1.715660922245873,0.7845840122747156,A,1147,Correct
2,relearn,65,790,A,64.90681207293906,87.03405626782964,3.245340603646953,1.3671277589156714,B,1271,Incorrect
2,relearn,65,791,A,49.490302260637925,77.284094887564,2.474515113031896,1.2139757236905377,A,665,Correct
2,relearn,65,792,B,77.04402152253681,55.14014538218754,3.8522010761268404,0.8661393782527678,B,712,Correct
2,relearn,65,793,A,24.455094388866215,41.6271979858203,1.2227547194433108,0.6538784969089044,A,597,Correct
2,relearn,65,794,B,59.218302012560116,51.00343062530061,2.960915100628006,0.8011600148016053,B,3495,Correct
2,relearn,65,795,B,46.39646527104706,28.889769496598483,2.3198232635523532,0.45379943807208145,A,1059,Incorrect
2,relearn,65,796,B,63.490188699864994,48.987268183261456,3.17450943499325,0.769490209219836,B,882,Correct
2,relearn,65,797,A,28.23235679380202,53.48435636486586,1.411617839690101,0.8401303051892054,A,1123,Correct
2,relearn,65,798,B,57.4020565389433,27.05431914232738,2.8701028269471647,0.42496825132704696,B,1118,Correct
2,relearn,65,799,B,73.21074903558117,44.23757115708187,3.6605374517790583,0.6948821427987206,B,1997,Correct
2,relearn,65,800,B,70.2198572923277,37.19997676705292,3.510992864616385,0.5843358686254222,B,675,Correct
2,relearn,65,801,B,38.119281441718186,21.19311764025674,1.9059640720859092,0.33290071342647415,B,2517,Correct
2,relearn,65,802,A,59.363680325321084,76.15619883749882,2.968184016266054,1.196258773966049,A,737,Correct
2,relearn,65,803,B,70.66698999777584,40.2163971278793,3.533349499888792,0.6317176888539763,B,1192,Correct
2,relearn,65,804,A,18.332901083355434,46.88195819352751,0.9166450541677718,0.7364200772334493,A,641,Correct
2,relearn,65,805,B,61.25158119785565,29.172111180132745,3.0625790598927822,0.4582344508660485,B,653,Correct
2,relearn,65,806,A,38.347316680997395,57.36152521498433,1.9173658340498696,0.9010327310705023,A,1012,Correct
2,relearn,65,807,B,82.36953222633741,62.65658746748966,4.11847661131687,0.9842073744343591,B,966,Correct
2,relearn,65,808,B,41.38838662688491,23.905323732205108,2.0694193313442453,0.37550394709390655,B,880,Correct
2,relearn,65,809,A,26.344026518806828,54.62591108112913,1.3172013259403414,0.8580618047406229,A,1149,Correct
2,relearn,65,810,B,64.15863329690293,44.23469554970541,3.207931664845147,0.6948369728636782,B,663,Correct
2,relearn,65,811,B,63.75542419636196,34.81585333947795,3.1877712098180977,0.546886145398818,B,751,Correct
2,relearn,65,812,B,53.717499176368236,35.25265943115318,2.6858749588184114,0.5537474794420688,B,1223,Correct
2,relearn,65,813,A,41.82607159974331,55.99105109426054,2.0913035799871653,0.8795053739224983,A,570,Correct
2,relearn,65,814,A,59.91857684424055,69.39078862858386,2.9959288422120274,1.089987958911806,B,607,Incorrect
2,relearn,65,815,B,80.09100901690206,50.00444911719663,4.004550450845103,0.7854680499669476,B,589,Correct
2,relearn,65,816,B,81.06257791323267,53.30630698361546,4.053128895661633,0.837333512048643,B,1317,Correct
2,relearn,65,817,B,48.77830298679576,27.97187153717342,2.438915149339788,0.43938113064170725,B,2713,Correct
2,relearn,65,818,B,54.4757771767113,25.217500861811157,2.723788858835565,0.396115577246801,B,653,Correct
2,relearn,65,819,B,58.406122767008696,29.44798677820652,2.9203061383504347,0.46256789462711484,B,780,Correct
2,relearn,65,820,A,43.26701114620384,61.6646110605128,2.163350557310192,0.9686254454708946,A,792,Correct
2,relearn,65,821,A,46.55332371790051,57.40708321658154,2.327666185895026,0.9017483544861524,A,738,Correct
2,relearn,65,822,A,41.31785732804275,63.269824889658864,2.0658928664021374,0.9938400853363246,A,624,Correct
2,relearn,65,823,A,27.358065983942808,40.47575148128247,1.3679032991971405,0.6357916175106161,B,2220,Incorrect
2,relearn,65,824,B,65.40290930158989,37.88724542763234,3.2701454650794943,0.5951314595010162,B,863,Correct
2,relearn,65,825,B,66.53470226800091,34.91078248216736,3.3267351134000456,0.5483772888852412,B,693,Correct
2,relearn,65,826,B,79.45136275794009,65.41470595373735,3.972568137897005,1.0275317983049888,B,640,Correct
2,relearn,65,827,B,58.75695291771664,45.762220377092106,2.937847645885832,0.7188312767431485,B,734,Correct
2,relearn,65,828,A,17.009607282899516,35.45322610975534,0.8504803641449757,0.5568979734623261,A,560,Correct
2,relearn,65,829,B,73.13170260001748,49.24247156885968,3.656585130000874,0.773498934626669,B,746,Correct
2,relearn,65,830,B,66.50953368406488,37.61854191072866,3.325476684203244,0.5909106745275245,B,651,Correct
2,relearn,65,831,A,22.291030431191338,43.332682927650346,1.1145515215595667,0.6806681917292109,A,676,Correct
2,relearn,65,832,B,58.104429614998935,28.05565311352833,2.9052214807499466,0.44069716856562097,B,473,Correct
2,relearn,65,833,A,38.668029486189994,65.89526516235244,1.9334014743094996,1.0350804047019895,A,687,Correct
2,relearn,65,834,A,31.441194373367576,50.80759829626848,1.5720597186683787,0.7980838877704917,A,670,Correct
2,relearn,65,835,B,32.16045366575032,18.88628059548838,1.6080226832875157,0.29666500186210876,B,794,Correct
2,relearn,65,836,B,61.70442630193918,38.138709046811336,3.085221315096959,0.5990814407943054,B,1983,Correct
2,relearn,65,837,A,25.392412774844793,45.7461163724119,1.2696206387422395,0.7185783156291651,A,795,Correct
2,relearn,65,838,A,30.931463451109195,55.950587469759874,1.54657317255546,0.8788697727951538,A,1358,Correct
2,relearn,65,839,A,46.27321847437824,59.656822516142206,2.313660923718912,0.9370871767661125,B,685,Incorrect
2,relearn,65,840,B,74.06978471838057,43.35200511878664,3.7034892359190286,0.6809717039978361,B,652,Correct
2,relearn,65,841,A,42.17655107682615,65.06831578841077,2.1088275538413073,1.0220907143116602,A,566,Correct
2,relearn,65,842,A,18.459186970132134,46.936227205747684,0.9229593485066068,0.7372725328839915,A,622,Correct
2,relearn,65,843,A,30.633355629048275,63.16578244298409,1.5316677814524138,0.9922057904056498,A,888,Correct
2,relearn,65,844,A,22.031397128164922,46.23918356384551,1.1015698564082461,0.7263233969608349,A,490,Correct
2,relearn,65,845,A,60.294488529436535,82.08548552768862,3.014724426471827,1.2893957915006893,B,649,Incorrect
2,relearn,65,846,A,26.77622315809368,37.48611702583588,1.3388111579046837,0.5888305492998663,A,513,Correct
2,relearn,65,847,B,84.0353230558402,55.09425848543066,4.201766152792009,0.8654185885640304,B,476,Correct
2,relearn,65,848,B,67.58069631753777,44.74320407911409,3.3790348158768886,0.7028246061650686,B,562,Correct
2,relearn,65,849,A,52.062526894158125,72.28696321930671,2.6031263447079063,1.1354809630004477,A,856,Correct
2,relearn,65,850,A,41.315481204580955,70.11910082548933,2.0657740602290477,1.1014282601483962,A,618,Correct
2,relearn,65,851,B,75.68091167624034,51.25094842059755,3.784045583812017,0.8050480152382935,B,569,Correct
2,relearn,65,852,A,48.667726882406704,79.72025309819297,2.433386344120335,1.2522428073780099,A,500,Correct
2,relearn,65,853,A,20.328060312508004,36.58583249328716,1.0164030156254003,0.5746889129318884,A,774,Correct
2,relearn,65,854,B,37.71604811512218,24.567660269020053,1.885802405756109,0.38590790508521616,B,1530,Correct
2,relearn,65,855,A,40.059977499822054,72.13222332803937,2.0029988749911025,1.1330503144723338,A,814,Correct
2,relearn,65,856,B,55.71380045215006,45.46968842152128,2.785690022607503,0.7142361955303408,B,1008,Correct
2,relearn,65,857,B,53.335510544523004,42.7652097040651,2.66677552722615,0.6717543431775893,B,764,Correct
2,relearn,65,858,A,27.763863302335707,52.4772314736723,1.3881931651167856,0.8243104243920998,A,584,Correct
2,relearn,65,859,A,38.85747145393046,63.58509018275424,1.942873572696523,0.998792260979926,A,580,Correct
2,relearn,65,860,B,76.8041546493792,61.50922379519595,3.84020773246896,0.9661846280149904,B,531,Correct
2,relearn,65,861,A,44.186358775570326,56.11849266669552,2.2093179387785167,0.8815072214611166,B,572,Incorrect
2,relearn,65,862,B,56.116538453799606,49.205296841765886,2.80582692268998,0.7729149953789837,A,420,Incorrect
2,relearn,65,863,B,65.05477087651909,53.12565008644901,3.2527385438259544,0.8344957601438511,B,428,Correct
2,relearn,65,864,A,32.88438047358519,45.353291489450044,1.6442190236792595,0.7124078367968636,A,503,Correct
2,relearn,65,865,A,55.78315929271857,71.97386450103845,2.789157964635929,1.1305628198346478,B,473,Incorrect
2,relearn,65,866,A,50.78062671836599,77.21535550158572,2.5390313359182994,1.2128959679405296,A,323,Correct
2,relearn,65,867,A,49.18102545317291,76.45643379155797,2.4590512726586455,1.2009748535961646,A,732,Correct
2,relearn,65,868,B,77.99215269038358,48.9283383294497,3.899607634519179,0.7685645412407753,B,645,Correct
2,relearn,65,869,B,38.861898502671856,13.224586404062308,1.943094925133593,0.20773131746882798,B,1168,Correct
2,relearn,65,870,A,57.00853518844751,84.10258105002134,2.8504267594223758,1.3210802538734359,A,563,Correct
2,relearn,65,871,A,47.872527086992754,78.98334398198524,2.393626354349638,1.2406674660488024,A,676,Correct
2,relearn,65,872,A,23.61712061924773,54.827462260098194,1.1808560309623863,0.8612277632564808,A,950,Correct
2,relearn,65,873,B,51.22511911820472,19.995649047513346,2.5612559559102355,0.31409092075713835,B,412,Correct
2,relearn,65,874,B,51.358440934130165,32.8754635383004,2.5679220467065083,0.5164065736764183,B,543,Correct
2,relearn,65,875,B,60.404633689245344,50.56395675105899,3.0202316844622668,0.7942567753277948,B,1744,Correct
2,relearn,65,876,B,42.001166721902095,16.397222822463124,2.100058336095105,0.25756697379162524,B,878,Correct
2,relearn,65,877,A,26.875255360238064,47.90858582903702,1.3437627680119033,0.7525463064218938,B,906,Incorrect
2,relearn,65,878,A,58.687435981689454,85.60808405220227,2.9343717990844724,1.3447286397314808,A,807,Correct
2,relearn,65,879,B,73.81119575331918,46.425712810642715,3.690559787665959,0.7292533915179235,B,504,Correct
2,relearn,65,880,B,65.97850721394386,34.6273023348673,3.298925360697193,0.543924393144259,B,510,Correct
2,relearn,65,881,A,54.222591724067236,68.13043186198071,2.711129586203362,1.0701903211174928,A,692,Correct
2,relearn,65,882,A,30.559131598595606,45.82612815705804,1.5279565799297803,0.7198351378033894,B,2880,Incorrect
2,relearn,65,883,B,50.96461436445297,19.747894062962832,2.5482307182226487,0.3101991945603676,B,1728,Correct
2,relearn,65,884,B,33.366035047066035,12.250799774733853,1.6683017523533017,0.19243511286451684,A,731,Incorrect
2,relearn,65,885,B,65.17016713594242,32.6346078736277,3.2585083567971207,0.5126232217428621,B,1099,Correct
2,relearn,65,886,B,48.962899758191355,39.590231001540914,2.4481449879095676,0.6218818943418191,B,438,Correct
2,relearn,65,887,B,43.03006705823725,17.57054539176647,2.1515033529118623,0.2759974816116977,B,675,Correct
2,relearn,65,888,B,52.253159118944616,45.14904866452964,2.612657955947231,0.7091995980052719,B,1055,Correct
2,relearn,65,889,B,63.41009346997691,51.56219548594653,3.1705046734988453,0.8099370727080519,B,487,Correct
2,relearn,65,890,A,33.348678546452724,55.08393530640488,1.6674339273226364,0.8652564324470849,A,804,Correct
2,relearn,65,891,B,38.83512925729971,25.079549563429445,1.9417564628649857,0.3939486433190552,B,1152,Correct
2,relearn,65,892,B,37.93673983887132,28.047651013433466,1.896836991943566,0.44057147187126444,B,493,Correct
2,relearn,65,893,A,17.58426720529834,32.64817139336845,0.879213360264917,0.5128362770127338,A,657,Correct
2,relearn,65,894,A,21.612384804617726,34.74011687418061,1.0806192402308863,0.545696479783883,A,628,Correct
2,relearn,65,895,B,47.73985032316724,18.557816066399198,2.386992516158362,0.2915054931043518,B,463,Correct
2,relearn,65,896,B,53.39998681157152,36.06509241461878,2.6699993405785762,0.5665091469040167,B,470,Correct
2,relearn,65,897,A,17.395123610708932,36.649554509362574,0.8697561805354467,0.5756898560197606,A,558,Correct
2,relearn,65,898,A,40.506334369802225,61.83352751786837,2.0253167184901115,0.9712787789783879,B,654,Incorrect
