experiment,condition,subject,trial,cat,x,y,xt,yt,resp,rt,fb
2,relearn,57,0,A,53.24542144858471,82.2644641366556,2.662271072429235,1.2922071809160913,A,4312,Correct
2,relearn,57,1,A,30.26605231482808,61.50486628040233,1.513302615741404,0.9661161803326727,A,721,Correct
2,relearn,57,2,A,38.02066929959405,59.88561367651943,1.9010334649797023,0.9406810199093495,A,624,Correct
2,relearn,57,3,B,81.88370176684509,52.92151039901712,4.094185088342255,0.8312891414321402,B,934,Correct
2,relearn,57,4,B,85.25500044814875,60.847909902342266,4.262750022407437,0.9557967336774605,B,619,Correct
2,relearn,57,5,A,10.247266471442153,34.83180906635996,0.5123633235721077,0.547136777370594,A,791,Correct
2,relearn,57,6,A,44.64502099539441,73.658326743876,2.2322510497697206,1.1570222908713872,B,1111,Incorrect
2,relearn,57,7,A,41.35822884060722,73.27765653965275,2.067911442030361,1.1510427372862455,A,963,Correct
2,relearn,57,8,A,50.43353244561401,62.17824063748728,2.5216766222807006,0.9766935199993418,A,787,Correct
2,relearn,57,9,B,41.67370285531033,23.060415792042782,2.0836851427655163,0.3622321642050383,A,1490,Incorrect
2,relearn,57,10,A,46.19932424649306,60.87786741960093,2.309966212324653,0.9562673052581584,B,2847,Incorrect
2,relearn,57,11,A,34.227788924045214,61.725934317231754,1.7113894462022607,0.9695887089349068,A,2087,Correct
2,relearn,57,12,B,75.20388354036048,50.426730791908376,3.760194177018024,0.7921012350020479,A,1044,Incorrect
2,relearn,57,13,A,22.532189683343226,35.12535048691437,1.1266094841671614,0.5517477152222843,A,2901,Correct
2,relearn,57,14,A,28.036449128135978,45.71700847284771,1.401822456406799,0.7181210898120034,A,820,Correct
2,relearn,57,15,B,67.30516631095217,34.59544982482784,3.365258315547609,0.5434240550865671,A,1055,Incorrect
2,relearn,57,16,B,85.34841453867804,69.01863445050525,4.267420726933903,1.0841421747525335,A,2538,Incorrect
2,relearn,57,17,B,36.56871799599925,14.465281186837814,1.8284358997999623,0.2272201055434016,A,784,Incorrect
2,relearn,57,18,B,38.006718812937606,19.349500604136143,1.9003359406468803,0.30394124474292683,A,696,Incorrect
2,relearn,57,19,B,84.72760136798675,67.53999923433861,4.236380068399337,1.060915827090292,B,5431,Correct
2,relearn,57,20,A,61.81823182119004,74.14891952937813,3.0909115910595015,1.1647285043255755,B,661,Incorrect
2,relearn,57,21,B,75.74480099791612,58.548772286495634,3.787240049895806,0.9196819644597818,A,915,Incorrect
2,relearn,57,22,A,35.0000962983411,58.2521944334238,1.750004814917055,0.9150233304376424,B,1528,Incorrect
2,relearn,57,23,A,34.596700915867935,59.510895358369275,1.7298350457933966,0.9347949583320191,A,728,Correct
2,relearn,57,24,A,15.48653944888639,36.250475223891335,0.7743269724443195,0.5694211332625791,A,1152,Correct
2,relearn,57,25,B,87.162008550508,65.89036549410764,4.3581004275254,1.0350034408931748,A,1582,Incorrect
2,relearn,57,26,B,61.8941583200394,35.33327368615722,3.09470791600197,0.5550137651985453,B,1393,Correct
2,relearn,57,27,A,57.05884551032541,69.27243000700092,2.8529422755162703,1.0881287860315363,B,889,Incorrect
2,relearn,57,28,A,17.632503448623368,41.908175596729514,0.8816251724311683,0.6582920829001825,A,1334,Correct
2,relearn,57,29,A,63.07054433843456,83.27404084176158,3.153527216921728,1.3080655747160728,B,3017,Incorrect
2,relearn,57,30,A,52.79365083711224,79.00125581078531,2.639682541855612,1.2409488243976554,A,1265,Correct
2,relearn,57,31,A,15.658602601500267,30.846811994037207,0.7829301300750133,0.48454058973566405,A,751,Correct
2,relearn,57,32,A,20.569513313674516,35.022253708952505,1.028475665683726,0.5501282748210153,A,722,Correct
2,relearn,57,33,B,77.50317339057328,53.658306739404125,3.8751586695286644,0.8428627112828985,B,1432,Correct
2,relearn,57,34,A,43.58303178810603,72.90581253480339,2.1791515894053015,1.145201825316665,A,1544,Correct
2,relearn,57,35,B,68.99334549731627,57.82332572975034,3.4496672748658135,0.9082866765935665,B,836,Correct
2,relearn,57,36,B,72.90994264267002,48.9627441018015,3.645497132133501,0.7691049858490828,B,995,Correct
2,relearn,57,37,A,26.651053836260964,55.78829051260823,1.3325526918130481,0.8763204181537158,A,481,Correct
2,relearn,57,38,A,46.05200064810158,55.43307126442873,2.302600032405079,0.8707406472512438,A,1461,Correct
2,relearn,57,39,B,47.91737310005152,26.25048096684774,2.395868655002576,0.41234159079323773,A,1763,Incorrect
2,relearn,57,40,A,48.96319849972075,75.62853210241516,2.4481599249860375,1.1879702042736366,B,910,Incorrect
2,relearn,57,41,B,71.14433862354883,54.4509846590007,3.5572169311774418,0.8553140669272356,B,760,Correct
2,relearn,57,42,A,44.73565597664685,73.14308865712033,2.2367827988323423,1.1489289499303807,A,570,Correct
2,relearn,57,43,A,39.04996977862605,61.23989265607612,1.9524984889313026,0.9619539843747813,A,1149,Correct
2,relearn,57,44,B,35.63482492248802,11.813184637159825,1.7817412461244009,0.18556107035800554,B,1769,Correct
2,relearn,57,45,B,39.90773789565942,22.48145761886372,1.995386894782971,0.35313791048706267,B,1031,Correct
2,relearn,57,46,A,27.294656087630358,38.54239099733844,1.364732804381518,0.605422462045119,A,1065,Correct
2,relearn,57,47,A,29.807547073924113,56.35273074149335,1.4903773536962057,0.8851866245359961,B,665,Incorrect
2,relearn,57,48,A,49.44232087983917,77.22280288294198,2.4721160439919587,1.213012951133316,A,6562,Correct
2,relearn,57,49,A,49.70020681461472,78.37866792572727,2.485010340730736,1.2311692367680938,A,1234,Correct
2,relearn,57,50,A,59.5855424950252,82.80797573218872,2.9792771247512597,1.30074464109443,A,842,Correct
2,relearn,57,51,B,31.755678515828453,18.89185431658795,1.5877839257914226,0.2967525536684066,B,1215,Correct
2,relearn,57,52,A,53.10156946907482,63.85881145320929,2.655078473453741,1.0030918646418903,A,1017,Correct
2,relearn,57,53,B,48.1028181109475,30.700977693346314,2.405140905547375,0.48224982989720444,B,711,Correct
2,relearn,57,54,B,79.68512604440136,56.5522730110268,3.9842563022200683,0.8883210271762307,B,3342,Correct
2,relearn,57,55,B,47.9226645949467,34.54364925671018,2.3961332297473352,0.5426103736653161,B,752,Correct
2,relearn,57,56,A,54.26312225003118,75.00385223440038,2.713156112501559,1.1781577558526333,A,853,Correct
2,relearn,57,57,B,57.20098822300569,32.4727908889424,2.860049411150284,0.510081406491295,B,679,Correct
2,relearn,57,58,B,87.8914258593812,66.29214270869596,4.394571292969061,1.041314542621827,A,672,Incorrect
2,relearn,57,59,B,60.58719509731568,47.37662493132221,3.029359754865784,0.7441902841806045,B,631,Correct
2,relearn,57,60,B,34.628799283728824,16.25581839975066,1.7314399641864413,0.2553457983137323,B,664,Correct
2,relearn,57,61,A,34.261632620625804,64.84994117019608,1.71308163103129,1.0186604938300912,A,985,Correct
2,relearn,57,62,B,63.11185511406303,51.805979540195096,3.1555927557031516,0.8137664236775003,B,929,Correct
2,relearn,57,63,A,67.04674260882469,80.24939862543718,3.352337130441234,1.2605546058833614,A,781,Correct
2,relearn,57,64,B,63.891781759207284,38.54885032093149,3.1945890879603644,0.6055239248628546,B,1494,Correct
2,relearn,57,65,B,70.95333152160856,48.19813117643021,3.5476665760804282,0.7570944741031516,B,1806,Correct
2,relearn,57,66,B,52.1705041510761,40.07838241897819,2.608525207553805,0.6295497588761211,B,1141,Correct
2,relearn,57,67,B,48.44578399630739,31.661048024629928,2.4222891998153697,0.49733057939565506,B,810,Correct
2,relearn,57,68,B,88.97054608179371,64.19849390058745,4.448527304089685,1.0084275840480734,B,2570,Correct
2,relearn,57,69,B,81.16927962884265,62.478850478234705,4.058463981442133,0.9814154883357863,B,974,Correct
2,relearn,57,70,B,72.19354202979814,47.97327774002619,3.609677101489907,0.7535624845834451,B,828,Correct
2,relearn,57,71,A,26.534438329090403,57.417240304499124,1.32672191645452,0.9019079016500712,B,2085,Incorrect
2,relearn,57,72,A,10.75994622801068,34.57882517756828,0.537997311400534,0.5431629157380714,B,1594,Incorrect
2,relearn,57,73,B,86.67279848461462,58.396711661113656,4.333639924230731,0.9172934017417803,B,979,Correct
2,relearn,57,74,B,79.94070250648014,52.73743894959569,3.9970351253240066,0.82839775386595,B,1644,Correct
2,relearn,57,75,A,58.75413035271596,68.2322174688203,2.9377065176357977,1.0717891656909349,B,1428,Incorrect
2,relearn,57,76,A,43.854166982226296,54.459379633584476,2.192708349111315,0.8554459348796329,B,1390,Incorrect
2,relearn,57,77,B,75.39172926219443,63.485367335124096,3.7695864631097216,0.9972258181523764,B,1827,Correct
2,relearn,57,78,A,50.42801888027347,73.10207013432776,2.5214009440136733,1.1482846324810496,A,1175,Correct
2,relearn,57,79,B,65.89979627196234,33.39018132808585,3.2949898135981175,0.524491741811728,B,932,Correct
2,relearn,57,80,B,44.6453500935874,24.818033967145517,2.23226750467937,0.3898407659386316,B,1830,Correct
2,relearn,57,81,B,42.683819802111785,25.444464428927468,2.134190990105589,0.39968071262222676,B,587,Correct
2,relearn,57,82,A,65.96484906800569,82.21058106723592,3.298242453400285,1.2913607876408826,A,1093,Correct
2,relearn,57,83,A,51.81048948489498,77.9171758778618,2.590524474244749,1.2239201366317722,A,850,Correct
2,relearn,57,84,A,22.267581865930723,36.04203771846374,1.1133790932965362,0.5661470045836596,B,1129,Incorrect
2,relearn,57,85,B,65.2689963990233,31.951389852966944,3.263449819951165,0.5018912581703221,B,1488,Correct
2,relearn,57,86,A,26.74195516878384,44.45339308293693,1.337097758439192,0.6982722656824699,A,3594,Correct
2,relearn,57,87,A,36.75308386227812,61.84427917398244,1.8376541931139059,0.9714476655976975,A,1134,Correct
2,relearn,57,88,B,60.13016789253361,39.65811299837238,3.0065083946266804,0.6229481822546028,A,956,Incorrect
2,relearn,57,89,A,14.976655135316804,38.01245586196308,0.7488327567658402,0.5970982604042474,A,4504,Correct
2,relearn,57,90,B,71.5953765058135,57.33982860686754,3.5797688252906754,0.9006919215471645,B,3083,Correct
2,relearn,57,91,B,49.869352508753956,31.00365452569033,2.493467625437698,0.48700426646172346,B,4131,Correct
2,relearn,57,92,B,59.98213700075305,44.718964680191945,2.9991068500376525,0.7024438545771622,B,1203,Correct
2,relearn,57,93,B,67.00544498382362,56.14535361319156,3.350272249191181,0.8819291522220188,B,3314,Correct
2,relearn,57,94,A,56.158393177945996,75.61715765339049,2.8079196588972994,1.187791534846164,A,1061,Correct
2,relearn,57,95,B,71.4128149914906,60.33140772325899,3.5706407495745305,0.9476835364206047,B,3595,Correct
2,relearn,57,96,A,39.9313735728097,71.34234148680618,1.9965686786404848,1.120642879524223,A,937,Correct
2,relearn,57,97,B,42.49067129473235,23.50625364729349,2.1245335647366175,0.3692353688587776,B,1150,Correct
2,relearn,57,98,B,32.79592451150536,11.548783776892684,1.639796225575268,0.18140787135691522,B,804,Correct
2,relearn,57,99,B,41.2542843472485,22.254336794756384,2.062714217362425,0.3495703049245984,B,1006,Correct
2,relearn,57,100,A,31.419887885897502,42.80225632002501,1.5709943942948752,0.6723362700602894,B,822,Incorrect
2,relearn,57,101,B,68.42807483851543,52.136242475395726,3.4214037419257717,0.8189541817323968,B,2292,Correct
2,relearn,57,102,B,77.15532025138633,64.22714177679478,3.8577660125693165,1.008877583835243,A,2190,Incorrect
2,relearn,57,103,A,60.0382645835854,81.46855522694784,3.00191322917927,1.2797050729977686,A,967,Correct
2,relearn,57,104,B,57.64082182517946,39.17319668661968,2.882041091258973,0.6153311346415621,B,1449,Correct
2,relearn,57,105,A,38.21624954057306,60.57374990030566,1.9108124770286532,0.9514902384359285,A,4705,Correct
2,relearn,57,106,B,38.98807295229185,20.964883157554723,1.9494036476145924,0.3293156145557115,B,1402,Correct
2,relearn,57,107,B,73.42799926147991,48.205163250089186,3.6713999630739953,0.7572049336578843,B,1319,Correct
2,relearn,57,108,A,20.615942422529116,42.84385521175379,1.0307971211264557,0.6729897039235524,A,739,Correct
2,relearn,57,109,B,70.46914398980299,54.262107958284766,3.5234571994901493,0.8523471986502182,A,899,Incorrect
2,relearn,57,110,B,56.25357918423902,25.43550387728815,2.812678959211951,0.3995399606062157,B,1167,Correct
2,relearn,57,111,A,32.71789885830372,51.806378404046626,1.6358949429151861,0.813772689016229,B,945,Incorrect
2,relearn,57,112,B,34.18304741224341,20.708254803507675,1.7091523706121705,0.32528450579682633,A,2972,Incorrect
2,relearn,57,113,A,33.57201612751527,50.97413573013677,1.6786008063757634,0.8006998516644334,B,1397,Incorrect
2,relearn,57,114,A,33.96708719773167,50.5051821048317,1.6983543598865836,0.7933335453437695,A,1344,Correct
2,relearn,57,115,A,63.39771959976896,74.79384618789499,3.169885979988448,1.1748589885880794,A,1092,Correct
2,relearn,57,116,A,14.095766943922257,33.114515497742275,0.7047883471961128,0.5201615930744624,A,1893,Correct
2,relearn,57,117,B,45.11080452714633,34.065971915207726,2.2555402263573168,0.5351070355310641,B,1772,Correct
2,relearn,57,118,B,56.84940181330382,44.784651856966995,2.8424700906651914,0.70347566633712,A,1123,Incorrect
2,relearn,57,119,A,60.64764928057473,72.1785805241385,3.0323824640287365,1.1337784916058642,B,2414,Incorrect
2,relearn,57,120,A,69.55289143209637,88.51324048807706,3.4776445716048188,1.3903627303138475,B,366,Incorrect
2,relearn,57,121,B,44.122130500906806,25.6579062937234,2.20610652504534,0.4030334495942837,A,1440,Incorrect
2,relearn,57,122,B,79.552020483684,54.62762483299344,3.9776010241842004,0.8580887242919578,B,275,Correct
2,relearn,57,123,B,48.30812797154167,33.50771887913941,2.4154063985770837,0.5263380173462819,A,1169,Incorrect
2,relearn,57,124,A,68.84268620032569,84.85794244145455,3.4421343100162844,1.3329454428640957,107,812,Incorrect
2,relearn,57,125,A,29.45991353906559,59.37560669012821,1.4729956769532793,0.9326698489007188,B,661,Incorrect
2,relearn,57,126,B,53.64427224425095,41.51678732176254,2.6822136122125477,0.6521441702534954,B,604,Correct
2,relearn,57,127,B,54.297189233228295,46.10081971178833,2.714859461661415,0.7241499826551089,B,477,Correct
2,relearn,57,128,B,68.75649786766357,38.849117946848544,3.4378248933831785,0.6102405177013138,B,641,Correct
2,relearn,57,129,B,42.676755375136594,32.13512947876677,2.1338377687568295,0.5047774334632524,B,464,Correct
2,relearn,57,130,B,45.403659066261085,19.749270580466796,2.270182953313054,0.3102208168467575,B,953,Correct
2,relearn,57,131,B,37.04843218362851,12.78102516291976,1.8524216091814256,0.20076387378587507,B,1198,Correct
2,relearn,57,132,B,40.166028947074274,15.46814773909761,2.0083014473537135,0.2429730965089531,B,1192,Correct
2,relearn,57,133,A,19.14268862606627,34.66927750790953,0.9571344313033135,0.544583737620572,A,583,Correct
2,relearn,57,134,B,75.7419056725701,49.86030163380289,3.787095283628505,0.7832037865926316,B,673,Correct
2,relearn,57,135,A,48.41474799674272,79.22996240084451,2.420737399837136,1.2445413391134434,B,288,Incorrect
2,relearn,57,136,B,75.94862506223927,63.007570747477885,3.797431253111964,0.9897206069040784,B,715,Correct
2,relearn,57,137,B,74.92934508827156,51.13781953663587,3.746467254413578,0.8032709908844791,B,630,Correct
2,relearn,57,138,B,38.51348461452375,14.063221245007949,1.9256742307261874,0.22090456274562437,B,681,Correct
2,relearn,57,139,A,37.214554808787646,53.24481083804251,1.8607277404393825,0.8363675328528629,B,730,Incorrect
2,relearn,57,140,A,38.61943923672884,50.08096906992928,1.930971961836442,0.7866700225737375,B,759,Incorrect
2,relearn,57,141,B,54.733217762131396,37.910238241840005,2.7366608881065697,0.5954926297820169,A,668,Incorrect
2,relearn,57,142,B,74.75742674845453,60.21938537660449,3.7378713374227264,0.9459238935141665,A,243,Incorrect
2,relearn,57,143,A,47.4825929084929,71.20863865253732,2.3741296454246448,1.1185426803147074,B,677,Incorrect
2,relearn,57,144,B,52.96286450828934,38.0501859372976,2.648143225414467,0.5976909230416989,B,1321,Correct
2,relearn,57,145,B,65.13669371890579,38.98782561603195,3.2568346859452895,0.6124193326738295,B,1242,Correct
2,relearn,57,146,A,25.314009781760113,38.554375061631674,1.2657004890880057,0.605610707286838,A,988,Correct
2,relearn,57,147,A,49.83814912870593,65.12379589275632,2.4919074564352965,1.022962193752822,B,698,Incorrect
2,relearn,57,148,B,70.43206713755087,54.89409398191298,3.5216033568775433,0.8622744118952274,A,2155,Incorrect
2,relearn,57,149,B,59.52967201340921,34.26210475909327,2.9764836006704605,0.5381878830384565,B,4454,Correct
2,relearn,57,150,B,45.84817414592654,17.86142240833566,2.2924087072963273,0.28056656710345707,B,2186,Correct
2,relearn,57,151,B,60.233206313690154,48.88315541200491,3.0116603156845074,0.7678548096332137,B,1472,Correct
2,relearn,57,152,A,39.92502873835691,55.1005322934043,1.9962514369178452,0.8655171373092304,B,1940,Incorrect
2,relearn,57,153,B,59.45029659098574,49.453284220090396,2.972514829549287,0.77681037200862,B,610,Correct
2,relearn,57,154,B,49.32589145753471,37.10671319769319,2.4662945728767354,0.5828708879036817,B,1064,Correct
2,relearn,57,155,B,58.91601294600017,45.3696202369783,2.9458006473000085,0.7126643281632492,B,695,Correct
2,relearn,57,156,A,11.450926613738517,37.424419275462576,0.5725463306869258,0.5878614033032873,A,733,Correct
2,relearn,57,157,B,69.88603388935464,47.41164617933458,3.4943016944677314,0.7447403966579803,B,2098,Correct
2,relearn,57,158,B,74.71049350561458,54.44382063113491,3.735524675280729,0.8552015346406694,B,832,Correct
2,relearn,57,159,A,63.865032141730126,78.76519753570628,3.1932516070865065,1.2372408296836186,B,1117,Incorrect
2,relearn,57,160,B,52.238237346810585,30.89430504761812,2.6119118673405293,0.48528660887679564,A,3941,Incorrect
2,relearn,57,161,A,42.83116660940371,54.61290353004434,2.1415583304701853,0.8578574826059769,B,3408,Incorrect
2,relearn,57,162,B,59.72515992297594,50.928446252410694,2.9862579961487974,0.7999821630265802,B,2506,Correct
2,relearn,57,163,A,27.488442276588323,37.350167579256706,1.3744221138294161,0.5866950603867026,A,6714,Correct
2,relearn,57,164,A,43.71588246898986,63.43015100911528,2.185794123449493,0.9963584821316388,B,915,Incorrect
2,relearn,57,165,B,31.620323082747102,13.092039874941829,1.581016154137355,0.20564928145810937,A,4934,Incorrect
2,relearn,57,166,A,50.264398298943355,79.96161289893324,2.5132199149471677,1.2560340782623975,B,725,Incorrect
2,relearn,57,167,A,52.20352308959348,81.92660820503002,2.610176154479674,1.2869001523522579,B,604,Incorrect
2,relearn,57,168,A,36.325264549804324,53.0021207235234,1.8162632274902162,0.8325553654485022,B,337,Incorrect
2,relearn,57,169,A,50.71396170935678,74.14639294413476,2.535698085467839,1.1646888168173792,B,468,Incorrect
2,relearn,57,170,A,21.622222199061273,36.41185841122012,1.0811111099530637,0.5719561344412043,A,694,Correct
2,relearn,57,171,A,17.956483708072923,42.59396597716237,0.8978241854036462,0.6690644530055345,A,547,Correct
2,relearn,57,172,A,67.19195938356103,80.18219280591657,3.3595979691780515,1.2594989393389395,B,542,Incorrect
2,relearn,57,173,B,44.290595218136204,21.591013592140722,2.21452976090681,0.3391508484231333,B,991,Correct
2,relearn,57,174,B,70.67256399684692,61.76545071193407,3.533628199842346,0.9702094310113728,B,621,Correct
2,relearn,57,175,A,39.544178923612,66.4943987309743,1.9772089461806002,1.0444915727904964,A,1314,Correct
2,relearn,57,176,A,49.38140612968231,62.50889575997039,2.4690703064841157,0.9818874385176658,B,546,Incorrect
2,relearn,57,177,A,10.75564883964023,35.31635654079311,0.5377824419820115,0.5547480313005674,A,646,Correct
2,relearn,57,178,B,70.74466614620117,45.78978577671439,3.5372333073100584,0.7192642730278815,B,688,Correct
2,relearn,57,179,B,72.37909200364842,47.82691852669725,3.6189546001824215,0.7512634794365483,B,711,Correct
2,relearn,57,180,B,65.58533712687158,37.966963944665466,3.279266856343579,0.596383675038348,B,450,Correct
2,relearn,57,181,B,59.528032958530055,39.16607751712567,2.9764016479265027,0.6152193069886519,B,590,Correct
2,relearn,57,182,A,52.24957115969204,63.81100880650754,2.612478557984602,1.0023409824233884,B,646,Incorrect
2,relearn,57,183,A,36.574157672699776,64.98432453613097,1.8287078836349888,1.02077138280602,A,749,Correct
2,relearn,57,184,A,25.52209524782826,44.52398124785637,1.276104762391413,0.6993810619841764,A,444,Correct
2,relearn,57,185,B,45.41393780764584,28.098111042792937,2.2706968903822915,0.4413640961589426,A,1600,Incorrect
2,relearn,57,186,A,31.131835750777064,53.08295899197847,1.5565917875388533,0.8338251700000391,A,456,Correct
2,relearn,57,187,B,88.43180184329762,62.91177901900569,4.421590092164881,0.9882159139518638,B,615,Correct
2,relearn,57,188,A,49.83941695524965,78.84825105841787,2.4919708477624827,1.2385454313676463,A,1203,Correct
2,relearn,57,189,A,20.219356384815068,41.56157051566805,1.0109678192407534,0.6528476230183846,A,674,Correct
2,relearn,57,190,B,50.76848375240675,42.75949016663583,2.5384241876203375,0.6716645008937405,A,1330,Incorrect
2,relearn,57,191,A,26.18403015093618,39.88164055001487,1.3092015075468089,0.6264593448251775,A,633,Correct
2,relearn,57,192,B,41.817019971239034,22.573148208794173,2.090850998561952,0.35457818290570686,A,2256,Incorrect
2,relearn,57,193,A,57.9636336576601,77.88957379410027,2.898181682883005,1.2234865641139274,B,637,Incorrect
2,relearn,57,194,B,43.81021511559161,33.596028888886224,2.1905107557795804,0.5277251877355771,B,2103,Correct
2,relearn,57,195,B,36.172946953062684,11.167695723818944,1.8086473476531342,0.1754217542173787,B,1085,Correct
2,relearn,57,196,B,55.54500724639121,43.74507204125363,2.7772503623195606,0.6871459847777934,B,492,Correct
2,relearn,57,197,B,40.57887109887123,23.992345788039646,2.0289435549435613,0.3768708863504568,B,803,Correct
2,relearn,57,198,A,23.74493776828577,46.27160344207347,1.1872468884142884,0.726832647217191,A,800,Correct
2,relearn,57,199,A,42.769272073333,53.613733011364424,2.1384636036666502,0.8421625488001354,B,662,Incorrect
2,relearn,57,200,B,60.60760593125567,46.96752334512187,3.0303802965627837,0.7377641314917097,B,3919,Correct
2,relearn,57,201,B,34.60988442915279,23.421230755830187,1.7304942214576398,0.36789983240273716,A,930,Incorrect
2,relearn,57,202,A,48.117347967586696,62.171620859855395,2.4058673983793346,0.9765895367754581,B,736,Incorrect
2,relearn,57,203,A,21.612312303683808,40.003996284706325,1.0806156151841904,0.6283813042113339,A,893,Correct
2,relearn,57,204,A,58.09509543757467,72.43860625238075,2.904754771878734,1.137862966193815,B,967,Incorrect
2,relearn,57,205,A,11.991077217255903,34.525870056641594,0.5995538608627952,0.5423310986437052,A,698,Correct
2,relearn,57,206,A,42.46211588429355,60.07451790599853,2.123105794214678,0.9436483206071674,B,3565,Incorrect
2,relearn,57,207,A,41.946664462304334,52.19138347198449,2.097333223115217,0.819820334481371,B,794,Incorrect
2,relearn,57,208,A,44.39489037769872,65.58627791689459,2.219744518884936,1.0302268444000726,B,887,Incorrect
2,relearn,57,209,A,34.70769663076768,52.32682681633353,1.735384831538384,0.8219478735592939,A,2398,Correct
2,relearn,57,210,B,75.35210746646489,52.47592672526877,3.767605373323244,0.8242899294521033,B,744,Correct
2,relearn,57,211,B,48.75222405790751,34.61128990707895,2.4376112028953756,0.543672870516729,B,2173,Correct
2,relearn,57,212,B,50.968747901391936,25.572217175902708,2.548437395069597,0.40168744807909335,B,578,Correct
2,relearn,57,213,A,15.51502825015097,32.20967176786674,0.7757514125075485,0.5059483410023435,A,576,Correct
2,relearn,57,214,B,71.03063952952935,51.020360869358555,3.551531976476468,0.8014259544533847,B,1340,Correct
2,relearn,57,215,A,14.548234613166002,43.43502546929737,0.7274117306583001,0.682275784614151,A,639,Correct
2,relearn,57,216,B,60.012396956865935,29.030506822521872,3.000619847843297,0.4560101348181154,B,621,Correct
2,relearn,57,217,A,32.41811936805808,58.3636001305098,1.6209059684029041,0.9167732870353095,A,529,Correct
2,relearn,57,218,B,70.42888511555503,57.71253958055469,3.5214442557777517,0.9065464518314038,B,372,Correct
2,relearn,57,219,B,51.34047735011187,24.618891802882647,2.5670238675055934,0.3867126481372905,A,542,Incorrect
2,relearn,57,220,B,61.07253866418492,38.69467456586062,3.053626933209246,0.6078145267457777,B,370,Correct
2,relearn,57,221,A,60.193339275883595,70.24937378836516,3.0096669637941798,1.1034745830640569,B,446,Incorrect
2,relearn,57,222,A,18.45959409442165,41.88971074363744,0.9229797047210825,0.658002037666064,A,1010,Correct
2,relearn,57,223,A,59.33523308494645,74.85108762976911,2.966761654247323,1.1757581350544424,A,1302,Correct
2,relearn,57,224,A,26.56023386063427,56.54676235045022,1.3280116930317134,0.8882344659223116,A,1207,Correct
2,relearn,57,225,B,45.608025049596094,37.32659706237204,2.280401252479805,0.5863248155732717,A,1819,Incorrect
2,relearn,57,226,A,21.8447172014222,40.774145053213154,1.09223586007111,0.6404787727778952,A,1149,Correct
2,relearn,57,227,A,18.811249524318807,39.14627836715479,0.9405624762159404,0.6149083026681728,A,1178,Correct
2,relearn,57,228,A,53.061268254992434,68.49943176813848,2.6530634127496215,1.0759865580892958,B,1717,Incorrect
2,relearn,57,229,B,85.54003708965837,60.209021311476405,4.2770018544829185,0.9457610951598279,B,676,Correct
2,relearn,57,230,B,70.90657374375031,47.25603904406493,3.5453286871875154,0.742296125492934,B,600,Correct
2,relearn,57,231,A,46.7006013429911,74.17736493259177,2.335030067149555,1.1651753236743971,A,1251,Correct
2,relearn,57,232,B,80.87088210640943,54.978812727925884,4.043544105320471,0.8636051708457048,B,1295,Correct
2,relearn,57,233,A,43.26834536816536,65.7735018504759,2.1634172684082684,1.0331677510716486,A,897,Correct
2,relearn,57,234,A,46.49065804527277,56.358963220959296,2.3245329022636385,0.8852845240945153,A,1002,Correct
2,relearn,57,235,A,23.21537283127414,42.518897025953834,1.160768641563707,0.6678852726773873,A,1711,Correct
2,relearn,57,236,B,48.963374389988516,38.4536019725828,2.448168719499426,0.6040277673056605,B,2047,Correct
2,relearn,57,237,B,77.19769903495472,51.7341606041892,3.8598849517477363,0.8126382944687763,B,843,Correct
2,relearn,57,238,A,59.90435040811694,78.73632804413354,2.995217520405847,1.2367873487704297,A,1814,Correct
2,relearn,57,239,B,34.74339999585038,17.43344076057799,1.7371699997925192,0.27384384710112336,A,2522,Incorrect
2,relearn,57,240,B,74.82394404994363,48.6244104117262,3.741197202497182,0.7637904526730703,B,706,Correct
2,relearn,57,241,A,63.05272385930037,88.1304732425571,3.152636192965019,1.384350236481046,A,1677,Correct
2,relearn,57,242,B,72.09027169052574,49.87090409552712,3.6045135845262872,0.7833703296719456,B,2261,Correct
2,relearn,57,243,B,50.29711545459402,23.12673796810411,2.514855772729701,0.36327395051046,B,2710,Correct
2,relearn,57,244,A,68.44485132501589,83.27692233332483,3.422242566250794,1.3081108370797054,A,829,Correct
2,relearn,57,245,A,16.09023998576577,42.92322296547214,0.8045119992882885,0.67423640968362,A,648,Correct
2,relearn,57,246,A,42.37831162496325,62.42675892096271,2.118915581248163,0.9805972360675878,A,3642,Correct
2,relearn,57,247,B,55.489744369240995,37.076338714173275,2.77448721846205,0.5823937666322679,B,1142,Correct
2,relearn,57,248,B,70.28386671941844,42.70312729879146,3.514193335970922,0.670779155035965,107,629,Correct
2,relearn,57,249,B,59.21680736016955,41.70078446755888,2.9608403680084776,0.6550343906610717,B,719,Correct
2,relearn,57,250,A,18.74521034596995,46.79751243753593,0.9372605172984976,0.7350936064001993,A,610,Correct
2,relearn,57,251,B,45.94264086689334,27.71491390788026,2.297132043344667,0.435344849639351,B,588,Correct
2,relearn,57,252,B,57.727223295891875,27.648165875745967,2.8863611647945935,0.43429637400237764,B,1421,Correct
2,relearn,57,253,B,58.913887008898435,40.50840837266047,2.945694350444922,0.636304590760827,B,647,Correct
2,relearn,57,254,A,31.118409521370953,63.29868661010203,1.5559204760685477,0.9942934441808957,A,748,Correct
2,relearn,57,255,A,25.236492913655848,44.473329509319576,1.2618246456827924,0.6985854263357827,A,604,Correct
2,relearn,57,256,B,72.36077788752407,61.9723093681692,3.6180388943762036,0.9734587591851713,B,2161,Correct
2,relearn,57,257,B,36.96982627416479,19.81621847413781,1.8484913137082395,0.3112724319014084,A,1368,Incorrect
2,relearn,57,258,A,55.54796328341242,73.32450355376274,2.7773981641706214,1.1517786084630985,B,717,Incorrect
2,relearn,57,259,B,42.191086446587555,15.78092936934366,2.1095543223293776,0.24788625886774723,B,670,Correct
2,relearn,57,260,A,44.44417039107735,65.5940926694756,2.2222085195538677,1.0303495982465634,A,5548,Correct
2,relearn,57,261,A,50.72152284441023,67.5440937382688,2.5360761422205114,1.060980143407628,A,1386,Correct
2,relearn,57,262,A,50.574947722329654,58.450807215609295,2.528747386116483,0.9181431327247572,A,3481,Correct
2,relearn,57,263,A,24.47275612214407,41.092004302289325,1.2236378061072033,0.6454716941867616,A,690,Correct
2,relearn,57,264,B,79.7787517479817,56.14849117623231,3.988937587399085,0.8819784369470138,B,786,Correct
2,relearn,57,265,A,29.543687517575925,40.13276630212698,1.4771843758787964,0.6304040189149908,A,1308,Correct
2,relearn,57,266,B,40.79498785816716,23.2729281407174,2.039749392908358,0.3655703003720048,B,1176,Correct
2,relearn,57,267,B,67.42816925305057,45.17980859311886,3.3714084626525285,0.7096827738336761,B,2031,Correct
2,relearn,57,268,B,59.12311041198124,27.757168275617786,2.956155520599062,0.4360085796956825,B,582,Correct
2,relearn,57,269,B,42.27769668331262,33.410962757973955,2.113884834165631,0.5248181757490658,B,4511,Correct
2,relearn,57,270,B,49.05453351313219,30.894628443474872,2.4527266756566095,0.4852916887670346,107,753,Correct
2,relearn,57,271,B,39.641496253384375,18.64807392281251,1.982074812669219,0.2929232601975359,B,1074,Correct
2,relearn,57,272,B,64.40313517074044,53.72637080015171,3.220156758537022,0.843931859048989,B,646,Correct
2,relearn,57,273,A,22.172194293572222,51.91205767151134,1.1086097146786111,0.8154326950677485,A,644,Correct
2,relearn,57,274,B,35.75814344433475,13.213561367431335,1.7879071722167372,0.20755813659840097,B,1262,Correct
2,relearn,57,275,B,71.83471945599048,42.47294906678822,3.591735972799524,0.6671635238225767,B,611,Correct
2,relearn,57,276,A,53.39990002949442,71.11638535136069,2.669995001474721,1.1170935688484778,A,1962,Correct
2,relearn,57,277,B,76.3602108127428,47.89435568116717,3.8180105406371405,0.7523227797818568,B,1474,Correct
2,relearn,57,278,B,34.132487534455905,13.462050928726075,1.706624376722795,0.21146140149968748,B,2186,Correct
2,relearn,57,279,A,45.12195097954838,75.9641869806106,2.256097548977419,1.1932426587710385,A,3727,Correct
2,relearn,57,280,B,64.89589762704195,41.77683666847907,3.2447948813520977,0.6562290158395726,B,852,Correct
2,relearn,57,281,A,30.399647079201074,59.92495176827886,1.5199823539600539,0.9412989412097378,A,4795,Correct
2,relearn,57,282,B,61.97251077457325,34.1542407864904,3.0986255387286628,0.5364935597188756,B,815,Correct
2,relearn,57,283,B,82.23296965197811,67.23712723169524,4.1116484825989055,1.0561583247978799,B,1060,Correct
2,relearn,57,284,B,78.79435431272103,64.15953680506388,3.939717715636051,1.0078156474225632,B,821,Correct
2,relearn,57,285,A,68.8079741997503,87.16958699228353,3.4403987099875155,1.3692566705570715,A,5439,Correct
2,relearn,57,286,A,49.97207068828,64.28006045970997,2.498603534414,1.009708828562663,B,740,Incorrect
2,relearn,57,287,B,32.167621197793,10.892259293648127,1.6083810598896497,0.17109520888960056,B,811,Correct
2,relearn,57,288,B,79.87557482469488,52.37378954957883,3.9937787412347436,0.8226855624480738,B,1626,Correct
2,relearn,57,289,A,24.537104240091356,54.76128359041767,1.2268552120045677,0.8601882311440172,A,1116,Correct
2,relearn,57,290,A,44.31516628807881,55.51296301156151,2.2157583144039403,0.8719955838806178,B,1510,Incorrect
2,relearn,57,291,A,46.63305738554647,60.609529975220426,2.3316528692773235,0.9520522705384143,B,1180,Incorrect
2,relearn,57,292,A,46.084001074020605,72.85489232146548,2.30420005370103,1.144401972475957,A,1239,Correct
2,relearn,57,293,A,27.36675829424589,37.13595029336268,1.3683379147122947,0.5833301431285196,A,1722,Correct
2,relearn,57,294,A,12.322872636226538,32.98438789642387,0.6161436318113269,0.5181175534928066,A,803,Correct
2,relearn,57,295,A,39.221458173759466,48.74919402057421,1.9610729086879732,0.765750549017297,A,1393,Correct
2,relearn,57,296,A,47.30448463327997,68.30954341597194,2.3652242316639986,1.0730037988284524,A,1356,Correct
2,relearn,57,297,A,34.85248852589037,52.02926675275938,1.7426244262945187,0.8172738110106628,A,1132,Correct
2,relearn,57,298,A,48.37776363434897,63.08981358707004,2.4188881817174486,0.9910124744074438,B,1327,Incorrect
2,relearn,57,299,B,76.27603525545635,62.481391669361614,3.8138017627728176,0.9814554052726647,B,578,Correct
2,relearn,57,300,B,51.43851859261089,38.005467945256775,2.5719259296305443,0.5969884944653052,B,2894,Correct
2,relearn,57,301,B,60.04765142653533,32.287483832547025,3.0023825713267667,0.5071706100561447,B,677,Incorrect
2,relearn,57,302,B,42.91599940946633,33.83841808461551,2.1457999704733166,0.5315326283186405,B,716,Incorrect
2,relearn,57,303,B,53.40951533397846,29.499519799228164,2.6704757666989227,0.46337737342840923,B,610,Incorrect
2,relearn,57,304,B,73.69499486239548,50.34794382243739,3.6847497431197733,0.7908636521796045,A,561,Incorrect
2,relearn,57,305,A,55.473244159874724,72.96039437410843,2.7736622079937363,1.1460591948435657,B,1082,Incorrect
2,relearn,57,306,B,57.09387669539564,27.23767902724633,2.8546938347697823,0.4278484616641693,B,59,Correct
2,relearn,57,307,A,38.64279522728438,54.51591411049781,1.932139761364219,0.8563339763663603,A,604,Correct
2,relearn,57,308,B,66.73503024984637,36.21699776280302,3.336751512492319,0.5688952705334996,B,523,Incorrect
2,relearn,57,309,B,82.78280773615408,52.478816163095715,4.139140386807704,0.824335316635354,B,1464,Correct
2,relearn,57,310,A,15.009773362443315,30.806827081285878,0.7504886681221657,0.48391250819489395,A,1420,Correct
2,relearn,57,311,B,74.87375103438347,63.62200174603326,3.743687551719174,0.9993720664600754,B,697,Incorrect
2,relearn,57,312,B,64.46681460361724,55.625926692091234,3.223340730180862,0.8737700132249909,B,456,Incorrect
2,relearn,57,313,A,26.174177085911445,43.72808120187423,1.3087088542955723,0.6868790932969301,A,988,Correct
2,relearn,57,314,B,52.21014559917208,43.83003350489255,2.6105072799586035,0.6884805563278246,B,749,Incorrect
2,relearn,57,315,B,76.98440156968047,54.71282287783468,3.8492200784840236,0.8594270120508251,B,522,Correct
2,relearn,57,316,A,57.67814566957388,83.98053643126707,2.883907283478694,1.319163181484993,A,1090,Correct
2,relearn,57,317,B,60.4037431671896,43.19239235665444,3.02018715835948,0.6784645125931676,B,1767,Incorrect
2,relearn,57,318,B,80.81261066486428,64.7589629880374,4.040630533243214,1.017231411886558,B,419,Correct
2,relearn,57,319,A,37.340084633519574,66.4608702526162,1.8670042316759787,1.0439649086840175,A,1595,Correct
2,relearn,57,320,A,41.92476979411845,55.85924934905091,2.0962384897059225,0.8774350369500938,A,1220,Incorrect
2,relearn,57,321,B,78.28960671306439,56.00423826151096,3.914480335653219,0.8797125174612762,B,758,Correct
2,relearn,57,322,B,85.35437546363818,61.79544107167053,4.267718773181909,0.9706805184805056,B,448,Correct
2,relearn,57,323,B,81.90666199528746,61.69352865315033,4.095333099764373,0.9690796819538424,B,652,Incorrect
2,relearn,57,324,A,21.198914479048337,47.363896454928295,1.0599457239524168,0.7439903457409517,A,618,Correct
2,relearn,57,325,A,40.84130193902649,51.45091196971998,2.0420650969513248,0.8081890353228373,A,1262,Incorrect
2,relearn,57,326,B,32.79108983624491,10.196530478828532,1.6395544918122453,0.16016672622196065,B,710,Correct
2,relearn,57,327,A,15.702741811710116,39.603851613146475,0.7851370905855057,0.6220958464086063,A,1355,Correct
2,relearn,57,328,B,46.78921577987692,19.313855761697212,2.3394607889938457,0.3033813368672043,B,647,Correct
2,relearn,57,329,A,21.651974637529626,45.27588318270301,1.0825987318764814,0.7111919099578472,B,239,Incorrect
2,relearn,57,330,A,21.533838549306438,40.308487844271596,1.076691927465322,0.6331642464443856,A,726,Correct
2,relearn,57,331,A,64.95582303857253,79.17453756296818,3.2477911519286264,1.2436707277959498,B,1681,Correct
2,relearn,57,332,B,46.214542384937126,17.608151306063135,2.3107271192468564,0.2765881939321273,A,2664,Incorrect
2,relearn,57,333,A,66.61256346443045,79.20347267720021,3.3306281732215224,1.2441252395074605,B,1284,Incorrect
2,relearn,57,334,A,25.12194525340857,56.243160097592735,1.2560972626704285,0.8834654928863597,A,4199,Correct
2,relearn,57,335,B,41.23125962234154,31.33443225930106,2.0615629811170773,0.4922001109511362,B,941,Correct
2,relearn,57,336,B,41.46358917052598,33.44742108690643,2.073179458526299,0.5253908618407478,B,582,Incorrect
2,relearn,57,337,A,51.85577134660618,78.65608809076775,2.592788567330309,1.235526942530338,A,1215,Correct
2,relearn,57,338,B,83.00818588085275,58.62343276958754,4.150409294042637,0.9208547285857566,B,964,Correct
2,relearn,57,339,B,45.50294819939499,34.23888361626484,2.2751474099697497,0.5378231261798678,B,1709,Correct
2,relearn,57,340,A,47.59535781581546,70.4549077415603,2.3797678907907733,1.1067031028511625,B,714,Incorrect
2,relearn,57,341,A,60.21894456825946,78.24592680831827,3.0109472284129732,1.2290841441716867,B,3460,Correct
2,relearn,57,342,B,53.97529781912992,44.791503142743636,2.6987648909564963,0.7035832860824377,B,781,Incorrect
2,relearn,57,343,A,18.749725112307367,46.220148208760364,0.9374862556153684,0.726024390302365,A,783,Incorrect
2,relearn,57,344,A,49.219082382978,78.38129965518273,2.4609541191489,1.2312105758777112,B,776,Correct
2,relearn,57,345,B,68.04440711777478,41.337100881108555,3.4022203558887387,0.6493216622439539,B,806,Correct
2,relearn,57,346,B,76.86303568932611,48.62810592332811,3.843151784466306,0.7638485016335693,B,737,Incorrect
2,relearn,57,347,B,82.56495463052916,68.2613318910924,4.128247731526458,1.0722464939665526,B,1336,Correct
2,relearn,57,348,A,44.704630299311624,64.11377850465146,2.235231514965581,1.0070968777204812,A,1834,Correct
2,relearn,57,349,A,56.538897291274935,76.62956731933744,2.8269448645637465,1.203694428690975,B,2382,Incorrect
2,relearn,57,350,A,29.97767182797115,53.591772610947274,1.4988835913985576,0.8418175956370332,A,1045,Correct
2,relearn,57,351,A,53.51238851586973,67.46090582478664,2.6756194257934864,1.0596734307183129,B,1447,Correct
2,relearn,57,352,A,42.86817193706194,50.629122765467024,2.1434085968530967,0.7952804006884348,B,2277,Correct
2,relearn,57,353,B,65.6909311334268,48.39380114753748,3.2845465566713403,0.7601680508219452,B,773,Correct
2,relearn,57,354,A,16.066593473451473,34.765513975798854,0.8033296736725737,0.5460954165232148,B,1503,Correct
2,relearn,57,355,B,44.956391410328294,28.995126511980068,2.247819570516415,0.4554543821997161,B,530,Incorrect
2,relearn,57,356,B,62.94114859554746,49.353203794139134,3.147057429777373,0.7752383123539369,B,622,Incorrect
2,relearn,57,357,B,53.932745045517706,45.15722991504011,2.6966372522758855,0.7093281087877762,A,610,Incorrect
2,relearn,57,358,B,38.30955076415043,21.341559726259586,1.9154775382075215,0.33523243626082455,A,379,Incorrect
2,relearn,57,359,B,68.21736167227746,54.328830883562865,3.410868083613873,0.8533952799096167,B,501,Correct
2,relearn,57,360,A,39.10977710632108,58.977362626131345,1.955488855316054,0.9264142457717772,B,4094,Incorrect
2,relearn,57,361,A,20.048075547557424,46.420616691043165,1.0024037773778713,0.7291733418584445,A,646,Correct
2,relearn,57,362,A,51.84558360525146,75.86483314018571,2.5922791802625733,1.1916820122951146,B,804,Correct
2,relearn,57,363,A,18.49359004426276,44.849772678391446,0.924679502213138,0.7044985818080339,A,817,Correct
2,relearn,57,364,B,70.72951621267427,60.893670852955076,3.5364758106337137,0.9565155450087929,B,712,Correct
2,relearn,57,365,B,61.43159284988476,51.24070379820495,3.071579642494238,0.8048870930860564,B,789,Incorrect
2,relearn,57,366,A,34.22344715905244,48.28265052721865,1.7111723579526221,0.7584221009607672,A,1586,Correct
2,relearn,57,367,B,66.46990376561328,51.85831147868761,3.323495188280664,0.8145884518450812,B,2154,Incorrect
2,relearn,57,368,A,47.73426168599393,75.43611394752119,2.3867130842996964,1.1849477069644756,B,1064,Correct
2,relearn,57,369,A,14.496491856377926,40.459323448358475,0.7248245928188963,0.6355335665728812,A,636,Correct
2,relearn,57,370,A,29.840414962315045,40.13633981423405,1.4920207481157521,0.6304601515119062,A,1003,Correct
2,relearn,57,371,A,14.06251684348177,33.66851787585178,0.7031258421740886,0.5288638420801628,A,508,Correct
2,relearn,57,372,B,72.06077821876586,51.00055890121274,3.603038910938293,0.8011149058651174,B,836,Correct
2,relearn,57,373,B,56.61207691524369,31.1509626111621,2.8306038457621843,0.4893181764573859,B,1647,Correct
2,relearn,57,374,A,45.178670033782495,60.36902002731405,2.2589335016891248,0.9482743491111244,B,1820,Correct
2,relearn,57,375,A,58.808754517690886,77.64488192897346,2.940437725884544,1.2196429532845496,A,1125,Correct
2,relearn,57,376,B,79.16378852783444,61.425436820325444,3.958189426391722,0.964868505291392,B,823,Incorrect
2,relearn,57,377,B,52.53610267957057,28.033918955585627,2.6268051339785283,0.4403557692109973,B,1034,Incorrect
2,relearn,57,378,A,53.027053340477316,72.62566218175958,2.6513526670238656,1.1408012338615496,A,2169,Correct
2,relearn,57,379,B,36.29843292556111,14.357944404748302,1.8149216462780555,0.2255340633130397,A,824,Incorrect
2,relearn,57,380,A,37.5290607570701,49.35766285538381,1.8764530378535051,0.7753083551241781,B,2807,Incorrect
2,relearn,57,381,A,29.19357384746821,51.11127793080422,1.4596786923734104,0.8028540763150032,A,1443,Correct
2,relearn,57,382,B,65.00385820972112,51.04133399959908,3.2501929104860556,0.8017553996128169,B,690,Correct
2,relearn,57,383,A,58.94857399605307,86.70791810527132,2.9474286998026535,1.3620047926379288,B,2379,Incorrect
2,relearn,57,384,A,29.848008971006188,44.3513468281473,1.4924004485503093,0.6966693268606027,A,1591,Incorrect
2,relearn,57,385,A,37.09318930022017,68.2795269640082,1.8546594650110082,1.0725323015035717,A,4555,Correct
2,relearn,57,386,B,38.0696326848366,17.911331989513776,1.90348163424183,0.28135054497132167,B,1604,Correct
2,relearn,57,387,B,38.7344088548444,15.486498258391208,1.93672044274222,0.24326134579196473,B,1527,Correct
2,relearn,57,388,B,79.76315421441157,56.62888890246353,3.988157710720578,0.8895245067846599,B,562,Correct
2,relearn,57,389,B,79.51953311276439,65.14026227107163,3.97597665563822,1.023220847018555,107,1150,Incorrect
2,relearn,57,390,A,36.9134142215644,46.7061025947662,1.8456707110782202,0.7336577439476434,B,906,Incorrect
2,relearn,57,391,A,28.727012659540115,47.8714887135369,1.436350632977006,0.751963586294271,A,1466,Incorrect
2,relearn,57,392,B,41.51218621145058,28.92640586816168,2.075609310572529,0.4543749208508671,A,1228,Incorrect
2,relearn,57,393,B,82.78728441637283,61.446063100280554,4.139364220818641,0.9651925021392812,107,517,Incorrect
2,relearn,57,394,A,64.65455693573838,87.81638547436499,3.232727846786919,1.3794165573553723,B,288,Incorrect
2,relearn,57,395,B,59.645407736082454,27.290401660692847,2.9822703868041227,0.4286766268537367,B,662,Correct
2,relearn,57,396,B,65.71764874745595,56.47972566817157,3.2858824373727975,0.8871814561794733,B,548,Correct
2,relearn,57,397,B,67.57485417442716,47.15759873838386,3.378742708721358,0.7407498287872102,B,632,Correct
2,relearn,57,398,A,32.44521548847072,62.420158185953134,1.6222607744235362,0.9804935519645157,A,1339,Correct
2,relearn,57,399,B,70.03496354504034,49.046213218743375,3.501748177252017,0.770416115672014,B,1917,Correct
2,relearn,57,400,B,53.3916081155792,33.614972609304345,2.66958040577896,0.5280227550000633,B,1483,Correct
2,relearn,57,401,B,85.23440301037932,62.46190933878046,4.261720150518966,0.9811493775395219,A,3737,Correct
2,relearn,57,402,A,21.14093560721676,36.074267788660265,1.057046780360838,0.56665327334243,A,1537,Correct
2,relearn,57,403,A,23.91318176686663,51.98652755125263,1.1956590883433313,0.816602465203293,A,555,Incorrect
2,relearn,57,404,B,79.31777599381552,58.447382000322946,3.965888799690776,0.9180893295688544,107,1755,Correct
2,relearn,57,405,B,76.70987519991536,58.265999554258556,3.835493759995768,0.9152401807686241,B,1268,Incorrect
2,relearn,57,406,B,49.35150830181678,20.80563528654026,2.467575415090839,0.32681415484731724,B,3190,Incorrect
2,relearn,57,407,B,70.64368775735382,54.567420899534845,3.532184387867691,0.857143043116604,B,820,Correct
2,relearn,57,408,B,65.73649128199946,53.49571589842754,3.286824564099973,0.8403087403251334,B,1403,Correct
2,relearn,57,409,B,66.89033822796426,40.36324299407577,3.3445169113982134,0.6340243383262406,B,4949,Correct
2,relearn,57,410,A,17.32809451511739,31.221466528535803,0.8664047257558694,0.4904256494017385,A,2811,Correct
2,relearn,57,411,A,26.851462021827196,43.814174066363535,1.3425731010913597,0.6882314368499606,A,905,Correct
2,relearn,57,412,A,56.35202137710899,78.56951115917039,2.817601068855449,1.2341669952689547,A,1344,Incorrect
2,relearn,57,413,B,53.53375699823365,24.773741377470323,2.6766878499116826,0.38914501956697123,B,1292,Correct
2,relearn,57,414,A,34.06982904377065,51.994637889687446,1.7034914521885327,0.8167298621015179,B,946,Incorrect
2,relearn,57,415,B,63.90118419179188,33.943108322357105,3.1950592095895938,0.5331770987275983,B,906,Incorrect
2,relearn,57,416,A,39.05909209629305,50.65218389528371,1.9529546048146527,0.7956426440685127,B,9872,Incorrect
2,relearn,57,417,A,67.57251475204937,88.78287074255542,3.3786257376024684,1.3945980724471214,B,5435,Incorrect
2,relearn,57,418,B,81.9090477911837,62.18268496924338,4.095452389559185,0.9767633313993173,A,1284,Correct
2,relearn,57,419,B,78.97828660686625,53.01647081744093,3.9489143303433125,0.8327807761966505,A,2467,Incorrect
2,relearn,57,420,B,79.99549883028604,54.419464065937795,3.9997749415143016,0.8548189426092195,A,1004,Correct
2,relearn,57,421,B,71.92369656001556,39.21532305297234,3.596184828000778,0.6159928540568417,A,774,Correct
2,relearn,57,422,B,68.25581209227457,37.88025677591806,3.4127906046137286,0.5950216820165959,B,662,Incorrect
2,relearn,57,423,B,74.50008151416067,44.205923022511016,3.725004075708034,0.6943850150633826,A,714,Correct
2,relearn,57,424,B,84.68666346781205,65.85015789922448,4.234333173390603,1.0343718614696575,B,1630,Correct
2,relearn,57,425,B,49.97252685509142,37.6553945984196,2.4986263427545707,0.5914895551920989,A,1036,Correct
2,relearn,57,426,A,24.17704467293816,52.733157867406845,1.208852233646908,0.8283305067841806,A,8078,Incorrect
2,relearn,57,427,A,28.601492160226258,42.41754436465777,1.430074608011313,0.66629322879664,B,967,Correct
2,relearn,57,428,A,24.091728325263098,40.91672040006013,1.2045864162631548,0.6427183410890827,B,4061,Incorrect
2,relearn,57,429,A,35.737876841694785,57.82352030870525,1.7868938420847393,0.908289733032643,B,1219,Correct
2,relearn,57,430,A,50.35683440127719,66.10148064691121,2.5178417200638594,1.038319629958721,B,5341,Correct
2,relearn,57,431,B,86.29500741563197,63.76394365342473,4.314750370781598,1.0016016847275633,B,581,Correct
2,relearn,57,432,A,58.03287400723529,85.8888576890779,2.901643700361765,1.3491390217061314,A,1069,Incorrect
2,relearn,57,433,B,63.130701814410116,32.801430263076895,3.156535090720506,0.5152436617086015,B,573,Incorrect
2,relearn,57,434,A,26.008460195496426,43.63582307095801,1.300423009774821,0.6854299059653285,A,1053,Incorrect
2,relearn,57,435,A,52.826241943299415,66.52755546890943,2.641312097164971,1.0450123976120667,B,1372,Incorrect
2,relearn,57,436,B,67.46411959041396,35.02447402785913,3.3732059795206975,0.5501631515088437,B,501,Correct
2,relearn,57,437,A,45.24593872289987,73.86802728411436,2.2622969361449936,1.1603162592547205,B,1001,Incorrect
2,relearn,57,438,A,43.402041191185496,65.80661980029147,2.170102059559275,1.0336879666108616,A,1863,Correct
2,relearn,57,439,B,66.51013301785717,35.8852593012126,3.3255066508928586,0.5636843349642715,B,759,Incorrect
2,relearn,57,440,A,22.421508245329456,35.230716074991506,1.1210754122664728,0.5534027940095056,A,636,Correct
2,relearn,57,441,B,63.02915204157465,30.338690709641572,3.1514576020787324,0.4765590392647143,B,630,Incorrect
2,relearn,57,442,A,22.767284469278675,50.47297926277396,1.1383642234639337,0.7928277042836033,A,1375,Incorrect
2,relearn,57,443,B,52.29090725938099,39.40722389775713,2.6145453629690496,0.6190072254778096,B,1171,Incorrect
2,relearn,57,444,A,57.157326471841074,72.86945794275549,2.857866323592054,1.1446307687201551,A,892,Incorrect
2,relearn,57,445,B,77.40987190451115,62.91476727013924,3.8704935952255575,0.9882628532909049,B,762,Correct
2,relearn,57,446,A,63.14336000407857,84.31385728049563,3.1571680002039284,1.3243989731411168,B,700,Correct
2,relearn,57,447,A,48.93950736315395,67.91184653565868,2.4469753681576973,1.0667567908407138,B,3937,Incorrect
2,relearn,57,448,A,45.968442456999334,64.20524410735776,2.2984221228499666,1.0085336160480725,B,620,Incorrect
2,relearn,57,449,B,46.69158539758179,31.585206943732345,2.3345792698790895,0.4961392704827142,A,1436,Incorrect
2,relearn,57,450,A,44.54191347517489,76.76252204308051,2.227095673758744,1.2057828766078316,B,654,Incorrect
2,relearn,57,451,A,66.62168851771,86.36140529567865,3.3310844258855004,1.3565617821529736,B,498,Incorrect
2,relearn,57,452,A,48.88639937525719,76.97539201478561,2.4443199687628594,1.2091266303042245,B,631,Correct
2,relearn,57,453,B,66.2877057919014,43.14546893386732,3.3143852895950703,0.6777274411916211,B,1200,Correct
2,relearn,57,454,A,26.471639396228703,41.529124034788985,1.3235819698114353,0.652337954888562,B,2250,Incorrect
2,relearn,57,455,B,65.40173029626766,32.9122617813549,3.270086514813383,0.5169845991266434,A,1500,Incorrect
2,relearn,57,456,A,65.44124796996196,83.01881124019762,3.2720623984980985,1.304056437509813,A,6726,Correct
2,relearn,57,457,A,45.08838647756274,58.514252839241166,2.254419323878137,0.9191397342502786,A,8167,Incorrect
2,relearn,57,458,A,38.21767559458939,48.698405846810566,1.9108837797294695,0.7649527702493714,B,3395,Correct
2,relearn,57,459,A,49.19733481706238,71.37228929626642,2.4598667408531187,1.12111329861518,A,2548,Correct
2,relearn,57,460,A,41.44172988366962,62.608305964814335,2.072086494183481,0.9834489703638136,B,2403,Incorrect
2,relearn,57,461,B,60.018550161019185,41.75658924407299,3.0009275080509594,0.6559109700407314,B,6297,Correct
2,relearn,57,462,A,26.536420588775908,53.288395113835705,1.3268210294387952,0.8370521530560824,A,1432,Correct
2,relearn,57,463,A,49.6836729808792,71.66945505421405,2.48418364904396,1.1257811674255136,B,871,Correct
2,relearn,57,464,A,28.32307788040604,38.306283714415514,1.4161538940203018,0.6017136975176706,A,1933,Incorrect
2,relearn,57,465,A,56.81186607691606,75.12416090505066,2.8405933038458033,1.1800475600320235,B,3197,Correct
2,relearn,57,466,A,24.82037152667491,44.45995214053997,1.2410185763337456,0.6983752951183709,A,720,Correct
2,relearn,57,467,A,19.125146516478704,31.970046009794917,0.9562573258239353,0.502184308396497,A,1114,Correct
2,relearn,57,468,B,56.81883616675679,34.48258603708139,2.8409418083378393,0.5416511948543643,B,659,Correct
2,relearn,57,469,B,34.88914569644024,19.03680398995729,1.744457284822012,0.2990294178133934,A,1235,Incorrect
2,relearn,57,470,A,34.01855320967431,57.28458621329301,1.7009276604837154,0.8998241760580624,A,637,Incorrect
2,relearn,57,471,B,49.39644312157415,32.175508212549566,2.4698221560787075,0.5054117011303189,B,1137,Incorrect
2,relearn,57,472,A,25.847415637785517,49.513918202549746,1.2923707818892758,0.7777628083778811,B,1380,Correct
2,relearn,57,473,A,56.861579651401584,82.48201721532824,2.8430789825700793,1.2956244966847104,B,676,Incorrect
2,relearn,57,474,A,40.32234214747065,51.23743826161161,2.0161171073735322,0.8048357981571979,A,2986,Correct
2,relearn,57,475,B,45.5240676842298,29.38066355581485,2.27620338421149,0.4615103839227065,A,3386,Incorrect
2,relearn,57,476,A,58.67160942677952,82.16835310023009,2.933580471338976,1.2906974722862747,B,654,Correct
2,relearn,57,477,A,33.02200592623463,60.377073324757134,1.6511002963117312,0.9484008500115463,A,1572,Correct
2,relearn,57,478,B,38.19419936284375,26.876814376438887,1.9097099681421872,0.4221800129845847,A,1302,Correct
2,relearn,57,479,B,38.33270517743936,15.085589019915297,1.9166352588719677,0.23696387820020368,A,1347,Incorrect
2,relearn,57,480,B,71.74681123265748,61.67514720149332,3.5873405616328737,0.9687909467864025,B,302,Correct
2,relearn,57,481,B,44.49140173891619,30.175831597151735,2.224570086945809,0.47400085430787314,B,1760,Correct
2,relearn,57,482,A,49.89177368857638,62.92728968563249,2.494588684428819,0.9884595549334989,A,2894,Correct
2,relearn,57,483,B,70.83902053228746,43.77618641073955,3.541951026614373,0.6876347281507834,B,889,Incorrect
2,relearn,57,484,B,60.28175297807423,45.483465681595355,3.0140876489037116,0.7144526082255174,B,788,Correct
2,relearn,57,485,B,81.90851759806603,60.055268841120906,4.095425879903302,0.9433459570031273,B,974,Incorrect
2,relearn,57,486,A,45.322087407512164,68.55568526165986,2.2661043703756083,1.0768701858992236,A,1642,Incorrect
2,relearn,57,487,A,13.683990666003837,33.88996326783221,0.6841995333001918,0.5323422981632481,A,1456,Incorrect
2,relearn,57,488,A,16.814903865853,37.208703994840405,0.84074519329265,0.5844729555989391,A,1206,Correct
2,relearn,57,489,A,42.84520168712069,73.56642330199134,2.1422600843560344,1.155578674982065,B,1776,Incorrect
2,relearn,57,490,A,30.3401290710252,60.690929824533654,1.51700645355126,0.9533308963814431,A,908,Correct
2,relearn,57,491,A,30.478686915650016,42.19466923768093,1.523934345782501,0.6627923144887481,A,758,Incorrect
2,relearn,57,492,B,41.297139628335906,19.694721931790788,2.064856981416795,0.3093639686770386,B,549,Incorrect
2,relearn,57,493,B,47.08739489370465,23.364421297248327,2.3543697446852323,0.36700747151406127,B,701,Incorrect
2,relearn,57,494,A,48.2184649245022,77.72222936974364,2.41092324622511,1.2208579240430373,B,546,Incorrect
2,relearn,57,495,B,72.3168893251494,51.06094735326117,3.6158444662574705,0.8020634854517026,B,753,Incorrect
2,relearn,57,496,A,22.962662360141806,48.657956667611245,1.1481331180070904,0.7643173960282899,A,703,Correct
2,relearn,57,497,B,42.20597998743385,31.425443461859707,2.1102989993716927,0.4936297115778992,A,874,Incorrect
2,relearn,57,498,A,38.73442640548093,60.77865099880859,1.9367213202740465,0.954708817364775,B,594,Correct
2,relearn,57,499,A,54.988932210677575,64.87735791620466,2.749446610533879,1.019091155069321,B,603,Incorrect
2,relearn,57,500,A,28.145997789532238,49.92185324922647,1.4072998894766118,0.7841706371067881,A,626,Incorrect
2,relearn,57,501,A,58.21300113146114,86.62113221431096,2.9106500565730573,1.3606415630505473,B,572,Correct
2,relearn,57,502,B,71.47281582222597,45.65732008042816,3.5736407911112984,0.7171835067363542,B,940,Incorrect
2,relearn,57,503,A,13.36813299889402,41.800831973180536,0.668406649944701,0.6566059332044265,A,635,Correct
2,relearn,57,504,A,37.184434547096686,50.0283667038609,1.8592217273548344,0.7858437465397281,B,823,Incorrect
2,relearn,57,505,B,77.34029288673642,63.12745208533265,3.867014644336821,0.9916036985556136,B,893,Correct
2,relearn,57,506,B,55.805040239131586,26.06047570177153,2.7902520119565795,0.40935699506870377,B,641,Incorrect
2,relearn,57,507,A,43.320329759256005,56.3003205201454,2.1660164879628003,0.8843633667041972,B,1783,Correct
2,relearn,57,508,B,51.0189302430397,25.50953092974714,2.550946512151985,0.40070277482707606,B,1169,Correct
2,relearn,57,509,A,29.078942139228065,49.90305439552359,1.4539471069614032,0.7838753454033437,A,768,Incorrect
2,relearn,57,510,B,41.75306400789951,14.061874322337442,2.0876532003949757,0.2208834053337913,B,2112,Correct
2,relearn,57,511,B,51.67187697213477,34.63974328672457,2.5835938486067387,0.5441198151590512,B,942,Correct
2,relearn,57,512,A,54.339783555370964,75.19265144323447,2.716989177768548,1.1811234068900165,A,691,Correct
2,relearn,57,513,B,68.00801368754405,52.132149174096995,3.4004006843772028,0.8188898843059518,B,1318,Incorrect
2,relearn,57,514,B,74.99020784161195,47.70594524570355,3.749510392080597,0.7493632355822959,B,324,Correct
2,relearn,57,515,B,75.67796800554571,46.861791460566245,3.7838984002772857,0.7361032989328589,A,1228,Incorrect
2,relearn,57,516,B,77.70199538715313,61.74486215199883,3.885099769357657,0.9698860266681699,B,1014,Correct
2,relearn,57,517,A,62.0518522777039,81.30489723241527,3.102592613885195,1.2771343392311445,B,527,Incorrect
2,relearn,57,518,A,18.64178608888063,48.752182261281824,0.9320893044440314,0.7657974881925681,A,1212,Incorrect
2,relearn,57,519,A,39.348358880684415,53.22243415480864,1.967417944034221,0.8360160407345665,B,1092,Incorrect
2,relearn,57,520,B,45.089061225843,17.680353842364603,2.25445306129215,0.27772234872020357,A,795,Incorrect
2,relearn,57,521,B,37.71062231191138,17.76571672991891,1.885531115595569,0.27906322582235266,B,639,Incorrect
2,relearn,57,522,A,55.76400132303882,76.52317569670055,2.7882000661519406,1.2020232329905773,A,1683,Incorrect
2,relearn,57,523,B,53.4479841448347,25.9367499997119,2.672399207241735,0.40741351628544986,B,926,Correct
2,relearn,57,524,B,41.312496095424606,15.965366161455112,2.0656248047712302,0.25078338522349225,B,1716,Correct
2,relearn,57,525,A,51.56343751892706,80.93196326959664,2.578171875946353,1.2712763062418189,A,1067,Incorrect
2,relearn,57,526,A,40.31905966467241,62.128457077028344,2.0159529832336203,0.9759115216603051,B,993,Correct
2,relearn,57,527,A,30.681868579987864,43.08196011243195,1.534093428999393,0.6767298469573235,A,890,Correct
2,relearn,57,528,A,16.426258174485483,41.299605474827246,0.8213129087242741,0.6487326857793704,A,975,Incorrect
2,relearn,57,529,B,37.453909150064604,21.90924074190617,1.87269545750323,0.3441495488025131,B,1422,Correct
2,relearn,57,530,A,65.11631566043746,76.99797026721052,3.2558157830218732,1.2094812886639694,B,2181,Incorrect
2,relearn,57,531,B,59.63067286427397,48.857088183818064,2.9815336432136985,0.7674453465703577,B,805,Correct
2,relearn,57,532,A,60.06107071822193,77.2676352602441,3.0030535359110964,1.2137171764691925,A,1854,Correct
2,relearn,57,533,A,23.806365955643578,41.02484638449103,1.190318297782179,0.6444167800808339,A,1715,Incorrect
2,relearn,57,534,B,61.60656196235723,29.02691622976903,3.0803280981178616,0.4559537339190436,B,3540,Incorrect
2,relearn,57,535,B,61.199576588945,40.33567064201053,3.05997882944725,0.6335912328327888,B,2127,Incorrect
2,relearn,57,536,B,69.80031021445517,38.68737129140471,3.4900155107227584,0.6076998071788885,B,638,Incorrect
2,relearn,57,537,B,48.98273397123038,40.077290044540426,2.449136698561519,0.6295325998985778,B,547,Incorrect
2,relearn,57,538,B,78.0371790915615,49.58065030516434,3.9018589545780746,0.7788110337945442,B,556,Correct
2,relearn,57,539,B,47.94139359987729,34.16183957330133,2.3970696799938644,0.5366129211829826,A,908,Correct
2,relearn,57,540,B,53.477495401529424,22.697713439062444,2.6738747700764716,0.3565348489672244,B,1824,Correct
2,relearn,57,541,A,60.46638566378077,72.12901714941309,3.0233192831890388,1.1329999519362417,A,1667,Correct
2,relearn,57,542,B,76.17020242625591,62.815973978788136,3.8085101213127954,0.9867110118992419,A,814,Incorrect
2,relearn,57,543,B,41.6894690678492,22.997906873190065,2.08447345339246,0.36125027640378055,B,869,Correct
2,relearn,57,544,B,67.78296953858047,48.744751629024826,3.3891484769290234,0.7656807680940174,B,1303,Incorrect
2,relearn,57,545,B,55.7381286916013,30.237111770665592,2.786906434580065,0.47496344102248245,A,1059,Incorrect
2,relearn,57,546,A,19.503372162478936,49.73645036449416,0.9751686081239468,0.7812583354036412,A,611,Correct
2,relearn,57,547,A,18.11251626534186,46.93033880077855,0.905625813267093,0.7371800380350297,A,614,Incorrect
2,relearn,57,548,B,61.28479900824969,52.63048650686382,3.064239950412485,0.8267177488241005,B,572,Incorrect
2,relearn,57,549,B,69.64554306072937,55.37965694415536,3.4822771530364687,0.8699016170704073,B,627,Correct
2,relearn,57,550,A,65.72529734593422,83.94424993764714,3.286264867296711,1.3185931945760885,A,994,Correct
2,relearn,57,551,B,35.226300699468936,23.601105288308336,1.7613150349734468,0.3707252949517434,A,1163,Incorrect
2,relearn,57,552,B,67.70668928211205,44.13241530860596,3.3853344641056027,0.693230358593451,B,1625,Incorrect
2,relearn,57,553,B,41.56755934212305,24.284893242560543,2.078377967106152,0.38146621102020306,B,767,Incorrect
2,relearn,57,554,A,31.224491161061017,63.03998523917065,1.561224558053051,0.9902297725489374,A,1368,Correct
2,relearn,57,555,A,66.06200928788884,86.46119211940733,3.3031004643944417,1.3581292299147287,A,3217,Correct
2,relearn,57,556,B,41.15651340822776,24.534710071606284,2.057825670411388,0.385390324594569,A,1141,Incorrect
2,relearn,57,557,B,56.13825895342387,30.766309807924657,2.8069129476711936,0.48327606435321857,B,609,Correct
2,relearn,57,558,B,67.63755935446117,44.59288418010658,3.381877967723059,0.7004633867130167,107,421,Incorrect
2,relearn,57,559,A,28.88521830327679,42.07946352524744,1.4442609151638397,0.6609826673895851,A,581,Correct
2,relearn,57,560,B,85.22322840279078,67.48478048382187,4.261161420139539,1.060048452985473,B,958,Correct
2,relearn,57,561,A,48.93749691552435,65.40444415425154,2.4468748457762173,1.0273706063356025,A,1004,Incorrect
2,relearn,57,562,B,69.55763663235967,55.31528323783935,3.477881831617984,0.8688904372561737,B,533,Incorrect
2,relearn,57,563,A,23.126819582630464,34.5356569917634,1.1563409791315231,0.5424848314611045,A,538,Incorrect
2,relearn,57,564,B,52.699889880307076,27.0417963981087,2.634994494015354,0.4247715445208461,B,560,Correct
2,relearn,57,565,B,40.54222055977223,17.9532076961793,2.0271110279886115,0.28200832703344314,B,778,Correct
2,relearn,57,566,B,66.98474581327406,33.79870059488696,3.349237290663703,0.5309087474488893,B,870,Correct
2,relearn,57,567,B,77.31180141624986,53.18244500686756,3.8655900708124933,0.8353878926675915,B,674,Correct
2,relearn,57,568,A,37.225048114957985,54.48126834354934,1.8612524057478992,0.8557897619317438,A,1361,Correct
2,relearn,57,569,A,34.503299632784156,43.35221231640341,1.7251649816392076,0.6809749586503896,A,841,Correct
2,relearn,57,570,B,42.37751871370635,30.807023808717382,2.1188759356853177,0.4839155983821618,A,613,Correct
2,relearn,57,571,B,79.27845574801086,53.10140541211791,3.9639227874005427,0.8341149256900147,B,863,Correct
2,relearn,57,572,A,21.720192584876685,49.1920605752594,1.0860096292438342,0.772707080590895,A,1026,Incorrect
2,relearn,57,573,B,73.65094876430862,46.30566729379135,3.682547438215431,0.7273677209487402,B,584,Correct
2,relearn,57,574,B,31.738738010626896,10.944730610549215,1.5869369005313447,0.1719194264081037,A,1168,Incorrect
2,relearn,57,575,A,48.02273002252318,76.08426383091987,2.401136501126159,1.1951288215250275,B,413,Correct
2,relearn,57,576,A,54.24845832383775,68.82085963642851,2.712422916191888,1.0810355352376906,B,827,Correct
2,relearn,57,577,B,58.12113553250453,29.72247593028103,2.9060567766252268,0.46687956014535165,B,1169,Correct
2,relearn,57,578,B,73.41570766555331,60.831618630999685,3.670785383277666,0.955540830985623,B,648,Correct
2,relearn,57,579,B,72.465941295823,40.13339618441059,3.6232970647911498,0.6304139130827647,B,778,Incorrect
2,relearn,57,580,A,54.76459104937126,71.7547373867328,2.738229552468563,1.1271207791721232,B,717,Incorrect
2,relearn,57,581,A,60.18291416454895,84.68659309843898,3.0091457082274475,1.3302538936780197,B,1081,Incorrect
2,relearn,57,582,B,60.391716111832054,46.411988178426874,3.019585805591603,0.729037805499211,B,582,Incorrect
2,relearn,57,583,A,34.71405550937334,53.81841997306945,1.735702775468667,0.845377764076026,A,805,Incorrect
2,relearn,57,584,A,36.64410560271792,53.531982796221946,1.8322052801358961,0.8408784194235304,B,1311,Correct
2,relearn,57,585,B,71.47049185713497,53.07430329920291,3.5735245928567485,0.833689206695862,B,725,Incorrect
2,relearn,57,586,A,48.22157883843059,56.09653180318383,2.4110789419215295,0.8811622610237424,B,630,Incorrect
2,relearn,57,587,A,26.756492539820467,48.948203532955944,1.3378246269910232,0.7688765831277617,B,552,Correct
2,relearn,57,588,B,76.30086875435632,47.79009634056894,3.815043437717816,0.7506850778893991,B,1005,Correct
2,relearn,57,589,A,30.67622940960638,61.13297831339077,1.533811470480319,0.960274577807063,B,2011,Incorrect
2,relearn,57,590,B,51.842585078302186,34.76740329972771,2.5921292539151093,0.5461250939540906,B,668,Incorrect
2,relearn,57,591,A,20.357805627510732,50.28885929321143,1.0178902813755366,0.789935554564819,A,636,Correct
2,relearn,57,592,B,56.752672674513455,46.38084582057742,2.8376336337256727,0.7285486224860344,B,491,Incorrect
2,relearn,57,593,A,41.16035632845573,52.78913245998695,2.0580178164227863,0.8292097536283676,B,976,Correct
2,relearn,57,594,A,45.60432821645517,75.07955009123778,2.2802164108227587,1.1793468150072974,A,1160,Correct
2,relearn,57,595,A,67.54179345755439,86.46190284054035,3.3770896728777196,1.3581403938961802,A,1136,Correct
2,relearn,57,596,B,32.101787614117356,14.795990433890413,1.605089380705868,0.23241487424847487,B,1280,Correct
2,relearn,57,597,B,78.17748690621953,62.798945325405356,3.9088743453109767,0.9864435264374026,A,2051,Incorrect
2,relearn,57,598,A,37.4819476949749,66.06503493321281,1.874097384748745,1.037747142026672,A,1310,Correct
2,relearn,57,599,B,81.60164995033888,54.23641163865075,4.080082497516944,0.8519435618052857,B,1214,Correct
2,relearn,57,600,A,32.552206593873535,41.83723212450357,1.6276103296936768,0.6571777054443567,A,1352,Correct
2,relearn,57,601,A,37.453668791671774,61.3336926706023,1.8726834395835885,0.9634273915574917,A,6398,Correct
2,relearn,57,602,A,57.387192449397546,81.68694646644069,2.8693596224698776,1.283135554565764,B,1306,Incorrect
2,relearn,57,603,A,44.2924814232343,72.25572520015342,2.214624071161715,1.1349902773430245,A,471,Correct
2,relearn,57,604,A,21.404371471770485,39.57103188855615,1.0702185735885243,0.6215803153802771,A,1072,Correct
2,relearn,57,605,B,54.37004554517387,43.88216643047635,2.7185022772586938,0.6892994584079457,A,748,Incorrect
2,relearn,57,606,B,74.89701661848959,54.31432062312882,3.7448508309244795,0.8531673532717104,B,585,Correct
2,relearn,57,607,A,46.28452007864732,64.72861151618964,2.314226003932366,1.0167546520816453,A,640,Correct
2,relearn,57,608,B,38.317391626403065,28.499211245191283,1.9158695813201532,0.4476645634049827,B,848,Correct
2,relearn,57,609,B,41.19136356166994,17.272189126803546,2.059568178083497,0.2713109123608976,B,700,Correct
2,relearn,57,610,A,32.31125650160465,60.64490783011553,1.6155628250802325,0.9526079845836053,A,628,Correct
2,relearn,57,611,A,42.09756692501615,62.71032242182108,2.104878346250808,0.9850514411232021,A,417,Correct
2,relearn,57,612,A,19.54127609708476,50.72651044296161,0.977063804854238,0.7968101627492706,A,726,Correct
2,relearn,57,613,A,52.1651278394035,63.329682883627996,2.608256391970175,0.9947803325068848,A,637,Correct
2,relearn,57,614,B,61.59262333146575,40.28389292449305,3.0796311665732876,0.6327779103479261,A,445,Incorrect
2,relearn,57,615,B,57.53945579649833,47.77685194877451,2.8769727898249164,0.7504770354695858,A,522,Incorrect
2,relearn,57,616,B,53.6713362466789,32.80483236934734,2.683566812333945,0.5152971018689312,B,827,Correct
2,relearn,57,617,B,77.88013827841566,60.166576578574876,3.8940069139207827,0.9450943748544927,B,2606,Correct
2,relearn,57,618,A,15.254019687031253,39.603681007008035,0.7627009843515625,0.6220931665336503,A,2194,Correct
2,relearn,57,619,B,79.62502419580821,55.557039236043984,3.9812512097904107,0.8726879315957784,B,684,Correct
2,relearn,57,620,B,32.5088841557627,14.150421518525356,1.625444207788135,0.22227430143899096,B,1310,Correct
2,relearn,57,621,A,44.97698684403327,62.28181647938487,2.2488493422016633,0.9783204855193162,A,1310,Correct
2,relearn,57,622,A,47.941746912744534,79.46260535207364,2.3970873456372264,1.2481956860458978,B,1220,Incorrect
2,relearn,57,623,A,63.41399932672495,85.69368673696555,3.1706999663362474,1.3460732835593803,A,1192,Correct
2,relearn,57,624,B,68.2480461064217,46.678906994375566,3.412402305321085,0.7332305564556574,B,1846,Correct
2,relearn,57,625,A,64.21983868874996,79.98926964626126,3.210991934437498,1.256468509433537,A,886,Correct
2,relearn,57,626,A,28.741352097894605,43.10937187149355,1.4370676048947302,0.677160429861773,A,1312,Correct
2,relearn,57,627,A,19.96013773720966,33.4805113967376,0.998006886860483,0.5259106432121009,A,911,Correct
2,relearn,57,628,A,66.49170818732281,87.31591865593803,3.324585409366141,1.3715552429546944,B,1088,Incorrect
2,relearn,57,629,B,49.6702781566024,42.97168969666034,2.48351390783012,0.6749977233168416,A,929,Incorrect
2,relearn,57,630,B,68.27936043978046,49.5671236400394,3.413968021989023,0.7785985574356237,A,1103,Incorrect
2,relearn,57,631,B,70.59017544207235,52.56965152452892,3.5295087721036174,0.8257621551561777,B,2045,Correct
2,relearn,57,632,A,57.308337967033395,78.74588450669299,2.8654168983516697,1.236937461333285,B,1550,Incorrect
2,relearn,57,633,A,23.574976160415947,37.583216613855896,1.1787488080207973,0.5903557860618178,A,754,Correct
2,relearn,57,634,A,34.31341558236326,54.98048522376539,1.7156707791181631,0.8636314423489175,B,933,Incorrect
2,relearn,57,635,B,64.60298855465524,38.44951308146209,3.2301494277327616,0.6039635391541297,A,451,Incorrect
2,relearn,57,636,B,48.3113485239288,25.609674939390835,2.41556742619644,0.4022758332520644,A,1292,Incorrect
2,relearn,57,637,A,25.54095495402638,55.7385267727784,1.277047747701319,0.8755387311563931,A,939,Correct
2,relearn,57,638,B,38.866021006675396,22.31191920767741,1.9433010503337698,0.3504748073516417,B,704,Correct
2,relearn,57,639,A,39.89981329022529,50.97915177403669,1.9949906645112645,0.8007786434977635,A,728,Correct
2,relearn,57,640,B,37.075373870486445,18.216848462134234,1.853768693524322,0.28614958650099714,B,1259,Correct
2,relearn,57,641,B,61.183918949222864,48.60087909127757,3.059195947461143,0.7634208235558171,A,2806,Incorrect
2,relearn,57,642,A,27.535818739167098,39.240549688870665,1.3767909369583549,0.6163891131269066,B,688,Incorrect
2,relearn,57,643,A,38.28431496258344,58.77681807538795,1.914215748129172,0.9232640993351128,A,880,Correct
2,relearn,57,644,B,77.56558351184411,50.02303164844887,3.8782791755922057,0.7857599436852833,A,534,Incorrect
2,relearn,57,645,A,34.542195361683326,49.62652335403548,1.7271097680841663,0.7795316059612007,A,700,Correct
2,relearn,57,646,A,48.605058329631696,60.749714730145,2.4302529164815847,0.9542542875194958,B,1071,Incorrect
2,relearn,57,647,A,50.6911803133835,74.16720635895321,2.5345590156691746,1.165015753172828,A,1025,Correct
2,relearn,57,648,B,65.54225028129177,46.416619539587536,3.277112514064589,0.7291105547502033,A,1190,Incorrect
2,relearn,57,649,A,23.969319018671335,53.08799048822753,1.198465950933567,0.8339042045583022,A,784,Correct
2,relearn,57,650,B,41.13583845156431,23.108650509387104,2.0567919225782156,0.3629898333733227,A,1038,Incorrect
2,relearn,57,651,A,59.88067539400349,85.35131608865464,2.9940337697001747,1.3406953379916888,B,2041,Incorrect
2,relearn,57,652,A,24.856351547414818,52.53541376384473,1.2428175773707408,0.8252243496689734,A,1137,Correct
2,relearn,57,653,A,58.94453001508798,71.44435921193843,2.947226500754399,1.1222453702032802,B,596,Incorrect
2,relearn,57,654,B,61.54545323737124,44.09797213360861,3.077272661868562,0.6926893264657611,B,628,Correct
2,relearn,57,655,B,72.73247164219313,63.047390784538564,3.636623582109656,0.9903460985835559,B,1747,Correct
2,relearn,57,656,A,31.21853632807148,60.58674423648411,1.560926816403574,0.9516943529913111,A,727,Correct
2,relearn,57,657,A,47.874993401793475,62.47995797894263,2.3937496700896737,0.9814328849162257,B,1022,Incorrect
2,relearn,57,658,A,68.02231767233846,83.25582155765161,3.4011158836169226,1.3077793868705052,B,1018,Incorrect
2,relearn,57,659,B,71.21019746805653,54.05969823743726,3.560509873402827,0.84916775419007,B,1323,Correct
2,relearn,57,660,A,52.14276352923952,68.08661723213558,2.6071381764619757,1.0695020825212869,A,1018,Correct
2,relearn,57,661,A,22.214436143311904,44.09088668942371,1.110721807165595,0.6925780285687677,A,751,Correct
2,relearn,57,662,A,39.01990976773698,62.858306379570394,1.950995488386849,0.9873759676957738,A,886,Correct
2,relearn,57,663,A,50.585585969402786,67.83686931559079,2.529279298470139,1.0655790514219543,A,1052,Correct
2,relearn,57,664,A,69.12395110780035,86.22000264757995,3.4561975553900175,1.3543406345506483,B,3009,Incorrect
2,relearn,57,665,A,46.13300498231267,56.51630017693691,2.3066502491156338,0.8877559672197026,A,867,Correct
2,relearn,57,666,A,35.32759898446345,56.19387677108734,1.7663799492231727,0.8826913522038906,A,671,Correct
2,relearn,57,667,B,66.93209618823161,53.85683113859691,3.346604809411581,0.8459811252532105,B,1065,Correct
2,relearn,57,668,A,31.160141265214435,61.93958278745237,1.5580070632607217,0.9729446912573858,A,1147,Correct
2,relearn,57,669,B,69.5012100903602,52.524463029354635,3.47506050451801,0.8250523359338461,B,1083,Correct
2,relearn,57,670,B,77.29760294476006,55.282660916861076,3.864880147238003,0.8683780070365318,B,2250,Correct
2,relearn,57,671,A,32.31531206957287,54.431120334898836,1.6157656034786436,0.8550020388539009,A,695,Correct
2,relearn,57,672,A,34.04713348259227,61.58279600533849,1.7023566741296137,0.9673402975894512,A,513,Correct
2,relearn,57,673,A,31.579567546195328,59.735127102897785,1.5789783773097665,0.9383171823385812,A,665,Correct
2,relearn,57,674,B,40.4766127424862,14.354844880908793,2.02383063712431,0.22548537610642058,B,2255,Correct
2,relearn,57,675,A,56.19659675081677,74.51017695085754,2.809829837540838,1.1704031226324478,B,2928,Incorrect
2,relearn,57,676,A,49.185034302279725,66.41028166993432,2.4592517151139863,1.0431702650854728,A,890,Correct
2,relearn,57,677,B,56.383599819981825,38.01559291252006,2.8191799909990913,0.5971475370791661,B,1638,Correct
2,relearn,57,678,A,54.310755356670704,79.10653719849086,2.715537767833535,1.242602580568533,A,955,Correct
2,relearn,57,679,A,48.15985056016424,73.43423984482244,2.407992528008212,1.1535023420922252,A,948,Correct
2,relearn,57,680,A,65.81840840386094,89.27593536356866,3.290920420193047,1.4023431134027227,B,1053,Incorrect
2,relearn,57,681,B,82.39532707041691,62.45226880655882,4.119766353520846,0.980997944413501,A,756,Incorrect
2,relearn,57,682,A,53.341185858380065,61.75208831641404,2.667059292919003,0.9699995349933721,A,1159,Correct
2,relearn,57,683,A,25.68449307015821,51.78139329622044,1.2842246535079107,0.8133802238602494,A,642,Correct
2,relearn,57,684,A,33.980211964655766,49.440599274308234,1.6990105982327883,0.776611117346218,A,735,Correct
2,relearn,57,685,A,45.400105414350776,67.00410916318052,2.270005270717539,1.0524980855368822,A,668,Correct
2,relearn,57,686,A,41.47253819808078,56.687875749207564,2.0736269099040388,0.8904510700066074,A,788,Correct
2,relearn,57,687,B,61.379205091346996,50.1235217675277,3.06896025456735,0.7873384387845654,B,726,Correct
2,relearn,57,688,A,47.07786097177094,57.280402219552954,2.353893048588547,0.8997584540380801,A,1289,Correct
2,relearn,57,689,A,35.15515204719515,52.64353214145536,1.7577576023597574,0.8269226691730716,A,846,Correct
2,relearn,57,690,B,42.439777000853226,23.525448020986662,2.121988850042661,0.3695368733757011,A,984,Incorrect
2,relearn,57,691,A,33.92327624325956,59.473931676743135,1.6961638121629778,0.9342143341787876,A,712,Correct
2,relearn,57,692,B,69.10292017061852,55.243856289708795,3.455146008530926,0.8677684653785972,B,1302,Correct
2,relearn,57,693,B,48.17039159587567,35.53383103855889,2.4085195797937837,0.5581641127231879,A,589,Incorrect
2,relearn,57,694,A,55.57094490201369,68.51097232414635,2.7785472451006847,1.0761678367191592,A,5802,Correct
2,relearn,57,695,B,73.38655190707311,47.996203824864615,3.6693275953536557,0.753922606681965,B,1020,Correct
2,relearn,57,696,B,56.43655220560293,49.60052314071052,2.8218276102801463,0.7791231955653335,A,637,Incorrect
2,relearn,57,697,B,65.2037293304239,32.41640164264292,3.260186466521195,0.5091956462817154,A,1458,Incorrect
2,relearn,57,698,A,11.386168942758395,34.01962582529214,0.5693084471379197,0.5343790328530569,A,711,Correct
2,relearn,57,699,B,43.88944978416684,18.43091779067009,2.1944724892083425,0.28951217965043285,A,708,Incorrect
2,relearn,57,700,B,57.36641657772503,41.57202981581955,2.868320828886252,0.6530119173209726,B,2359,Correct
2,relearn,57,701,B,44.302180452878574,32.26278241615711,2.215109022643929,0.5067826011148255,B,1991,Correct
2,relearn,57,702,B,64.83489517531486,38.77441038332343,3.2417447587657424,0.6090670140376233,B,1451,Correct
2,relearn,57,703,B,52.52984302443269,31.504114175555408,2.626492151221634,0.4948654682588947,B,890,Correct
2,relearn,57,704,A,49.41290154311677,59.250386961221395,2.4706450771558384,0.930702901998628,B,580,Incorrect
2,relearn,57,705,B,68.07956088443017,53.0532049075784,3.4039780442215086,0.8333577939352114,B,992,Correct
2,relearn,57,706,B,80.03635610332789,66.8523117187811,4.001817805166394,1.0501136568560876,107,1164,Correct
2,relearn,57,707,A,26.226878411696852,48.31692023853152,1.3113439205848425,0.7589604083272732,A,953,Correct
2,relearn,57,708,B,60.693448895966824,50.086390918065796,3.034672444798341,0.7867551887651102,A,1414,Incorrect
2,relearn,57,709,B,76.41606023550894,55.35590268468296,3.820803011775447,0.8695284860351574,B,981,Correct
2,relearn,57,710,B,69.8043083632636,39.42925909663837,3.49021541816318,0.619353353572438,B,375,Correct
2,relearn,57,711,B,50.276376221144254,40.841634225364956,2.5138188110572126,0.6415388902150401,A,1114,Incorrect
2,relearn,57,712,B,71.96160516237727,55.7289917155481,3.5980802581188636,0.8753889548276618,B,486,Correct
2,relearn,57,713,A,64.29324980687124,76.75719836283432,3.2146624903435623,1.205699252434074,B,367,Incorrect
2,relearn,57,714,A,37.381476305487006,54.5973675442588,1.8690738152743505,0.8576134439119263,A,686,Correct
2,relearn,57,715,B,73.60105132771433,45.5259808789732,3.680052566385717,0.7151204353842581,B,701,Correct
2,relearn,57,716,B,55.06030445872198,48.187874042824035,2.753015222936099,0.7569333554252313,B,1391,Correct
2,relearn,57,717,A,14.819442562871401,40.81218125354482,0.74097212814357,0.6410762440155574,A,608,Correct
2,relearn,57,718,B,70.90687180251778,48.87790662579927,3.5453435901258894,0.7677723618922941,B,411,Correct
2,relearn,57,719,B,54.807907639495156,44.95237627719674,2.740395381974758,0.7061102753692269,B,1026,Correct
2,relearn,57,720,A,39.926409221111015,66.27618263103749,1.9963204610555507,1.0410638423082141,A,900,Correct
2,relearn,57,721,A,47.532516801609944,77.32961632124028,2.3766258400804974,1.2146907726986291,B,3649,Incorrect
2,relearn,57,722,A,38.17459787448589,63.690000263198655,1.9087298937242947,1.0004401846699844,A,2748,Correct
2,relearn,57,723,B,66.79023946170884,55.235291186803686,3.339511973085442,0.8676339250567774,A,461,Incorrect
2,relearn,57,724,B,59.75060256532209,36.02552763929332,2.987530128266105,0.5658876648664997,B,861,Correct
2,relearn,57,725,A,36.90528052462548,59.83025845173929,1.845264026231274,0.9398115020718139,A,1172,Correct
2,relearn,57,726,A,54.93689638495891,79.54794153364298,2.7468448192479453,1.249536143651416,B,2860,Incorrect
2,relearn,57,727,B,45.41154210384552,35.8087968330041,2.270577105192276,0.5624832653222757,A,1415,Incorrect
2,relearn,57,728,B,79.30428573753888,60.838923816808006,3.9652142868769436,0.9556555805759656,B,2534,Correct
2,relearn,57,729,B,61.408784771104955,49.41888814159585,3.070439238555248,0.7762700796710664,B,1358,Correct
2,relearn,57,730,B,57.79810301121466,25.36080098797428,2.8899051505607325,0.39836653036486386,B,909,Correct
2,relearn,57,731,A,35.190235983196025,57.3623831920755,1.7595117991598013,0.901046208143135,A,504,Correct
2,relearn,57,732,B,69.49268808145762,55.033770411591185,3.474634404072881,0.8644684441220108,B,408,Correct
2,relearn,57,733,B,62.445611369148146,40.18136706358189,3.1222805684574073,0.6311674378907188,B,341,Correct
2,relearn,57,734,B,82.58505613128222,68.55745963790444,4.129252806564111,1.0768980577360967,B,1363,Correct
2,relearn,57,735,B,62.770525815954244,33.60398889300727,3.138526290797712,0.5278502231879232,B,864,Correct
2,relearn,57,736,A,26.757017670848693,49.41389976284188,1.3378508835424348,0.7761917224008325,A,545,Correct
2,relearn,57,737,A,26.513695184198404,48.16285548031007,1.3256847592099203,0.756540364764245,A,543,Correct
2,relearn,57,738,A,64.63200732818025,83.34045641535502,3.2316003664090123,1.3091088281064982,B,1668,Incorrect
2,relearn,57,739,A,37.47981234683286,62.05870900700034,1.873990617341643,0.9748159215382949,A,1156,Correct
2,relearn,57,740,B,63.25036916887795,47.75431031041759,3.162518458443898,0.750122952242276,B,1644,Correct
2,relearn,57,741,B,50.26374158511479,24.22200719268803,2.5131870792557396,0.38047839925873916,B,575,Correct
2,relearn,57,742,B,44.864498265694635,35.12844640650445,2.243224913284732,0.5517963458134858,A,581,Incorrect
2,relearn,57,743,B,53.98397482657273,32.991954023292585,2.6991987413286362,0.518236401935741,B,627,Correct
2,relearn,57,744,A,46.10280494957262,70.95310351227884,2.305140247478631,1.1145287437178568,A,794,Correct
2,relearn,57,745,B,36.84271563055367,22.420754842569774,1.8421357815276835,0.35218439350677494,A,1158,Incorrect
2,relearn,57,746,A,13.966663687910046,32.77774864684443,0.6983331843955023,0.5148716717506961,A,685,Correct
2,relearn,57,747,B,77.73679449721539,63.31322178106979,3.8868397248607693,0.9945217621125506,B,856,Correct
2,relearn,57,748,A,39.25906508192262,51.560637355736446,1.962953254096131,0.8099125976559454,A,1143,Correct
2,relearn,57,749,A,53.96553238682708,76.26490540357375,2.698276619341354,1.1979663327129393,A,585,Correct
2,relearn,57,750,A,36.52130065604859,61.31651442624038,1.8260650328024295,0.9631575563260467,A,681,Correct
2,relearn,57,751,A,36.79909636231661,45.27916187068928,1.8399548181158307,0.7112434114683025,A,1363,Correct
2,relearn,57,752,B,52.87298561932225,35.0952494516607,2.6436492809661125,0.5512748892661924,B,890,Correct
2,relearn,57,753,A,27.584695325605765,38.433004014611754,1.3792347662802882,0.6037042153384565,A,573,Correct
2,relearn,57,754,A,32.78834060420171,62.720132886411726,1.6394170302100854,0.9852055435406334,A,829,Correct
2,relearn,57,755,B,59.51511197767136,34.39598866964541,2.975755598883568,0.5402909265875789,B,729,Correct
2,relearn,57,756,A,32.39640994736899,44.64102987073438,1.6198204973684494,0.7012196574529082,A,1624,Correct
2,relearn,57,757,B,46.34775480551984,18.98358921508873,2.317387740275992,0.29819352208444594,B,1090,Correct
2,relearn,57,758,B,69.54659390765836,59.78008375531175,3.477329695382918,0.9390233597833496,A,659,Incorrect
2,relearn,57,759,A,24.69939841744545,35.409264605971245,1.2349699208722726,0.5562074277756817,A,450,Correct
2,relearn,57,760,B,39.336134305549436,16.305734002962712,1.9668067152774718,0.2561298707754847,B,1124,Correct
2,relearn,57,761,A,44.843739960951254,53.93181165905329,2.242186998047563,0.8471589165143508,B,535,Incorrect
2,relearn,57,762,B,78.93851238906491,60.703907772037354,3.9469256194532454,0.9535347535041245,B,598,Correct
2,relearn,57,763,A,42.02435604730579,53.792148105900424,2.1012178023652894,0.8449650865515543,A,583,Correct
2,relearn,57,764,B,40.37066048774436,23.074786230656894,2.018533024387218,0.3624578945269331,A,666,Incorrect
2,relearn,57,765,A,58.46554757006212,83.23322583931616,2.923277378503106,1.307424454156879,A,1894,Correct
2,relearn,57,766,B,32.91783626005789,10.924080527931132,1.6458918130028946,0.17159505566885877,A,951,Incorrect
2,relearn,57,767,A,53.2410792140249,79.7017057282236,2.662053960701245,1.251951465971814,B,762,Incorrect
2,relearn,57,768,A,34.788293467762,54.31814502391338,1.7394146733881002,0.8532274268187562,A,640,Correct
2,relearn,57,769,A,22.428836073083634,45.01403252822094,1.1214418036541816,0.7070787694955544,A,559,Correct
2,relearn,57,770,B,50.24747768323142,40.9224469528128,2.512373884161571,0.6428082935693735,B,514,Correct
2,relearn,57,771,B,87.17755932825038,64.42144319935312,4.358877966412519,1.0119296634436996,B,557,Correct
2,relearn,57,772,A,16.47606627731962,38.22673081128261,0.823803313865981,0.6004640834374,A,463,Correct
2,relearn,57,773,A,32.636532688221195,50.84316957599417,1.6318266344110597,0.7986426401258166,A,551,Correct
2,relearn,57,774,B,49.84788245215494,30.13186454766081,2.492394122607747,0.4733102215094697,B,565,Correct
2,relearn,57,775,A,58.43181618044221,77.30528725514739,2.9215908090221103,1.2143086126220988,B,1015,Incorrect
2,relearn,57,776,A,35.58160061401861,60.2989210483212,1.7790800307009307,0.947173236923984,A,575,Correct
2,relearn,57,777,B,42.46633953117595,33.692000823002786,2.1233169765587974,0.529232711351434,A,623,Incorrect
2,relearn,57,778,B,45.94713389207147,20.84232307955648,2.2973566946035735,0.3273904453523982,B,423,Correct
2,relearn,57,779,A,12.614250738400319,39.075004005455455,0.6307125369200159,0.613788727612653,A,539,Correct
2,relearn,57,780,B,84.52060180349993,57.69663529281985,4.226030090174996,0.9062966278638621,B,409,Correct
2,relearn,57,781,A,48.02243713310261,74.50935792187059,2.4011218566551307,1.1703902573552054,B,1163,Incorrect
2,relearn,57,782,B,58.453181211059245,41.549068147989836,2.922659060552962,0.6526512362861326,B,1057,Correct
2,relearn,57,783,B,46.96566631622166,23.511878711967558,2.3482833158110825,0.3693237271680577,B,850,Correct
2,relearn,57,784,B,52.20024858627431,27.744183831377413,2.6100124293137155,0.4358046205225001,B,888,Correct
2,relearn,57,785,A,52.33342759070079,77.538279829814,2.61667137953504,1.2179684514266664,A,653,Correct
2,relearn,57,786,B,61.91772151283756,34.55371814416966,3.095886075641878,0.5427685353796786,B,531,Correct
2,relearn,57,787,A,28.762593880681933,54.74033423634253,1.4381296940340969,0.8598591594597177,A,609,Correct
2,relearn,57,788,A,48.34923631720021,77.03368750392735,2.4174618158600105,1.2100423337063502,A,617,Correct
2,relearn,57,789,A,57.28044159968721,72.90935855619259,2.8640220799843603,1.1452575260903939,A,2065,Correct
2,relearn,57,790,B,71.18919531013181,61.36656918126508,3.5594597655065905,0.9639438145793608,B,636,Correct
2,relearn,57,791,A,48.45855717212279,58.02850651185954,2.4229278586061396,0.911509648782227,A,437,Correct
2,relearn,57,792,A,35.00705136475194,66.06296540943937,1.7503525682375969,1.0377146340232568,A,539,Correct
2,relearn,57,793,B,52.53006444181777,22.03630757014016,2.626503222090889,0.3461455098729873,B,583,Correct
2,relearn,57,794,A,24.66462887974758,47.15169071304662,1.233231443987379,0.7406570257422266,A,1407,Correct
2,relearn,57,795,B,38.584629852878805,23.218295975511182,1.9292314926439402,0.36471214032769694,B,707,Correct
2,relearn,57,796,B,59.41937712288009,32.08174835378046,2.970968856144004,0.5039389247127657,B,846,Correct
2,relearn,57,797,B,65.76942009210796,38.98865490520484,3.288471004605398,0.6124323591176959,A,1345,Incorrect
2,relearn,57,798,B,63.569147504278114,49.633799512975365,3.1784573752139056,0.7796458995985602,B,773,Correct
2,relearn,57,799,A,34.62233522209464,48.41532573385078,1.7311167611047322,0.7605061582331124,A,834,Correct
2,relearn,57,800,B,84.57394013244532,66.06233843862202,4.228697006622266,1.0377047855886876,B,1255,Correct
2,relearn,57,801,A,45.311661703834254,57.391352047970955,2.2655830851917127,0.9015012498674553,A,2037,Correct
2,relearn,57,802,A,11.867014281331056,37.935277810088294,0.5933507140665527,0.5958859504003065,A,644,Correct
2,relearn,57,803,A,38.954145626711,54.69938646657304,1.94770728133555,0.859215953396274,A,1089,Correct
2,relearn,57,804,A,60.69545260141589,74.72725342693978,3.0347726300707945,1.1738129519450835,A,883,Correct
2,relearn,57,805,A,52.37362590532136,81.72373555026724,2.618681295266068,1.2837134361431728,A,501,Correct
2,relearn,57,806,B,66.12901655502579,47.889344257676356,3.306450827751289,0.752244060525743,B,750,Correct
2,relearn,57,807,B,79.22559066757576,50.154369748336585,3.961279533378788,0.7878229977340019,B,591,Correct
2,relearn,57,808,A,22.521883878271645,48.80571884537768,1.1260941939135822,0.7666384388890373,A,526,Correct
2,relearn,57,809,B,77.69729498079224,55.81578065529505,3.8848647490396115,0.876752232305271,B,535,Correct
2,relearn,57,810,B,57.0555703714348,34.890615368608465,2.8527785185717396,0.5480605046062375,A,430,Incorrect
2,relearn,57,811,A,50.786439611192456,70.97577554649224,2.539321980559623,1.1148848751984906,A,548,Correct
2,relearn,57,812,A,46.065384699315175,65.49515453011679,2.303269234965759,1.0287954815877158,A,619,Correct
2,relearn,57,813,B,71.15241762536374,40.8724342614314,3.557620881268187,0.6420226960502233,A,494,Incorrect
2,relearn,57,814,A,41.61296166002672,52.55289858316706,2.080648083001336,0.8254990005686353,A,626,Correct
2,relearn,57,815,B,36.33385526414584,20.41760749965297,1.8166927632072918,0.3207190286239482,B,605,Correct
2,relearn,57,816,A,50.720371971351085,70.35209784242441,2.536018598567554,1.1050881687319545,A,505,Correct
2,relearn,57,817,B,73.1941730485719,50.02709821852446,3.659708652428595,0.7858238212186573,B,1392,Correct
2,relearn,57,818,B,55.085514626460046,27.368000180680973,2.754275731323002,0.42989554155535736,B,673,Correct
2,relearn,57,819,B,70.18325214987051,42.01498390717878,3.5091626074935256,0.6599698239174312,B,736,Correct
2,relearn,57,820,B,44.18748057023525,35.239062625876116,2.2093740285117627,0.5535339013242153,B,624,Correct
2,relearn,57,821,A,42.85049115842099,73.96340409767801,2.1425245579210497,1.161814434738792,A,582,Correct
2,relearn,57,822,A,57.44049414059582,81.8638232827164,2.872024707029791,1.2859139290987747,A,594,Correct
2,relearn,57,823,A,65.6136891421623,89.8180267710019,3.280684457108115,1.4108582653185546,A,620,Correct
2,relearn,57,824,A,48.5671361662184,70.3710102361815,2.42835680831092,1.1053852439183998,A,438,Correct
2,relearn,57,825,A,27.183474423551438,50.2031505730361,1.359173721177572,0.788589245136562,A,572,Correct
2,relearn,57,826,B,82.30670460185185,64.97401194595696,4.115335230092592,1.0206093930183693,A,465,Incorrect
2,relearn,57,827,A,54.88787370018761,75.96833279589475,2.7443936850093804,1.1933077810852375,A,475,Correct
2,relearn,57,828,B,44.08316599690883,28.864967898448434,2.2041582998454414,0.453409855479354,B,672,Correct
2,relearn,57,829,A,30.244396930276025,60.016636001856156,1.5122198465138013,0.9427391137830199,A,699,Correct
2,relearn,57,830,A,20.199629821413414,34.514408522772044,1.0099814910706706,0.542151061290688,A,933,Correct
2,relearn,57,831,B,80.13165156607509,63.63698636615992,4.006582578303755,0.9996074443226091,B,487,Correct
2,relearn,57,832,B,53.05008530642748,45.34388782681829,2.652504265321374,0.7122601244096599,B,611,Correct
2,relearn,57,833,B,85.52129732129342,59.83250146252258,4.276064866064671,0.9398467352028074,A,611,Incorrect
2,relearn,57,834,A,32.174468296394735,64.70016185982135,1.6087234148197367,1.0163077659244264,A,1328,Correct
2,relearn,57,835,B,41.67820620692895,13.773472507440697,2.0839103103464476,0.21635320021898344,B,981,Correct
2,relearn,57,836,A,32.71237394483643,56.2434815760558,1.6356186972418214,0.8834705426582488,A,684,Correct
2,relearn,57,837,B,64.62191471799117,47.139149222409884,3.2310957358995585,0.7404600244679795,A,472,Incorrect
2,relearn,57,838,B,53.709736563511605,30.344756725908056,2.68548682817558,0.476654324025411,B,1542,Correct
2,relearn,57,839,B,30.600185819082203,11.335807062258905,1.53000929095411,0.17806244094651932,B,1020,Correct
2,relearn,57,840,B,61.723519033611275,53.036585458484176,3.0861759516805636,0.8330967362393057,A,784,Incorrect
2,relearn,57,841,A,14.272024581021576,31.3423954849288,0.7136012290510788,0.49232519700679106,B,523,Incorrect
2,relearn,57,842,B,51.641084267860286,40.78604960491538,2.582054213393014,0.6406657690387552,B,714,Correct
2,relearn,57,843,A,16.331090767089517,44.425287988245195,0.8165545383544759,0.6978307918874099,A,556,Correct
2,relearn,57,844,A,13.009472187556387,39.5171440112685,0.6504736093778193,0.620733846583255,A,343,Correct
2,relearn,57,845,B,51.69792092385323,22.20355071238498,2.584896046192662,0.3487725590081854,B,470,Correct
2,relearn,57,846,B,48.036212919697185,33.84584936592359,2.401810645984859,0.5316493586124615,B,532,Correct
2,relearn,57,847,B,60.35992561428159,31.341129016345644,3.017996280714079,0.4923053033648068,B,1075,Correct
2,relearn,57,848,B,50.31455975546469,27.86348746530475,2.515727987773235,0.4376786376219634,B,409,Correct
2,relearn,57,849,A,30.23812550314505,57.08813756787824,1.5119062751572525,0.8967383679518488,A,564,Correct
2,relearn,57,850,A,54.93433956402243,83.84428789914816,2.7467169782011216,1.317022994547157,A,731,Correct
2,relearn,57,851,B,62.230708707990544,40.70575200061856,3.111535435399527,0.6394044572199564,B,719,Correct
2,relearn,57,852,A,64.6271348123668,80.13122299178335,3.2313567406183403,1.2586983073707605,A,514,Correct
2,relearn,57,853,A,27.99233635346428,52.123809117041716,1.399616817673214,0.8187588789960747,B,409,Incorrect
2,relearn,57,854,B,41.67300847634916,29.249353237002403,2.083650423817458,0.45944776625809797,A,517,Incorrect
2,relearn,57,855,B,77.32220251292989,47.8528456403306,3.8661101256464945,0.7516707415851449,B,451,Correct
2,relearn,57,856,A,35.642983801801435,57.68552338108526,1.7821491900900719,0.9061220823624987,A,507,Correct
2,relearn,57,857,B,65.26245792615359,54.04089224897993,3.2631228963076797,0.8488723504141646,A,692,Incorrect
2,relearn,57,858,A,60.59617612554425,70.77548778428074,3.0298088062772126,1.1117387623866526,A,605,Correct
2,relearn,57,859,B,61.48748162911918,49.36029015995604,3.074374081455959,0.775349624727892,B,523,Correct
2,relearn,57,860,B,30.525615097333606,12.90677333983141,1.5262807548666801,0.2027391215298148,A,334,Incorrect
2,relearn,57,861,A,37.26552373691798,51.159157194089396,1.8632761868458987,0.8036061620239833,A,566,Correct
2,relearn,57,862,B,77.28691887297384,51.91647828408136,3.864345943648692,0.81550213388762,A,532,Incorrect
2,relearn,57,863,A,33.0207120415595,42.00390148507708,1.651035602077975,0.6597957416381377,A,490,Correct
2,relearn,57,864,A,20.05429740004034,47.32219582295928,1.002714870002017,0.7433353137457324,A,558,Correct
2,relearn,57,865,B,82.89474344738767,54.73456675481952,4.144737172369384,0.8597685640718057,A,1166,Incorrect
2,relearn,57,866,B,66.70810818136268,55.584231956703846,3.3354054090681338,0.8731150738530591,B,525,Correct
2,relearn,57,867,B,76.72749056755596,56.63377541626283,3.8363745283777977,0.8896012639639276,A,535,Incorrect
2,relearn,57,868,A,63.21424450659883,79.77296594050941,3.1607122253299416,1.2530708187688657,B,710,Incorrect
2,relearn,57,869,A,31.883248757894684,52.2330472157945,1.594162437894734,0.8204747870387441,A,486,Correct
2,relearn,57,870,A,39.594576807245836,55.23130454261905,1.9797288403622917,0.8675713029963629,A,600,Correct
2,relearn,57,871,A,12.12473056123348,36.79717185576433,0.6062365280616739,0.5780086238747516,A,693,Correct
2,relearn,57,872,B,77.87604045882361,47.7036254531172,3.89380202294118,0.7493267963655602,B,651,Correct
2,relearn,57,873,A,28.483112564412156,43.71386648390468,1.4241556282206078,0.6866558090292001,A,479,Correct
2,relearn,57,874,A,46.91268647324921,59.96465333055828,2.3456343236624604,0.941922571891703,A,484,Correct
2,relearn,57,875,A,44.0029607737556,68.88713422373792,2.20014803868778,1.0820765740207454,A,559,Correct
2,relearn,57,876,B,57.978234162118746,36.21931080176848,2.8989117081059375,0.5689316036646066,A,663,Incorrect
2,relearn,57,877,B,63.843754778015054,42.71808587484101,3.1921877389007527,0.6710141237990921,A,494,Incorrect
2,relearn,57,878,A,57.5906159772003,68.68039146643972,2.879530798860015,1.0788290663831905,A,459,Correct
2,relearn,57,879,B,45.9470158369506,31.01028973369862,2.2973507918475295,0.4871084920653928,B,514,Correct
2,relearn,57,880,A,61.10875401829948,81.20072909925457,3.0554377009149736,1.2754980700217655,A,456,Correct
2,relearn,57,881,A,59.12902114105843,85.40516879506077,2.956451057052922,1.3415412543257959,A,489,Correct
2,relearn,57,882,B,34.06207259142232,13.610020277179359,1.7031036295711162,0.21378569858997395,B,426,Correct
2,relearn,57,883,A,16.579726399938984,42.36178336944498,0.8289863199969492,0.6654173371320531,A,461,Correct
2,relearn,57,884,B,69.59546667170723,52.74627435620734,3.479773333585362,0.8285365401084632,A,426,Incorrect
2,relearn,57,885,B,63.57417069176138,54.92940663918054,3.178708534588069,0.8628291018184802,A,416,Incorrect
2,relearn,57,886,B,61.91481900765183,48.51450733657617,3.0957409503825914,0.7620640992055792,B,335,Correct
2,relearn,57,887,A,65.27436123637082,86.91152162567575,3.2637180618185413,1.3652029892576667,A,675,Correct
2,relearn,57,888,A,24.36144198758594,35.671422579748565,1.218072099379297,0.5603253955981758,A,561,Correct
2,relearn,57,889,B,73.17440879305903,49.52661675083175,3.658720439652951,0.777962276707851,B,698,Correct
2,relearn,57,890,A,66.45366101525397,83.55839597974227,3.322683050762698,1.312532214778526,A,548,Correct
2,relearn,57,891,B,55.363675924310094,36.47037234665634,2.7681837962155047,0.5728752691896994,B,1122,Correct
2,relearn,57,892,A,43.01969333574756,56.67502976678657,2.150984666787378,0.8902492857865977,A,436,Correct
2,relearn,57,893,B,33.59430256676384,10.56418722869325,1.679715128338192,0.16594186494404917,A,659,Incorrect
2,relearn,57,894,A,46.62672236111574,67.33001955508432,2.331336118055787,1.05761747400155,A,672,Correct
2,relearn,57,895,A,62.79736717084107,83.25589988740813,3.1398683585420537,1.3077806172714435,A,725,Correct
2,relearn,57,896,B,64.66362818294397,48.19779691255998,3.2331814091471984,0.7570892234985561,A,642,Incorrect
2,relearn,57,897,B,67.10554017576072,35.351166588611,3.355277008788036,0.5552948262530464,B,748,Correct
2,relearn,57,898,B,79.39647181171667,60.12822533934877,3.969823590585833,0.9444919549974486,B,638,Correct
