experiment,condition,subject,trial,cat,x,y,xt,yt,resp,rt,fb
2,relearn,73,0,A,15.15654129532276,34.251913969387545,0.7578270647661381,0.5380278064880876,A,1357,Correct
2,relearn,73,1,A,50.79426125144926,81.28532678733833,2.5397130625724627,1.2768269273987387,A,864,Correct
2,relearn,73,2,B,48.957255279091335,19.52022115137911,2.4478627639545665,0.30662291682810355,A,876,Incorrect
2,relearn,73,3,A,31.669267604018344,58.480952437046504,1.583463380200917,0.918616652755797,A,1961,Correct
2,relearn,73,4,B,41.45602759232233,25.326474449143785,2.0728013796161164,0.3978273303537986,B,631,Correct
2,relearn,73,5,B,46.25500873170727,35.2442837108649,2.3127504365853637,0.5536159139354379,B,847,Correct
2,relearn,73,6,A,68.63941884270275,88.24462846238814,3.4319709421351376,1.3861433824809966,B,694,Incorrect
2,relearn,73,7,A,45.167740715678825,77.27497345035236,2.2583870357839415,1.2138324444898665,B,1992,Incorrect
2,relearn,73,8,A,56.16796454723341,63.761335818048614,2.8083982273616703,1.0015607209452664,B,939,Incorrect
2,relearn,73,9,B,46.84605479184087,38.53347828496472,2.3423027395920433,0.605282461486535,A,1278,Incorrect
2,relearn,73,10,B,36.5653385610196,21.634322724417764,1.82826692805098,0.33983114668210784,A,2001,Incorrect
2,relearn,73,11,B,80.59520119846323,60.51061339624965,4.029760059923161,0.9504984925493501,B,1168,Correct
2,relearn,73,12,A,48.143672067334535,79.79311994969045,2.4071836033667267,1.2533873972047835,B,2438,Incorrect
2,relearn,73,13,B,66.3626692741477,52.25558005569582,3.3181334637073854,0.8208287320602367,A,1268,Incorrect
2,relearn,73,14,B,51.49031066501592,43.45583399542331,2.574515533250796,0.6826026441781973,A,2836,Incorrect
2,relearn,73,15,A,34.04529831712139,42.08170632557095,1.7022649158560696,0.6610178972146842,A,2586,Correct
2,relearn,73,16,A,40.195847263409924,51.79416608230152,2.009792363170496,0.8135808583148405,A,1407,Correct
2,relearn,73,17,A,26.651309315131293,52.66837957614476,1.3325654657565646,0.8273129717644753,A,1604,Correct
2,relearn,73,18,A,61.43261461676735,71.14983994967407,3.0716307308383675,1.117619072449928,A,1750,Correct
2,relearn,73,19,A,43.3890455214019,67.3342577153633,2.169452276070095,1.057684046867536,A,1597,Correct
2,relearn,73,20,B,77.30743209378019,57.82620134493325,3.86537160468901,0.9083318466512326,A,1174,Incorrect
2,relearn,73,21,B,48.99217423877734,35.25029160057099,2.449608711938867,0.553710285646259,B,1318,Correct
2,relearn,73,22,B,62.70508209333427,51.32965169681179,3.1352541046667137,0.8062842834101337,B,1573,Correct
2,relearn,73,23,A,51.426750834758664,77.92195451283273,2.571337541737933,1.2239951992543667,A,841,Correct
2,relearn,73,24,B,43.22431106070867,21.29954366748304,2.1612155530354333,0.33457244955289855,B,637,Correct
2,relearn,73,25,A,22.233333576384656,46.270528151422454,1.1116666788192326,0.7268157565911423,A,772,Correct
2,relearn,73,26,A,44.84226697606293,55.33378911081822,2.2421133488031466,0.8691811268291669,A,1014,Correct
2,relearn,73,27,B,74.54345374492412,45.596766249030715,3.727172687246206,0.7162323293770296,B,1017,Correct
2,relearn,73,28,A,49.93111161094752,66.43551501109715,2.496555580547376,1.0435666294815862,A,481,Correct
2,relearn,73,29,B,63.31668393045059,41.543052701880036,3.165834196522529,0.6525567458795997,B,886,Correct
2,relearn,73,30,A,55.6836544586329,73.0647910958785,2.7841827229316447,1.1476990547144241,A,481,Correct
2,relearn,73,31,B,79.51729088780687,56.44407279080167,3.9758645443903435,0.8866214220913504,B,521,Correct
2,relearn,73,32,A,49.87759261543409,79.10891071330744,2.4938796307717044,1.2426398636520877,A,670,Correct
2,relearn,73,33,B,53.45137008292984,21.56287996727509,2.6725685041464917,0.33870892647714973,B,603,Correct
2,relearn,73,34,B,58.79773812390007,35.58038499382654,2.9398869061950035,0.5588953805425099,107,354,Incorrect
2,relearn,73,35,B,54.167108603445726,41.07284155850458,2.7083554301722863,0.6451706865112776,B,1155,Correct
2,relearn,73,36,B,46.97157611835455,37.38689450304263,2.3485788059177275,0.5872719655564768,B,871,Correct
2,relearn,73,37,A,33.99610029709266,45.52005446084532,1.6998050148546329,0.7150273434259948,B,908,Incorrect
2,relearn,73,38,A,38.162158329129966,58.94183093083091,1.9081079164564982,0.9258561152071502,A,1274,Correct
2,relearn,73,39,B,67.39091304071822,39.62785616995934,3.3695456520359106,0.622472909105286,B,1569,Correct
2,relearn,73,40,A,40.77939554992614,50.68380878770331,2.038969777496307,0.7961394067169926,A,646,Correct
2,relearn,73,41,B,78.18991549602723,62.80258500674124,3.909495774801361,0.9865006984181338,A,1337,Incorrect
2,relearn,73,42,B,60.41896403473383,30.682755109547564,3.020948201736692,0.4819635902202466,B,657,Correct
2,relearn,73,43,A,63.049131217074006,86.55094237322115,3.1524565608537,1.3595390236049254,A,912,Correct
2,relearn,73,44,B,39.13736149819897,19.25132300575133,1.9568680749099485,0.3023990746337628,B,592,Correct
2,relearn,73,45,B,36.13302880156299,25.297529375598195,1.8066514400781497,0.3973726622017564,B,1427,Correct
2,relearn,73,46,A,42.017602373594954,59.59689417579784,2.100880118679748,0.9361458245972741,A,937,Correct
2,relearn,73,47,B,74.66740544393312,55.382387308773545,3.733370272196656,0.8699445055375378,A,1403,Incorrect
2,relearn,73,48,A,39.3020335935907,70.79331222995387,1.9651016796795349,1.1120187481245576,A,2936,Correct
2,relearn,73,49,A,36.75366558138611,64.32787083338636,1.8376832790693056,1.0104598321561986,A,720,Correct
2,relearn,73,50,B,75.35043099729441,50.36765092708816,3.7675215498647208,0.7911732106555766,B,575,Correct
2,relearn,73,51,A,36.447116193676834,67.79005580706749,1.8223558096838417,1.0648437065496266,B,623,Incorrect
2,relearn,73,52,A,50.04380139823954,67.42839632518856,2.502190069911977,1.0591627726927668,A,2191,Correct
2,relearn,73,53,A,52.426590912202144,72.44349448399235,2.621329545610107,1.1379397503564155,B,665,Incorrect
2,relearn,73,54,B,69.93018767424981,55.43575330621218,3.4965093837124903,0.8707827766650613,B,865,Correct
2,relearn,73,55,B,66.67520946710356,38.95438404939996,3.333760473355178,0.6118940337735517,B,1830,Correct
2,relearn,73,56,A,60.129287973792685,81.00478830829759,3.006464398689634,1.2724202392747204,A,964,Correct
2,relearn,73,57,A,28.2296765814525,49.251892758004985,1.4114838290726253,0.773646922319704,B,1000,Incorrect
2,relearn,73,58,A,57.86210069772463,79.14184413950461,2.893105034886231,1.2431571807010806,A,2910,Correct
2,relearn,73,59,A,29.061544886183626,45.903709694402835,1.4530772443091815,0.7210537857422725,B,938,Incorrect
2,relearn,73,60,B,68.4716986185652,38.44964882345675,3.4235849309282598,0.6039656713843958,B,2567,Correct
2,relearn,73,61,B,47.07486351642133,36.18072489559608,2.3537431758210663,0.5683254976677898,B,1072,Correct
2,relearn,73,62,A,24.466849041884352,35.063577566891944,1.2233424520942178,0.550777388463618,B,1817,Incorrect
2,relearn,73,63,A,43.03252018058512,51.99455777146224,2.151626009029256,0.8167286036073793,A,2572,Correct
2,relearn,73,64,A,59.18301273751872,68.3116567083311,2.959150636875936,1.0730369943472042,A,1767,Correct
2,relearn,73,65,B,61.074604542288036,40.297918548390975,3.053730227114402,0.6329982243329247,B,1732,Correct
2,relearn,73,66,B,44.11780733235844,22.61001735372874,2.205890366617922,0.3551573220800597,B,1044,Correct
2,relearn,73,67,A,42.15455241218865,52.206917635972594,2.1077276206094324,0.8200643445586945,A,856,Correct
2,relearn,73,68,A,28.76931815834619,50.792414552912575,1.4384659079173097,0.7978453820875874,A,1307,Correct
2,relearn,73,69,A,44.41737782747557,53.81157539404496,2.2208688913737786,0.8452702496801247,B,1920,Incorrect
2,relearn,73,70,B,81.49984949687968,62.862377496238395,4.074992474843984,0.9874399166468544,A,1327,Incorrect
2,relearn,73,71,B,38.68042647809127,23.674654535864263,1.9340213239045636,0.3718806038307372,B,1523,Correct
2,relearn,73,72,A,61.23369599601054,83.51665649812887,3.0616847998005268,1.3118765725345196,A,1035,Correct
2,relearn,73,73,A,45.36863611614548,61.46815218788988,2.268431805807274,0.965539476716071,B,7282,Incorrect
2,relearn,73,74,A,59.77871762957089,77.61229423569975,2.988935881478545,1.219131066995619,A,761,Correct
2,relearn,73,75,A,42.810849105519544,71.15341572547852,2.1405424552759773,1.117675240604919,B,730,Incorrect
2,relearn,73,76,B,56.76483535398251,28.80249135012432,2.8382417676991256,0.45242847615317056,B,659,Correct
2,relearn,73,77,A,33.668843785530115,65.73305014340583,1.6834421892765057,1.0325323371428663,A,5571,Correct
2,relearn,73,78,B,50.63558300517551,29.346462785433488,2.5317791502587754,0.4609731594778205,B,1079,Correct
2,relearn,73,79,B,50.10354081295591,28.09846281322203,2.5051770406477956,0.44136962175592165,B,1045,Correct
2,relearn,73,80,A,43.56030989044775,50.243496424130825,2.1780154945223873,0.7892229962835723,B,758,Incorrect
2,relearn,73,81,B,69.84139743818267,47.64629790758886,3.492069871909133,0.7484262973861594,B,2564,Correct
2,relearn,73,82,A,29.903452194194983,47.01910012954875,1.495172609709749,0.7385742977269663,B,1857,Incorrect
2,relearn,73,83,B,45.26121246124684,36.91139895966147,2.263060623062342,0.579802899026972,B,2498,Correct
2,relearn,73,84,A,22.688305556369926,33.85786904985532,1.1344152778184964,0.5318381633661535,B,4184,Incorrect
2,relearn,73,85,A,67.42848652059804,84.86821682203761,3.371424326029902,1.333106832456895,A,3236,Correct
2,relearn,73,86,B,70.86106245299838,49.236775285833964,3.543053122649919,0.7734094576221374,A,3708,Incorrect
2,relearn,73,87,B,42.23027643571107,34.538292094349735,2.1115138217855534,0.5425262235557378,A,4961,Incorrect
2,relearn,73,88,A,31.20677055623166,45.83210289157285,1.560338527811583,0.7199289887136839,A,5975,Correct
2,relearn,73,89,B,59.7996466195973,34.23434579145224,2.9899823309798648,0.5377518461943951,B,1961,Correct
2,relearn,73,90,B,35.53874274566394,12.708942887264278,1.776937137283197,0.19963160804760854,B,1664,Correct
2,relearn,73,91,A,18.435226286074005,47.605619491336654,0.9217613143037002,0.7477873223178714,A,1346,Correct
2,relearn,73,92,B,81.32484159427136,56.374747227082345,4.066242079713568,0.8855324586829173,B,2846,Correct
2,relearn,73,93,A,26.55240984832231,47.48568763772029,1.3276204924161155,0.7459034371666085,B,1367,Incorrect
2,relearn,73,94,B,61.49620242228563,39.381557693992,3.074810121114281,0.6186040616918392,B,798,Correct
2,relearn,73,95,B,32.11158811625796,17.45137255384645,1.605579405812898,0.27412551905111276,B,1966,Correct
2,relearn,73,96,B,60.81257540292307,29.984093868840617,3.040628770146154,0.4709890451144822,B,1236,Correct
2,relearn,73,97,B,64.61373482219831,40.76631365219218,3.230686741109915,0.6403557574183212,B,779,Correct
2,relearn,73,98,A,64.0888929642572,81.09637363905003,3.20444464821286,1.2738588582860626,A,2536,Correct
2,relearn,73,99,B,43.670892264109426,34.420328675679094,2.183544613205471,0.5406732585082976,B,945,Correct
2,relearn,73,100,B,70.95736005933406,53.240632352558364,3.547868002966703,0.8363018973563621,B,3481,Correct
2,relearn,73,101,B,79.10652955563044,63.90773409789507,3.9553264777815222,1.0038603397475854,B,975,Correct
2,relearn,73,102,B,66.17756640184591,56.88575260944636,3.3088783200922958,0.8935593124588154,B,579,Correct
2,relearn,73,103,A,40.50881406254886,64.19654728162004,2.0254407031274426,1.0083970066288366,B,634,Incorrect
2,relearn,73,104,A,27.640841518751202,49.17052049141016,1.38204207593756,0.7723687297450026,A,1850,Correct
2,relearn,73,105,A,61.143476758943905,76.69199369609501,3.0571738379471953,1.2046750199240341,B,469,Incorrect
2,relearn,73,106,B,78.12796777361584,56.93769568862117,3.9063983886807923,0.8943752324385175,B,1128,Correct
2,relearn,73,107,A,51.21182814106043,77.6333279818005,2.560591407053021,1.219461464306757,B,1309,Incorrect
2,relearn,73,108,B,40.84446782847867,13.595386129329864,2.0422233914239336,0.21355582593309635,B,1434,Correct
2,relearn,73,109,B,75.50100941971702,54.41345599001546,3.7750504709858514,0.8547245679733204,A,470,Incorrect
2,relearn,73,110,B,69.50165933320916,42.11270442432951,3.475082966660458,0.6615048142113599,B,4758,Correct
2,relearn,73,111,B,42.94521843946163,14.196772290586228,2.147260921973081,0.2230023776639642,B,3250,Correct
2,relearn,73,112,A,24.790685848866005,43.65758453816947,1.2395342924433002,0.6857717342929427,A,1819,Correct
2,relearn,73,113,A,19.295025301326145,34.80547405463099,0.9647512650663073,0.5467231079736944,A,785,Correct
2,relearn,73,114,A,41.63562964362135,72.31129390182191,2.0817814821810674,1.1358631484676807,A,1047,Correct
2,relearn,73,115,A,62.56781048059221,75.94926450661912,3.1283905240296104,1.1930082570977132,A,1530,Correct
2,relearn,73,116,A,35.25596551885974,51.39129827213052,1.762798275942987,0.8072526255508355,A,1068,Correct
2,relearn,73,117,B,38.98053411073872,20.874699892289136,1.9490267055369361,0.327899019137536,B,1022,Correct
2,relearn,73,118,A,37.33228352400334,63.314572570822534,1.866614176200167,0.9945429802683695,B,2433,Incorrect
2,relearn,73,119,B,68.21197047679048,46.932272389895346,3.4105985238395244,0.7372104107818516,A,1248,Incorrect
2,relearn,73,120,A,48.100454695365784,56.95581191937716,2.405022734768289,0.8946598015257864,A,4844,Correct
2,relearn,73,121,A,13.089482017118694,39.916438589399874,0.6544741008559347,0.6270059511496338,A,844,Correct
2,relearn,73,122,B,79.59294449043426,62.54620753833113,3.979647224521713,0.9824735305616182,A,817,Incorrect
2,relearn,73,123,B,73.18887546481525,49.448975285074106,3.659443773240763,0.7767426874156603,B,1209,Correct
2,relearn,73,124,B,65.86486747485625,44.453558883662595,3.293243373742813,0.6982748700741783,B,542,Correct
2,relearn,73,125,A,39.397504095818505,47.390131927667866,1.9698752047909251,0.7444024515830624,B,667,Incorrect
2,relearn,73,126,B,37.78243213014572,24.818524012528833,1.889121606507286,0.38984846355351227,B,1509,Correct
2,relearn,73,127,B,41.48532132440219,23.210422694106278,2.07426606622011,0.36458846711259046,B,782,Correct
2,relearn,73,128,B,60.56847657906416,47.48473035503442,3.028423828953208,0.7458884002053419,B,2098,Correct
2,relearn,73,129,B,65.21054681480125,42.7220806698713,3.2605273407400626,0.671076873892691,B,760,Correct
2,relearn,73,130,B,66.85203555752527,45.222879665971156,3.342601777876263,0.710359332663951,B,495,Correct
2,relearn,73,131,A,31.318066808476004,49.88586011631209,1.5659033404238003,0.7836052582970707,B,1682,Incorrect
2,relearn,73,132,B,32.49181756989309,12.87284275168562,1.6245908784946546,0.2022061410975608,A,1548,Incorrect
2,relearn,73,133,B,70.58131808022819,60.64261378646516,3.5290659040114094,0.9525719498302103,B,1987,Correct
2,relearn,73,134,A,39.546986293505185,50.13755355077231,1.9773493146752594,0.7875588495203557,B,1500,Incorrect
2,relearn,73,135,B,56.78007621790297,25.93806310195675,2.8390038108951487,0.4074341424472791,B,837,Correct
2,relearn,73,136,A,57.07264857305101,85.824204727942,2.853632428652551,1.348123455367445,A,1019,Correct
2,relearn,73,137,B,41.14259150393774,22.29504163148739,2.057129575196887,0.3502096950047969,B,1570,Correct
2,relearn,73,138,B,45.57649747418401,26.400322307828226,2.2788248737092003,0.41469529307337943,B,905,Correct
2,relearn,73,139,B,40.05786319048447,12.93706122782351,2.0028931595242234,0.2032148825618584,B,1908,Correct
2,relearn,73,140,A,56.24495004962556,73.57093243905288,2.812247502481278,1.1556495043413977,A,756,Correct
2,relearn,73,141,B,51.9753069714406,27.197477248379577,2.59876534857203,0.4272169735984241,A,2692,Incorrect
2,relearn,73,142,A,63.41478418137161,88.73322990317291,3.1707392090685804,1.3938183159655109,A,1785,Correct
2,relearn,73,143,B,69.39486202947762,53.542869111594484,3.469743101473881,0.8410494212655255,B,4294,Correct
2,relearn,73,144,A,30.014127494454456,51.69531939261063,1.5007063747227227,0.8120281781440176,B,3945,Incorrect
2,relearn,73,145,B,87.06836358557693,68.79996922503805,4.3534181792788464,1.080707389422917,B,548,Correct
2,relearn,73,146,A,44.71131769341344,71.03235339969622,2.235565884670672,1.115773598038398,A,820,Correct
2,relearn,73,147,A,41.57385864077411,70.38323625610049,2.0786929320387055,1.1055772897902005,A,1085,Correct
2,relearn,73,148,B,64.31441753773757,35.29200303810247,3.2157208768868784,0.5543654873748569,B,1100,Correct
2,relearn,73,149,A,46.743391882350316,61.47299100150008,2.337169594117516,0.9656154846225207,A,826,Correct
2,relearn,73,150,A,58.15681582651001,67.53663165374668,2.9078407913255004,1.0608629292580523,A,738,Correct
2,relearn,73,151,A,26.607995236561337,36.702071016850624,1.330399761828067,0.576514783390344,A,1212,Correct
2,relearn,73,152,B,55.06225680925658,27.343063006771455,2.7531128404628293,0.42950382934358017,A,695,Incorrect
2,relearn,73,153,B,36.45908637145094,11.861568804711982,1.822954318572547,0.1863210870846651,A,2007,Incorrect
2,relearn,73,154,A,49.812875191434024,66.69341580890637,2.490643759571701,1.047617725740348,A,1264,Correct
2,relearn,73,155,B,56.700723371584225,24.930587391292065,2.8350361685792116,0.3916087509908074,B,1202,Correct
2,relearn,73,156,B,46.909622981775705,30.61886826132367,2.3454811490887852,0.48096005795504054,B,472,Correct
2,relearn,73,157,A,55.68227300034391,79.71809686345394,2.7841136500171957,1.252208937321932,A,3079,Correct
2,relearn,73,158,A,57.94743827888867,75.86946064395262,2.8973719139444336,1.1917547009543075,A,1505,Correct
2,relearn,73,159,A,28.51299444326584,38.49652164327716,1.4256497221632918,0.6047019479164001,A,1026,Correct
2,relearn,73,160,A,43.1347788839906,67.77178780351225,2.15673894419953,1.0645567534208022,A,1417,Correct
2,relearn,73,161,B,78.19199062944836,63.29526516206252,3.9095995314724177,0.9942397002007679,B,826,Correct
2,relearn,73,162,A,53.90367275544368,61.074982047505266,2.6951836377721836,0.9593635745928552,B,2469,Incorrect
2,relearn,73,163,B,38.29477632407035,22.751272747094497,1.9147388162035173,0.3573761566104487,A,1399,Incorrect
2,relearn,73,164,A,48.34522724336704,58.6607461110148,2.417261362168352,0.9214408451823006,B,1395,Incorrect
2,relearn,73,165,A,36.43069217691138,59.52535248467226,1.8215346088455688,0.9350220503409467,B,975,Incorrect
2,relearn,73,166,B,69.84993383932698,50.529142589587345,3.492496691966349,0.7937099157581937,B,532,Correct
2,relearn,73,167,A,52.12836188711669,69.29631824148083,2.606418094355835,1.0885040215412827,A,886,Correct
2,relearn,73,168,A,41.60401436223621,56.13775270007655,2.08020071811181,0.8818097573580052,A,682,Correct
2,relearn,73,169,B,44.417669939595555,28.60581365089041,2.220883496979778,0.4493390700779797,A,834,Incorrect
2,relearn,73,170,B,65.22271594549967,48.29964572729673,3.2611357972749833,0.7586890609393251,B,2010,Correct
2,relearn,73,171,A,40.46079104160961,66.64030101241842,2.0230395520804807,1.0467834004681307,B,1911,Incorrect
2,relearn,73,172,A,44.13112856967384,65.60748959551785,2.206556428483692,1.0305600366687384,B,729,Incorrect
2,relearn,73,173,B,59.12168915166987,32.43732212805244,2.956084457583494,0.5095242644980759,B,700,Correct
2,relearn,73,174,B,37.01445151200815,15.59891263852403,1.8507225756004075,0.24502714674588033,A,1597,Incorrect
2,relearn,73,175,A,47.10372204336569,58.20135370662771,2.3551861021682843,0.9142247261686134,A,1630,Correct
2,relearn,73,176,A,67.65912141148398,87.81769001714127,3.382956070574199,1.3794370490653838,B,1296,Incorrect
2,relearn,73,177,B,65.06513599098643,32.925388631095885,3.253256799549322,0.5171907952001986,B,1471,Correct
2,relearn,73,178,B,62.57057758336728,42.55559699114591,3.1285288791683636,0.6684617543825595,B,691,Correct
2,relearn,73,179,A,22.85464084800108,52.73008338066925,1.142732042400054,0.8282822128594388,A,2782,Correct
2,relearn,73,180,B,75.89528843308568,50.92185765595129,3.794764421654284,0.7998786695954088,B,1212,Correct
2,relearn,73,181,A,58.617356039943175,81.89210895002626,2.9308678019971586,1.2863582393218873,B,2913,Incorrect
2,relearn,73,182,B,73.53638765453782,45.304701687372514,3.6768193827268907,0.7116445899706331,A,823,Incorrect
2,relearn,73,183,A,37.366714724762936,65.84769896566759,1.868335736238147,1.0343332366316675,A,906,Correct
2,relearn,73,184,B,76.65330688943341,61.72933752589732,3.8326653444716703,0.9696421664116188,B,1295,Correct
2,relearn,73,185,B,48.02847861826355,22.437457084717227,2.401423930913177,0.3524467517129195,B,2538,Correct
2,relearn,73,186,B,69.70620286273773,45.57164873452375,3.485310143136886,0.715837784381772,A,1247,Incorrect
2,relearn,73,187,B,42.46871721424438,26.50167079166704,2.123435860712219,0.4162872713347818,B,5281,Correct
2,relearn,73,188,B,59.27968499090461,26.38525633558755,2.9639842495452307,0.41445863733482696,B,848,Correct
2,relearn,73,189,A,40.27894974388877,60.6384458357286,2.0139474871944385,0.9525064798131377,B,807,Incorrect
2,relearn,73,190,B,61.70130673888206,34.63450401507644,3.085065336944103,0.5440375168724516,B,1300,Correct
2,relearn,73,191,B,59.806283273620906,46.18108834182884,2.9903141636810453,0.7254108393473537,B,3437,Correct
2,relearn,73,192,A,41.588959583000324,60.8372806123577,2.0794479791500162,0.9556297691808184,A,1064,Correct
2,relearn,73,193,B,84.15129373270412,54.41328236310593,4.207564686635206,0.8547218406482032,B,479,Correct
2,relearn,73,194,A,49.885072223114925,62.01687068879015,2.494253611155746,0.9741587267726565,A,1116,Correct
2,relearn,73,195,B,46.992244024408485,16.81789872253448,2.3496122012204244,0.2641749353776574,B,841,Correct
2,relearn,73,196,A,49.95402534419167,81.04131323737124,2.4977012672095835,1.2729939715189738,B,812,Incorrect
2,relearn,73,197,A,50.63537521190116,62.91347120905441,2.531768760595058,0.9882424948109915,B,491,Incorrect
2,relearn,73,198,A,13.700846895078737,37.288495362582665,0.6850423447539369,0.5857263154725338,A,739,Correct
2,relearn,73,199,B,52.62237626555656,23.459821888017082,2.631118813277828,0.3685060204895974,B,2484,Correct
2,relearn,73,200,A,48.96085003953846,77.2954890527122,2.4480425019769227,1.2141547028181547,A,1806,Correct
2,relearn,73,201,B,36.54522537435021,11.075734547232294,1.8272612687175103,0.17397723143347826,B,831,Correct
2,relearn,73,202,B,44.50580575665799,31.007851385072698,2.2252902878328995,0.48707019057474243,A,1008,Incorrect
2,relearn,73,203,A,41.09120225244173,52.86918471153146,2.0545601126220867,0.8304672114551451,B,1600,Incorrect
2,relearn,73,204,A,45.0222412199635,75.51880652322218,2.251112060998175,1.1862466389061188,A,1761,Correct
2,relearn,73,205,B,55.503257657750275,25.7855681414717,2.7751628828875137,0.4050387572094325,B,2038,Correct
2,relearn,73,206,A,45.35968685408747,77.26247439354245,2.2679843427043735,1.2136361097646124,A,658,Correct
2,relearn,73,207,B,51.87154753860649,38.3872434043165,2.5935773769303245,0.6029854093528199,B,749,Correct
2,relearn,73,208,A,49.21520754581141,66.88099139400897,2.4607603772905704,1.0505641561411037,A,622,Correct
2,relearn,73,209,B,47.93116833987952,35.422589792793005,2.396558416993976,0.5564167393208165,B,468,Correct
2,relearn,73,210,A,53.55156588150524,82.81824004361283,2.677578294075262,1.3009058725212506,A,575,Correct
2,relearn,73,211,B,55.938035578848165,39.66946247861013,2.7969017789424084,0.6231264594732877,B,418,Correct
2,relearn,73,212,A,39.87169961136646,64.5081898673611,1.993584980568323,1.0132922769183859,A,435,Correct
2,relearn,73,213,A,57.821074323546256,84.08398802983999,2.891053716177313,1.320788195395387,A,853,Correct
2,relearn,73,214,A,37.33157515932105,49.073754613600386,1.8665787579660524,0.770848734890776,B,714,Incorrect
2,relearn,73,215,A,33.849565454231474,58.96726117170422,1.6924782727115737,0.9262555724966832,A,1342,Correct
2,relearn,73,216,A,28.557296934000178,51.9616779982122,1.427864846700009,0.8162121293369092,A,1195,Correct
2,relearn,73,217,B,62.91796154213631,39.33706946504343,3.1458980771068155,0.617905242225659,B,670,Correct
2,relearn,73,218,A,17.606999693957555,45.56972292882176,0.8803499846978778,0.715807533896544,A,1123,Correct
2,relearn,73,219,B,67.08202941597364,35.12912260364615,3.354101470798682,0.5518069674933496,B,2581,Correct
2,relearn,73,220,B,57.21197803175521,40.70652901938849,2.8605989015877604,0.639416662602253,B,769,Correct
2,relearn,73,221,B,75.47477144888715,64.55118479950616,3.773738572444358,1.0139676397332285,B,1986,Correct
2,relearn,73,222,A,36.867791551576616,58.326048195538036,1.8433895775788307,0.9161834226201326,B,672,Incorrect
2,relearn,73,223,B,54.13366911563288,43.112099502898765,2.706683455781644,0.6772032753956947,B,926,Correct
2,relearn,73,224,A,51.40082855012467,73.71619378277441,2.5700414275062338,1.1579312641928283,A,1487,Correct
2,relearn,73,225,A,44.14178443031632,55.2191702242637,2.2070892215158158,0.8673806975693553,A,1277,Correct
2,relearn,73,226,A,15.62723086571376,41.714197520802,0.781361543285688,0.6552450824087257,A,817,Correct
2,relearn,73,227,B,67.620066507128,44.327706322824284,3.3810033253564002,0.696297982671353,B,657,Correct
2,relearn,73,228,B,88.70630382841772,67.81266590598074,4.435315191420886,1.0651988651528406,B,961,Correct
2,relearn,73,229,A,27.941283705653085,58.60475616013152,1.3970641852826544,0.920561357090452,B,734,Incorrect
2,relearn,73,230,B,45.298689663097456,27.38277660338463,2.264934483154873,0.43012764906041817,B,691,Correct
2,relearn,73,231,A,42.455462702961455,50.565080997638745,2.1227731351480728,0.7942744349517737,B,1067,Incorrect
2,relearn,73,232,A,20.458847644335975,51.15839429962809,1.0229423822167987,0.8035941785058077,A,2726,Correct
2,relearn,73,233,A,26.656535873983863,52.669600186607205,1.3328267936991933,0.827332145068784,A,1581,Correct
2,relearn,73,234,B,38.61721591070391,17.56114021955171,1.9308607955351957,0.2758497455120195,B,2347,Correct
2,relearn,73,235,B,71.63693185616121,59.81683108971629,3.5818465928080605,0.9396005855623711,B,1584,Correct
2,relearn,73,236,A,40.400226340586556,54.89494292204042,2.020011317029328,0.8622877470155661,A,2573,Correct
2,relearn,73,237,B,76.49839987062929,51.443396227751386,3.824919993531464,0.8080709783240633,B,603,Correct
2,relearn,73,238,B,50.166238122527474,24.294990156559905,2.508311906126374,0.38162481297442463,A,842,Incorrect
2,relearn,73,239,B,58.59259432628259,41.985439479791076,2.929629716314129,0.6595057411372527,B,953,Correct
2,relearn,73,240,B,48.00402740972897,20.391753629547125,2.400201370486448,0.32031291698199127,B,1165,Correct
2,relearn,73,241,A,55.14762478099185,66.67966484341804,2.7573812390495926,1.0474017260795585,B,746,Incorrect
2,relearn,73,242,A,67.07494705098873,81.58184920418333,3.353747352549436,1.2814846906306632,B,1273,Incorrect
2,relearn,73,243,A,47.18528610695314,65.5715030976401,2.359264305347657,1.0299947620819325,A,1141,Correct
2,relearn,73,244,B,54.0983550928239,40.446420944771056,2.704917754641195,0.6353308945204655,A,751,Incorrect
2,relearn,73,245,A,49.36190461166897,74.6106912723488,2.4680952305834483,1.1719819979023354,A,2040,Correct
2,relearn,73,246,A,43.40676355386335,66.30876338459655,2.1703381776931674,1.041575619588362,A,1274,Correct
2,relearn,73,247,A,59.652199590714844,72.1308885445429,2.9826099795357424,1.1330293477422004,B,1265,Incorrect
2,relearn,73,248,A,55.561386410120356,84.45978117946566,2.778069320506018,1.3266911403860542,A,861,Correct
2,relearn,73,249,B,76.13530440012687,48.755574658487916,3.8067652200063433,0.7658507758432717,A,1813,Incorrect
2,relearn,73,250,A,41.41947892248176,72.33324009075892,2.070973946124088,1.1362078783973748,A,890,Correct
2,relearn,73,251,B,69.03799296360835,41.22857733306897,3.4518996481804174,0.6476169783376408,B,1245,Correct
2,relearn,73,252,B,70.60674407509191,48.528574971041,3.5303372037545957,0.7622850730910196,B,733,Correct
2,relearn,73,253,B,85.52459227075902,63.34982097656262,4.276229613537951,0.9950966609309886,B,686,Correct
2,relearn,73,254,A,39.90433787727901,70.0777083950913,1.9952168938639505,1.100778069372133,B,948,Incorrect
2,relearn,73,255,A,17.702267928715713,47.1785641947683,0.8851133964357857,0.7410791534059926,B,935,Incorrect
2,relearn,73,256,A,38.645832117886364,67.58289487134371,1.932291605894318,1.0615896301807235,B,716,Incorrect
2,relearn,73,257,B,77.04483927768496,55.03997632998497,3.8522419638842478,0.8645659264601844,B,654,Correct
2,relearn,73,258,A,36.64336925869141,55.939615768159264,1.8321684629345703,0.8786974297094243,A,577,Correct
2,relearn,73,259,A,28.183978751205252,50.025807162046604,1.4091989375602625,0.7858035413509264,A,604,Correct
2,relearn,73,260,B,77.55463367470617,47.140332498952446,3.877731683735308,0.740478611332446,B,761,Correct
2,relearn,73,261,B,55.37371708834244,37.36978508776901,2.768685854417122,0.5870032114898227,B,1375,Correct
2,relearn,73,262,A,57.72900720320047,80.21377996417705,2.8864503601600235,1.2599951092606336,A,908,Correct
2,relearn,73,263,B,66.1765588307672,57.833905948825425,3.30882794153836,0.908452870286165,A,1703,Incorrect
2,relearn,73,264,A,53.94021321434803,70.58597276898833,2.6970106607174014,1.1087618674877147,A,1676,Correct
2,relearn,73,265,B,63.759651406103195,31.984144039102432,3.18798257030516,0.5024057597230098,B,686,Correct
2,relearn,73,266,A,49.22152123911024,57.288161945475295,2.461076061955512,0.8998803435278377,A,737,Correct
2,relearn,73,267,A,67.98295963968198,82.51056726263417,3.399147981984099,1.29607295977909,B,772,Incorrect
2,relearn,73,268,A,44.99969058584771,58.11891616820509,2.2499845292923855,0.912929800343171,A,863,Correct
2,relearn,73,269,A,48.385701871928205,77.86118418387483,2.41928509359641,1.2230406211593146,B,697,Incorrect
2,relearn,73,270,A,15.56796257149621,39.32259752578021,0.7783981285748105,0.6176779175352964,A,4303,Correct
2,relearn,73,271,B,31.08502078753016,12.702432343702558,1.5542510393765079,0.19952934066848668,A,5135,Incorrect
2,relearn,73,272,B,85.89363270692886,61.88428120349796,4.294681635346443,0.9720760160079707,B,1981,Correct
2,relearn,73,273,B,52.65315123052597,44.95020743061604,2.632657561526299,0.7060762072068034,A,1377,Incorrect
2,relearn,73,274,B,52.975897169557925,26.359539670799123,2.6487948584778964,0.41405468090895614,B,5090,Correct
2,relearn,73,275,B,39.98997775109764,30.246009183866484,1.9994988875548818,0.47510320126222183,B,752,Correct
2,relearn,73,276,A,28.615035208089935,38.14930550428238,1.4307517604044966,0.599247889559031,B,1487,Incorrect
2,relearn,73,277,A,53.14739118990017,83.04269493380365,2.657369559495008,1.3044316016916793,B,1570,Incorrect
2,relearn,73,278,B,49.70298252383765,32.419444171721274,2.4851491261918826,0.50924343821672,B,2520,Correct
2,relearn,73,279,A,46.155380969884945,77.31837226461916,2.3077690484942472,1.214514151470242,A,933,Correct
2,relearn,73,280,B,38.29227458185271,13.345114973294638,1.9146137290926355,0.20962457580706792,A,1434,Incorrect
2,relearn,73,281,A,44.79544997805696,69.05193941992914,2.239772498902848,1.0846653279888843,A,2342,Correct
2,relearn,73,282,A,58.917443587204154,70.64165631452433,2.9458721793602076,1.1096365425756232,A,1345,Correct
2,relearn,73,283,B,42.64717112529286,25.04003377930024,2.1323585562646428,0.3933279308334495,A,845,Incorrect
2,relearn,73,284,A,41.68375722305533,72.03001021372981,2.0841878611527664,1.1314447546272566,A,1111,Correct
2,relearn,73,285,A,39.433514938763174,61.685501016611504,1.9716757469381587,0.9689535841339622,B,3267,Incorrect
2,relearn,73,286,A,21.3282668840508,44.17917016620011,1.06641334420254,0.6939647821791382,A,814,Correct
2,relearn,73,287,A,23.22410022573095,34.627040477232654,1.1612050112865475,0.5439202798941526,A,796,Correct
2,relearn,73,288,A,34.93493285446794,55.34256052828104,1.746746642723397,0.8693189079324809,A,1112,Correct
2,relearn,73,289,A,13.258022289630915,39.4978708706707,0.6629011144815458,0.6204311047986868,A,722,Correct
2,relearn,73,290,B,53.704262577937016,44.73749871510742,2.6852131288968506,0.7027349865168214,A,815,Incorrect
2,relearn,73,291,A,20.900944199846283,45.47762362452394,1.045047209992314,0.7143608414076302,A,877,Correct
2,relearn,73,292,B,64.5359097802304,33.0112330376522,3.22679548901152,0.518539235985144,A,820,Incorrect
2,relearn,73,293,A,41.80943488893741,62.65563309612559,2.0904717444468703,0.9841923832040282,A,978,Correct
2,relearn,73,294,B,40.346996355756694,30.62322552070232,2.0173498177878346,0.4810285016253094,A,2040,Incorrect
2,relearn,73,295,B,60.21265833978936,30.209491264786525,3.0106329169894677,0.47452957913069177,B,973,Correct
2,relearn,73,296,A,49.04511740606875,69.95099751604532,2.4522558703034374,1.0987876995384291,A,1023,Correct
2,relearn,73,297,B,39.46085702827641,24.900016693755283,1.9730428514138203,0.39112854759682397,B,2630,Correct
2,relearn,73,298,B,41.35660994668346,14.287756102209265,2.0678304973341732,0.22443154803491683,B,622,Correct
2,relearn,73,299,B,43.568591385410286,24.453856349677135,2.1784295692705142,0.3841202773004289,B,1257,Correct
2,relearn,73,300,B,33.38532338715892,15.3655922836605,1.6692661693579458,0.2413621591820192,B,605,Correct
2,relearn,73,301,A,29.37932486981268,48.44060565451652,1.468966243490634,0.7609032542983465,A,1042,Incorrect
2,relearn,73,302,A,26.78586501619347,40.0779691122262,1.3392932508096735,0.6295432666688424,B,970,Incorrect
2,relearn,73,303,A,34.94206110092717,65.14608766572846,1.7471030550463584,1.0233123521038456,A,1139,Correct
2,relearn,73,304,B,65.53362618813229,32.883638128525774,3.2766813094066145,0.5165349798394089,B,1570,Correct
2,relearn,73,305,A,50.31690049380299,79.6864275974357,2.5158450246901496,1.2517114776545946,A,613,Correct
2,relearn,73,306,A,49.317833456176274,77.36089620203816,2.465891672808814,1.215182115917228,A,587,Correct
2,relearn,73,307,B,55.161442226611456,28.34802041534051,2.758072111330573,0.44528966340323606,B,1082,Incorrect
2,relearn,73,308,B,57.40043592942692,42.200586096424416,2.870021796471346,0.6628852562885525,A,2543,Correct
2,relearn,73,309,B,76.19985169199467,48.28182750424075,3.809992584599734,0.7584091729460619,A,445,Incorrect
2,relearn,73,310,A,22.020130832467448,52.89435920026847,1.1010065416233723,0.8308626513995155,A,805,Correct
2,relearn,73,311,B,69.30802009846705,50.553604889883026,3.465401004923353,0.7940941686726878,B,634,Correct
2,relearn,73,312,B,54.47416663958401,37.57869935705178,2.723708331979201,0.5902848291578668,B,834,Correct
2,relearn,73,313,B,58.90908193301549,33.22987805613721,2.9454540966507743,0.5219737039042266,B,683,Incorrect
2,relearn,73,314,B,50.82363209308862,28.070947936294573,2.5411816046544313,0.440937419079823,B,686,Correct
2,relearn,73,315,A,39.60109593153939,47.40032751453728,1.9800547965769695,0.7445626034871022,A,846,Correct
2,relearn,73,316,B,63.905492583666344,41.38463720027752,3.195274629183317,0.6500683609993535,B,637,Correct
2,relearn,73,317,B,39.89212025292497,21.846406513357405,1.9946060126462484,0.34316255104849913,B,1608,Correct
2,relearn,73,318,A,18.655693383920635,31.72076156925661,0.9327846691960318,0.49826855756125,A,1990,Correct
2,relearn,73,319,A,20.107059068772866,33.20761038851228,1.0053529534386434,0.5216239241991114,B,1267,Incorrect
2,relearn,73,320,A,60.94637705303673,82.49015846004691,3.047318852651836,1.2957523790577063,B,667,Incorrect
2,relearn,73,321,A,30.94788906862349,63.922350496197666,1.5473944534311743,1.0040899335952322,A,1013,Correct
2,relearn,73,322,B,78.74197886132833,60.664958923159844,3.9370989430664167,0.9529229464166277,B,526,Incorrect
2,relearn,73,323,B,36.93540761089955,22.871395311387055,1.8467703805449776,0.359263037438008,B,3047,Correct
2,relearn,73,324,B,54.98382208722187,27.414834141384482,2.7491911043610937,0.4306312076897807,A,1579,Correct
2,relearn,73,325,A,57.68354886918641,75.6008569985575,2.8841774434593206,1.1875354847588038,A,692,Incorrect
2,relearn,73,326,A,55.58719213623645,66.40922224793327,2.779359606811823,1.043153623723595,A,684,Correct
2,relearn,73,327,B,70.33380882991067,56.68987757467298,3.516690441495533,0.8904825146074868,A,929,Incorrect
2,relearn,73,328,B,80.42176258859428,64.3801491301702,4.021088129429714,1.0112810177217901,B,1359,Correct
2,relearn,73,329,B,64.8324910864185,38.380311148289394,3.241624554320925,0.602876517729782,B,1730,Correct
2,relearn,73,330,A,28.544278246299186,59.36673496204091,1.4272139123149594,0.9325304921218002,A,1415,Incorrect
2,relearn,73,331,B,74.69381737514104,62.863050725580266,3.734690868757052,0.9874504917086273,B,1290,Correct
2,relearn,73,332,B,41.27362654211185,20.97322914479534,2.0636813271055927,0.3294467130167219,B,749,Incorrect
2,relearn,73,333,A,19.81732356709268,50.47664620315578,0.9908661783546339,0.7928853044484268,A,2014,Incorrect
2,relearn,73,334,A,26.40873524448698,50.3161798968562,1.320436762224349,0.7903647056033295,A,1012,Correct
2,relearn,73,335,B,69.39957576895587,45.74530001852602,3.4699787884477935,0.7185654923723117,A,923,Incorrect
2,relearn,73,336,B,60.03314300552959,32.70356002851778,3.0016571502764795,0.5137063196591213,A,1083,Incorrect
2,relearn,73,337,B,43.51144996843297,14.722220409909955,2.1755724984216487,0.23125609742151415,A,1484,Incorrect
2,relearn,73,338,A,66.73587014231836,82.05809992181693,3.3367935071159183,1.2889656194095862,A,1103,Correct
2,relearn,73,339,A,32.449863958082545,42.70584962189781,1.6224931979041273,0.6708219171873231,B,961,Correct
2,relearn,73,340,A,25.176113879652625,49.03960654886587,1.2588056939826313,0.7703123383442545,B,486,Correct
2,relearn,73,341,B,37.404908181936904,27.70161657517512,1.870245409096845,0.435135975625657,B,503,Incorrect
2,relearn,73,342,B,55.132328290328815,35.45351212268304,2.756616414516441,0.5569024661428885,B,889,Correct
2,relearn,73,343,B,53.65890019288843,39.88647992880278,2.6829450096444214,0.6265353616094177,B,658,Incorrect
2,relearn,73,344,A,40.61041884473428,49.13271591302072,2.030520942236714,0.7717748968163011,B,1616,Correct
2,relearn,73,345,B,69.69809958867269,47.37285588346781,3.4849049794336344,0.7441310801153523,B,2056,Incorrect
2,relearn,73,346,B,50.46608640626329,32.721135218082,2.5233043203131644,0.5139823900912234,B,1283,Correct
2,relearn,73,347,B,49.36404407599282,33.18137013789016,2.468202203799641,0.5212117433061974,A,528,Incorrect
2,relearn,73,348,A,40.1011447261565,68.77702592233867,2.0050572363078247,1.0803469968668697,A,1580,Incorrect
2,relearn,73,349,A,20.597100737348292,33.65393893372118,1.0298550368674144,0.5286348365926898,A,1096,Correct
2,relearn,73,350,B,43.4873795806801,17.890077062206398,2.1743689790340053,0.28101667335391445,B,4286,Incorrect
2,relearn,73,351,B,74.42303979967512,63.35774568409248,3.721151989983756,0.9952211419457767,B,1136,Correct
2,relearn,73,352,A,58.30461400582742,74.7195214941872,2.915230700291371,1.1736914990294158,B,838,Incorrect
2,relearn,73,353,B,34.04778231574075,22.833200908250944,1.7023891157870372,0.3586630811565048,A,5691,Incorrect
2,relearn,73,354,A,50.38786798942846,58.29808845152236,2.519393399471423,0.915744231988153,B,1146,Incorrect
2,relearn,73,355,B,71.6509498792283,62.298985555931154,3.5825474939614153,0.9785901767430499,A,2781,Incorrect
2,relearn,73,356,B,72.40712563167818,42.88682331406112,3.620356281583909,0.6736646452962893,A,906,Incorrect
2,relearn,73,357,B,70.85821365517923,42.873687518402264,3.5429106827589614,0.6734583087005848,B,1218,Correct
2,relearn,73,358,A,61.9376884452245,71.91997062758203,3.096884422261225,1.1297162568500272,B,506,Incorrect
2,relearn,73,359,B,72.76060922251743,57.69007510157074,3.6380304611258714,0.9061935806206904,B,635,Correct
2,relearn,73,360,B,49.02184511813347,30.17032558395062,2.4510922559066732,0.4739143660547573,A,722,Incorrect
2,relearn,73,361,B,57.97328883222457,48.34806936598672,2.8986644416112286,0.759449697677168,B,429,Incorrect
2,relearn,73,362,B,52.02452698892224,24.318729895103345,2.601226349446112,0.38199771591545584,B,958,Correct
2,relearn,73,363,A,42.50070892218246,60.597809182787124,2.125035446109123,0.9518681607614007,A,470,Correct
2,relearn,73,364,B,66.27219307441524,39.986885603137814,3.313609653720762,0.6281125302537661,B,648,Correct
2,relearn,73,365,B,65.96412982014319,38.098820165846305,3.298206491007159,0.598454867717307,B,769,Correct
2,relearn,73,366,B,71.88910153222284,55.4252552851238,3.5944550766111423,0.8706178741354189,B,787,Correct
2,relearn,73,367,B,65.56304188033492,32.87724009024551,3.2781520940167463,0.5164344796891156,B,439,Correct
2,relearn,73,368,A,45.342475935203375,74.90660081156126,2.2671237967601687,1.1766301340749206,A,685,Correct
2,relearn,73,369,B,41.05169497824953,24.87431446616602,2.0525847489124764,0.3907248179499474,B,425,Correct
2,relearn,73,370,B,57.44239126877117,41.95016452713792,2.872119563438558,0.6589516434766982,A,920,Incorrect
2,relearn,73,371,B,41.04736334220859,17.213644007849602,2.0523681671104295,0.2703912877828514,B,1269,Incorrect
2,relearn,73,372,B,74.93861120144558,58.521354333686546,3.7469305600722795,0.9192512842641742,A,1181,Incorrect
2,relearn,73,373,B,71.54475034901401,52.649230880979545,3.5772375174507003,0.8270121847641911,A,992,Correct
2,relearn,73,374,A,61.495481308731144,84.93230490275468,3.074774065436557,1.3341135256747125,B,1014,Incorrect
2,relearn,73,375,B,64.74926994201586,32.993102942588756,3.237463497100793,0.5182544491178431,B,650,Correct
2,relearn,73,376,A,63.05268444520982,74.05966824802775,3.152634222260491,1.163326548476506,A,548,Incorrect
2,relearn,73,377,A,47.611925375485946,62.054276684078125,2.380596268774297,0.9747462987726411,B,542,Correct
2,relearn,73,378,A,12.59048579150593,33.688016427284566,0.6295242895752965,0.5291701246098474,A,723,Correct
2,relearn,73,379,A,65.1319860064257,87.00765770162772,3.256599300321285,1.366713091207445,B,586,Correct
2,relearn,73,380,B,35.98797871193866,12.143472258558845,1.799398935596933,0.19074921618279958,A,1089,Incorrect
2,relearn,73,381,A,61.5862467775552,81.6456509096808,3.07931233887776,1.28248688547705,A,5564,Correct
2,relearn,73,382,A,27.746198438893856,54.75236272149557,1.3873099219446927,0.8600481024626707,B,2388,Incorrect
2,relearn,73,383,B,43.70557466383621,20.22073640757953,2.1852787331918107,0.3176265847411376,A,1373,Correct
2,relearn,73,384,B,43.16218403488995,22.49248323271887,2.158109201744497,0.3533111004245061,A,965,Incorrect
2,relearn,73,385,A,35.377890216150114,63.514837514388276,1.7688945108075058,0.9976887346457579,A,1204,Correct
2,relearn,73,386,A,20.32810153366745,51.65305171632295,1.0164050766833725,0.8113642390374691,A,824,Incorrect
2,relearn,73,387,A,33.84967609669137,65.00294762583273,1.6924838048345685,1.021063913614991,B,2041,Incorrect
2,relearn,73,388,A,38.253329725537505,46.1412988509788,1.9126664862768752,0.7247858274866308,B,1377,Correct
2,relearn,73,389,B,47.12250098930143,32.130878657679744,2.3561250494650716,0.5047106617217588,B,1391,Correct
2,relearn,73,390,B,33.575516535238194,15.126219147213188,1.6787758267619097,0.2376020947473711,B,1337,Correct
2,relearn,73,391,B,49.54666349147273,41.380067868886584,2.477333174573636,0.6499965861097057,A,579,Incorrect
2,relearn,73,392,A,21.097071824507,45.88492257728908,1.05485359122535,0.7207586783967392,A,1334,Incorrect
2,relearn,73,393,A,47.08222512280787,64.94454476978872,2.3541112561403934,1.0201465236975085,A,701,Correct
2,relearn,73,394,A,21.518374021063796,51.20186619035021,1.0759187010531897,0.8042770333684591,A,3308,Correct
2,relearn,73,395,B,44.3312269771657,16.58132826845951,2.216561348858285,0.26045889537476585,B,1422,Incorrect
2,relearn,73,396,B,65.3819934786894,36.6526536979446,3.26909967393447,0.5757385379601676,B,1330,Correct
2,relearn,73,397,A,44.84561654842892,59.67906989420382,2.242280827421446,0.9374366377635127,A,1038,Incorrect
2,relearn,73,398,B,72.15251337154507,62.231066681461726,3.6076256685772536,0.9775233095576835,A,612,Incorrect
2,relearn,73,399,A,20.625572456982006,39.447554333291166,1.0312786228491004,0.6196407344777587,A,767,Incorrect
2,relearn,73,400,A,36.79738501263636,48.74274279047356,1.8398692506318182,0.7656492133318429,A,1249,Correct
2,relearn,73,401,B,62.80425702834794,33.5241032355965,3.140212851417397,0.5265953822156788,B,1027,Incorrect
2,relearn,73,402,A,50.67292198429087,70.76067967310534,2.5336460992145438,1.1115061571202418,A,1681,Correct
2,relearn,73,403,B,45.54986797484758,33.219692488081066,2.277493398742379,0.5218137093753376,A,889,Incorrect
2,relearn,73,404,B,80.3921120054574,60.28228336266409,4.019605600272871,0.9469118927688186,A,604,Incorrect
2,relearn,73,405,A,56.12222017026843,68.89342237800123,2.8061110085134215,1.0821753481169367,A,920,Correct
2,relearn,73,406,A,18.879463027286615,43.67211710603779,0.9439731513643308,0.6860000113352073,A,1260,Correct
2,relearn,73,407,B,80.8410060652061,61.48487963793712,4.0420503032603055,0.9658022308869796,B,1730,Incorrect
2,relearn,73,408,B,51.66863945650927,41.14018374742487,2.5834319728254633,0.6462284951412209,B,698,Correct
2,relearn,73,409,B,63.38262657269596,55.79565998880251,3.169131328634798,0.8764361776150797,B,577,Incorrect
2,relearn,73,410,B,42.102990476381294,34.34618862132481,2.105149523819065,0.5395086692578169,B,663,Incorrect
2,relearn,73,411,A,15.353741121721587,31.561386480156923,0.7676870560860793,0.4957650995158461,A,1287,Incorrect
2,relearn,73,412,A,44.623897088580236,69.3324143930968,2.231194854429012,1.0890710185649808,B,939,Correct
2,relearn,73,413,B,32.721706497669594,12.367517925515699,1.6360853248834797,0.19426851728970101,B,1023,Incorrect
2,relearn,73,414,B,61.456547414693475,53.535058235407,3.072827370734674,0.840926728309282,A,678,Correct
2,relearn,73,415,A,48.601185454052164,70.60225204854879,2.4300592727026085,1.109017581813079,A,884,Correct
2,relearn,73,416,B,45.469774249959755,15.700068933770279,2.2734887124979877,0.2466161061159302,B,1362,Correct
2,relearn,73,417,B,83.07433983704003,56.65841316426159,4.153716991852002,0.8899882728044973,B,1141,Incorrect
2,relearn,73,418,B,66.57138435038934,34.18060073881263,3.3285692175194668,0.536907620881698,B,2282,Correct
2,relearn,73,419,A,57.24130432123041,84.0768449950209,2.86206521606152,1.3206759928668272,A,629,Correct
2,relearn,73,420,A,46.15184784568239,66.00807151414719,2.3075923922841195,1.0368523627323725,A,639,Correct
2,relearn,73,421,A,46.10602052167053,75.93246238441219,2.3053010260835265,1.192744329979263,A,689,Incorrect
2,relearn,73,422,A,13.794088455333426,35.415386483760614,0.6897044227666713,0.5563035900071279,B,1356,Incorrect
2,relearn,73,423,B,53.24699596032396,33.54700959973194,2.662349798016198,0.5269551945421207,B,1305,Incorrect
2,relearn,73,424,A,18.011174775091625,31.53578267749068,0.9005587387545814,0.49536291592404486,A,1110,Incorrect
2,relearn,73,425,B,44.12511514997135,35.62223837015693,2.2062557574985675,0.5595528118405473,A,9859,Incorrect
2,relearn,73,426,B,47.96869542242258,30.278271136941925,2.3984347711211287,0.47560997083608314,B,1054,Correct
2,relearn,73,427,B,36.54657758112599,19.868805400523076,1.8273288790562991,0.3120984654094425,A,5158,Correct
2,relearn,73,428,A,60.88933773578566,77.38121357222823,3.044466886789283,1.2155012604218751,B,859,Correct
2,relearn,73,429,A,59.902589338258004,87.07215988890266,2.9951294669129003,1.3677262891958624,A,719,Incorrect
2,relearn,73,430,B,86.23485819302735,69.68515891232715,4.311742909651367,1.0946119165160215,B,624,Incorrect
2,relearn,73,431,B,74.49680088672635,47.05880679365761,3.7248400443363177,0.7391980085482809,A,792,Incorrect
2,relearn,73,432,A,22.369474107025695,38.07635671438444,1.1184737053512848,0.5981020126468728,B,634,Correct
2,relearn,73,433,A,31.40175526475413,48.44014283402674,1.5700877632377064,0.7608959843310932,B,511,Correct
2,relearn,73,434,A,68.8839668745573,86.50385538264749,3.444198343727865,1.358799382886596,B,615,Incorrect
2,relearn,73,435,B,38.58350445870595,27.540698350392958,1.9291752229352976,0.43260827806163527,B,1414,Incorrect
2,relearn,73,436,B,86.56642635140433,66.92393339205323,4.328321317570217,1.0512386874690354,B,591,Correct
2,relearn,73,437,A,58.982662979279915,69.3871822763836,2.949133148963996,1.089931310463913,B,498,Correct
2,relearn,73,438,A,53.99607743068574,71.22885779352272,2.699803871534287,1.1188602818386153,B,532,Correct
2,relearn,73,439,A,29.542325648477032,49.30261200987438,1.4771162824238515,0.7744436184650463,B,567,Incorrect
2,relearn,73,440,A,16.16344422467929,45.1587797559033,0.8081722112339645,0.7093524536311265,A,742,Correct
2,relearn,73,441,B,65.49928565697502,32.952549948760165,3.274964282848751,0.5176174441803782,A,697,Incorrect
2,relearn,73,442,A,25.845618893190018,43.55489593816596,1.2922809446595007,0.6841587055360506,A,633,Correct
2,relearn,73,443,B,64.62055620637989,43.68552656855857,3.231027810318994,0.6862106466799267,A,926,Correct
2,relearn,73,444,B,35.76303539679825,20.43142148220712,1.7881517698399125,0.32093601815449285,A,670,Correct
2,relearn,73,445,A,43.61462585661947,68.90945076236402,2.1807312928309734,1.082427121389752,A,1022,Incorrect
2,relearn,73,446,A,18.70164037990102,31.971124784580358,0.935082018995051,0.5022012537512011,A,655,Correct
2,relearn,73,447,A,60.609721930438006,69.21973427492306,3.0304860965219,1.0873010434076795,B,786,Incorrect
2,relearn,73,448,B,74.09810867204351,62.0457350030117,3.7049054336021756,0.9746121263602032,A,1212,Incorrect
2,relearn,73,449,B,46.74878547176913,37.95854523857737,2.3374392735884566,0.5962514343123524,A,889,Correct
2,relearn,73,450,B,43.88962523105779,35.92018142089835,2.1944812615528893,0.5642328903375342,A,486,Incorrect
2,relearn,73,451,B,75.15302694444452,56.67923676663898,3.7576513472222257,0.8903153691857477,A,886,Correct
2,relearn,73,452,A,30.238312415645638,48.75430851193459,1.5119156207822817,0.76583088725972,B,2075,Correct
2,relearn,73,453,A,32.376980079062214,45.748044114799,1.6188490039531107,0.7186085965357716,B,699,Incorrect
2,relearn,73,454,A,59.73390168212606,85.51193851417484,2.9866950841063034,1.3432183891517688,A,2241,Incorrect
2,relearn,73,455,A,31.57835034722769,62.30239789850171,1.5789175173613845,0.9786437776948056,B,2444,Incorrect
2,relearn,73,456,A,50.24543075983834,80.28018698416854,2.512271537991917,1.261038228291394,A,766,Correct
2,relearn,73,457,B,62.52143276178277,51.74367646352338,3.1260716380891385,0.8127877692376606,A,1036,Incorrect
2,relearn,73,458,A,25.68791996407655,40.7660409185075,1.2843959982038273,0.6403514733276203,A,843,Correct
2,relearn,73,459,B,70.39450444700846,49.28480019733878,3.5197252223504227,0.7741638311680015,B,527,Correct
2,relearn,73,460,A,52.13267513991039,60.93642714534285,2.606633756995519,0.9571871592790937,B,506,Incorrect
2,relearn,73,461,B,58.397945332341585,35.17432052055568,2.9198972666170793,0.5525169347119522,A,581,Incorrect
2,relearn,73,462,A,67.68495571637688,84.14429756893091,3.3842477858188436,1.3217355354201341,B,570,Incorrect
2,relearn,73,463,A,56.96111675536744,84.59535090967478,2.8480558377683725,1.3288206647284246,B,515,Incorrect
2,relearn,73,464,A,51.43005846333372,74.33477416261073,2.571502923166686,1.1676479020775712,B,436,Incorrect
2,relearn,73,465,B,65.06087738722768,42.13421491672202,3.2530438693613837,0.6618427002357369,B,320,Incorrect
2,relearn,73,466,B,80.11643905352507,58.55821473382315,4.0058219526762535,0.9198302860755618,B,287,Correct
2,relearn,73,467,B,36.35123226292897,23.390962164975,1.8175616131464483,0.36742437448941134,B,2608,Correct
2,relearn,73,468,A,48.637882942934375,77.41442160561627,2.4318941471467186,1.216022890990535,B,648,Correct
2,relearn,73,469,A,49.9867307489427,67.58625440766157,2.499336537447135,1.061642401653802,B,600,Correct
2,relearn,73,470,A,47.26971808764508,63.16595290689076,2.3634859043822543,0.9922084680464344,B,501,Incorrect
2,relearn,73,471,B,48.27921458134925,37.95449766515066,2.4139607290674627,0.5961878551776413,B,1186,Incorrect
2,relearn,73,472,B,79.73416857549243,66.26114131930647,3.9867084287746217,1.0408275739360415,B,876,Correct
2,relearn,73,473,B,43.13136874116779,19.983373012786334,2.1565684370583895,0.3138980892545704,A,612,Correct
2,relearn,73,474,A,51.597916856286034,59.83352500682073,2.5798958428143015,0.9398628129990457,A,1035,Incorrect
2,relearn,73,475,B,41.31365926658371,19.138195858800568,2.065682963329186,0.3006220775648523,A,895,Correct
2,relearn,73,476,B,81.49807978299182,66.47753883601537,4.074903989149591,1.0442267381797803,B,422,Correct
2,relearn,73,477,A,30.107624278026943,61.767058107266145,1.5053812139013472,0.9702346799182059,A,418,Correct
2,relearn,73,478,A,46.861953664154306,74.067350882935,2.343097683207715,1.1634472270234304,B,297,Correct
2,relearn,73,479,A,33.30295402527228,59.51532643268591,1.6651477012636138,0.9348645614846226,A,248,Correct
2,relearn,73,480,A,30.89054877832168,51.39670331375951,1.5445274389160841,0.8073375277462053,B,288,Incorrect
2,relearn,73,481,B,57.632986498802346,44.79954748958957,2.8816493249401174,0.7037096463872082,A,502,Correct
2,relearn,73,482,B,64.00365522447846,49.02716009627261,3.200182761223923,0.7701168299241035,B,336,Correct
2,relearn,73,483,B,50.479814148605115,33.46702267869668,2.5239907074302557,0.5256987629245824,A,270,Incorrect
2,relearn,73,484,A,32.566396207411536,53.123032811406304,1.628319810370577,0.8344546480836178,B,711,Incorrect
2,relearn,73,485,A,31.2738764534114,44.4580053799914,1.56369382267057,0.6983447154751824,B,742,Correct
2,relearn,73,486,A,19.8675230295389,40.89816769587046,0.993376151476945,0.6424269158931503,A,249,Correct
2,relearn,73,487,A,54.69881009608193,64.80920629591354,2.7349405048040967,1.018020631921137,B,616,Correct
2,relearn,73,488,A,63.6975392099648,82.68530164588518,3.18487696049824,1.2988176810528445,A,642,Incorrect
2,relearn,73,489,A,36.6524394036494,54.772609881690165,1.83262197018247,0.8603661441112876,A,518,Correct
2,relearn,73,490,A,36.0828765441906,52.9663865945346,1.8041438272095298,0.831994055062934,B,221,Incorrect
2,relearn,73,491,B,41.816631696038755,20.636545097054995,2.090831584801938,0.3241580923619122,A,302,Incorrect
2,relearn,73,492,B,69.50364277519438,39.40792942210929,3.475182138759719,0.619018307828418,A,1627,Incorrect
2,relearn,73,493,B,33.67013188275321,22.11815128868928,1.6835065941376604,0.3474311079976693,A,495,Incorrect
2,relearn,73,494,A,57.08237530350711,72.45405022158192,2.8541187651753557,1.1381055594947385,A,773,Incorrect
2,relearn,73,495,A,41.056004198132314,63.72434385589102,2.0528002099066156,1.0009796525624854,A,481,Correct
2,relearn,73,496,A,21.93690740823081,53.78355559836183,1.0968453704115404,0.8448301157587585,A,1073,Correct
2,relearn,73,497,A,19.878015092897215,50.296046637639066,0.9939007546448607,0.7900484531070826,A,555,Incorrect
2,relearn,73,498,A,46.64000473762111,75.02140250679686,2.3320002368810555,1.1784334348867795,B,2397,Correct
2,relearn,73,499,B,44.604308196361316,28.946788141996777,2.230215409818066,0.45469508485958604,B,533,Correct
2,relearn,73,500,A,61.2184398353281,73.082624522757,3.060921991766405,1.1479791815287734,B,1007,Incorrect
2,relearn,73,501,A,52.64426036965684,67.45429113874233,2.632213018482842,1.0595695274729,B,573,Incorrect
2,relearn,73,502,A,11.921263983692803,32.389973476100394,0.5960631991846401,0.5087805136124263,B,594,Incorrect
2,relearn,73,503,A,51.73220929240915,69.82907792409293,2.5866104646204575,1.0968725910663977,B,691,Correct
2,relearn,73,504,B,74.4996752359423,44.11963788430823,3.724983761797115,0.6930296512819234,B,900,Correct
2,relearn,73,505,B,50.34633111546753,28.00688463244363,2.5173165557733763,0.4399311150561089,A,335,Incorrect
2,relearn,73,506,A,33.02467032098596,59.99251161770502,1.6512335160492981,0.9423601688429121,B,2087,Incorrect
2,relearn,73,507,A,27.64275684980415,45.85132096455252,1.3821378424902075,0.7202308654981293,B,1053,Incorrect
2,relearn,73,508,B,73.35572536538108,52.00087455075106,3.667786268269054,0.8168278273444198,B,706,Correct
2,relearn,73,509,A,56.8231407916451,83.87887308352323,2.8411570395822547,1.3175662573529363,A,975,Incorrect
2,relearn,73,510,A,65.77747029459763,84.02106382013235,3.2888735147298815,1.319799784220635,B,1036,Incorrect
2,relearn,73,511,B,47.17359162556162,21.794228226088773,2.3586795812780808,0.342342936428699,B,614,Correct
2,relearn,73,512,B,85.27743516040242,56.23270836411311,4.263871758020121,0.8833013174407752,B,759,Incorrect
2,relearn,73,513,A,59.573510237225896,83.84590817736853,2.978675511861295,1.3170484458179266,A,1106,Correct
2,relearn,73,514,B,60.51457820439043,47.942435444084055,3.0257289102195215,0.753078014931687,B,701,Correct
2,relearn,73,515,B,77.27853233653049,58.62244810167988,3.8639266168265243,0.920839261458432,B,854,Incorrect
2,relearn,73,516,B,66.77078838659223,55.20865346618726,3.338539419329612,0.8672155007197928,A,1585,Incorrect
2,relearn,73,517,A,34.34674962046894,50.989243340238254,1.717337481023447,0.800937161448974,B,609,Correct
2,relearn,73,518,A,25.487255236513143,46.79832278659396,1.274362761825657,0.7351063353334369,B,575,Correct
2,relearn,73,519,A,41.12782905480799,51.21876556473322,2.0563914527403995,0.8045424881205187,B,747,Incorrect
2,relearn,73,520,A,64.40586165651267,86.43194758868057,3.2202930828256338,1.3576698579002846,A,2404,Incorrect
2,relearn,73,521,B,62.58453388686275,52.62687015243353,3.1292266943431377,0.8266609432615457,B,714,Correct
2,relearn,73,522,B,50.105335787888535,24.543170621093612,2.5052667893944265,0.38552322259514266,B,639,Correct
2,relearn,73,523,B,56.124996937325186,26.833432855528407,2.806249846866259,0.42149857764761517,B,603,Correct
2,relearn,73,524,A,22.102647547725365,47.205971026761176,1.1051323773862682,0.7415096589162277,B,962,Incorrect
2,relearn,73,525,A,25.625103858646963,44.7578967743591,1.2812551929323481,0.703055398482284,A,898,Incorrect
2,relearn,73,526,B,77.42961014860543,60.16256147462132,3.8714805074302716,0.9450313057490733,B,720,Incorrect
2,relearn,73,527,A,49.87531111652903,68.61541039514398,2.4937655558264513,1.0778083461021652,A,1497,Incorrect
2,relearn,73,528,A,40.82099067616522,62.57107553978731,2.0410495338082613,0.982864156215039,A,446,Correct
2,relearn,73,529,A,46.81578217361988,56.72451645218267,2.340789108680994,0.8910266208230522,B,649,Incorrect
2,relearn,73,530,B,68.8630024389785,58.37477593824063,3.4431501219489244,0.9169488362126349,A,1539,Correct
2,relearn,73,531,B,75.91117886540343,57.56360004161947,3.7955589432701715,0.9042069150246642,A,745,Correct
2,relearn,73,532,B,76.5921457194125,54.53512610042479,3.8296072859706247,0.8566357575984376,A,483,Incorrect
2,relearn,73,533,B,53.69083347991188,42.278656882422744,2.6845416739955943,0.6641115893273142,A,567,Correct
2,relearn,73,534,A,21.963843627722756,42.15568760817811,1.0981921813861377,0.6621799924843932,A,876,Incorrect
2,relearn,73,535,B,46.02924609020571,32.467776685959514,2.3014623045102853,0.5100026435750218,A,619,Incorrect
2,relearn,73,536,B,81.82215248912453,63.27429658648198,4.091107624456226,0.9939103265857676,A,809,Correct
2,relearn,73,537,A,43.535309322378154,72.789419638821,2.176765466118908,1.1433735299819232,A,2428,Correct
2,relearn,73,538,A,41.81601163500376,53.89838458547503,2.090800581750188,0.8466338452704284,A,514,Incorrect
2,relearn,73,539,B,53.087936777701216,38.42754795649257,2.6543968388850607,0.6036185117779327,B,2125,Incorrect
2,relearn,73,540,A,41.14565460100262,57.75930428113014,2.057282730050131,0.9072810300302797,A,505,Correct
2,relearn,73,541,A,43.06517672303094,62.99676885494813,2.153258836151547,0.9895509311729965,A,464,Correct
2,relearn,73,542,B,67.66649908803606,44.2698808978856,3.383324954401803,0.6953896630204626,B,748,Incorrect
2,relearn,73,543,A,35.53887608959374,47.211608298215424,1.776943804479687,0.7415982089691626,B,916,Correct
2,relearn,73,544,A,35.325418416982494,66.01861390554515,1.7662709208491247,1.0370179622292082,B,2026,Incorrect
2,relearn,73,545,B,67.32805583598496,53.1805194928078,3.366402791799248,0.8353576467634688,B,1016,Incorrect
2,relearn,73,546,A,65.12303073175822,77.3229222215279,3.256151536587911,1.214585622026235,B,676,Correct
2,relearn,73,547,B,55.38937354311955,45.326719754538004,2.769468677155977,0.7119904489608997,B,708,Correct
2,relearn,73,548,B,79.10323122728687,54.418193276974975,3.9551615613643434,0.8547989811028701,B,931,Correct
2,relearn,73,549,A,38.949698779113405,65.37664832941361,1.9474849389556703,1.026933990540046,B,613,Incorrect
2,relearn,73,550,B,56.5509979221899,40.99584926148933,2.827549896109495,0.6439612943378472,B,667,Correct
2,relearn,73,551,B,40.454311484828985,15.974970889593784,2.0227155742414493,0.2509342559402932,A,1161,Incorrect
2,relearn,73,552,A,17.64754091467852,46.0606525249559,0.882377045733926,0.7235190379597681,A,665,Incorrect
2,relearn,73,553,B,76.26812714999409,58.6039371426551,3.813406357499704,0.9205484919940163,B,609,Correct
2,relearn,73,554,A,13.511479637183836,37.46391394913577,0.6755739818591918,0.5884817841866257,B,1902,Incorrect
2,relearn,73,555,A,49.91570651689935,65.46593803432233,2.4957853258449676,1.0283365499449584,B,1993,Incorrect
2,relearn,73,556,A,47.83660272730676,61.50263517728936,2.3918301363653383,0.9660811342469273,B,2161,Correct
2,relearn,73,557,B,70.31912095577104,48.12977056457245,3.515956047788552,0.7560206681231154,B,1575,Correct
2,relearn,73,558,A,26.857155316716703,43.91351845308833,1.3428577658358352,0.6897919348275106,B,1076,Incorrect
2,relearn,73,559,B,73.32549331812078,41.98157376994038,3.666274665906039,0.6594450187089134,B,1486,Correct
2,relearn,73,560,A,54.2986961947108,62.21563201338125,2.7149348097355404,0.9772808623584224,B,1312,Correct
2,relearn,73,561,A,39.966136373068665,49.496477833423995,1.9983068186534332,0.7774888557002743,A,1763,Correct
2,relearn,73,562,B,34.18710022717474,15.431734903064378,1.709355011358737,0.24240112501806124,A,952,Incorrect
2,relearn,73,563,A,34.19837796577023,46.17138231550067,1.7099188982885112,0.7252583774423131,B,2430,Correct
2,relearn,73,564,A,21.09104381360853,34.92042681636846,1.0545521906804265,0.5485287817326159,A,918,Correct
2,relearn,73,565,B,62.60399690803037,36.91043276352136,3.1301998454015183,0.5797877220534934,A,2655,Incorrect
2,relearn,73,566,A,23.525832536091624,46.89098076175302,1.1762916268045813,0.7365618034037181,A,1331,Incorrect
2,relearn,73,567,A,20.545398823956376,51.65860784165695,1.0272699411978188,0.8114515144501279,A,881,Correct
2,relearn,73,568,A,46.25630040506602,77.26072029255457,2.312815020253301,1.2136085564107264,A,976,Correct
2,relearn,73,569,B,66.35937009528116,57.2513588930849,3.3179685047640586,0.899302242532741,B,869,Correct
2,relearn,73,570,A,67.84081564802776,86.68242299941897,3.3920407824013874,1.361604316451688,A,2445,Incorrect
2,relearn,73,571,B,82.31190745849048,54.40506285478859,4.115595372924524,0.8545927289134739,B,2145,Incorrect
2,relearn,73,572,A,28.386308956257075,57.76630929128926,1.4193154478128536,0.9073910644725509,A,665,Incorrect
2,relearn,73,573,B,78.84728705385828,59.226844115476595,3.942364352692914,0.9303330918424458,A,2016,Correct
2,relearn,73,574,B,38.26024276706704,23.04427475159129,1.913012138353352,0.36197862133451975,A,2139,Incorrect
2,relearn,73,575,B,81.99449552504888,66.53703995895857,4.099724776252444,1.0451613796333739,B,1747,Incorrect
2,relearn,73,576,B,56.14668878170074,42.05896896990384,2.807334439085037,0.6606607396670549,B,962,Correct
2,relearn,73,577,B,52.512150779253176,31.172686677483746,2.6256075389626585,0.4896594172931968,A,1121,Incorrect
2,relearn,73,578,A,30.02953040910438,62.24498270953034,1.5014765204552192,0.9777419020154211,A,1363,Correct
2,relearn,73,579,B,68.43979748956127,46.172972859787315,3.4219898744780637,0.7252833616535437,A,1395,Incorrect
2,relearn,73,580,A,59.25671720032172,71.50827439675712,2.9628358600160856,1.1232493475786762,A,1990,Correct
2,relearn,73,581,A,59.270847725898925,80.65387071652631,2.963542386294946,1.2669080386331002,A,650,Correct
2,relearn,73,582,B,62.646118582089294,48.44218371995703,3.132305929104465,0.7609280424923204,A,702,Correct
2,relearn,73,583,A,29.913375180302133,42.680658222229646,1.4956687590151065,0.6704262116066673,A,1543,Correct
2,relearn,73,584,A,49.81234423653579,73.50325624313656,2.4906172118267897,1.1545864491418296,B,2288,Incorrect
2,relearn,73,585,B,78.62181169864334,61.97212548444132,3.931090584932167,0.9734558707463283,B,1094,Correct
2,relearn,73,586,B,77.9737872625434,61.382824751692695,3.8986893631271697,0.9641991564825375,A,1234,Incorrect
2,relearn,73,587,B,38.590522476892986,15.514799215956177,1.9295261238446495,0.24370589619384306,B,1461,Incorrect
2,relearn,73,588,B,42.68199443592572,33.83477251547706,2.1340997217962863,0.5314753638525229,A,725,Incorrect
2,relearn,73,589,B,72.94781012531804,59.91429233736682,3.6473905062659018,0.9411315032605141,A,823,Correct
2,relearn,73,590,B,38.51244966383149,14.557724438393599,1.9256224831915745,0.22867220074320965,B,626,Correct
2,relearn,73,591,A,45.64576915644576,76.94561964160472,2.282288457822288,1.2086589669598995,A,549,Correct
2,relearn,73,592,B,79.08873356465243,62.76729743752047,3.9544366782326215,0.9859464025769988,A,871,Correct
2,relearn,73,593,B,80.40308084705475,62.26797496589256,4.020154042352738,0.9781030635338062,A,489,Incorrect
2,relearn,73,594,B,77.78325838735354,56.80623498573975,3.8891629193676773,0.8923102525464773,A,1898,Incorrect
2,relearn,73,595,B,66.4750912237641,57.09722809804606,3.3237545611882044,0.8968811616658111,A,947,Correct
2,relearn,73,596,B,47.12962144483739,24.942364674618457,2.3564810722418694,0.39179374812469453,A,2225,Incorrect
2,relearn,73,597,A,50.536711751922205,63.71948645550406,2.52683558759611,1.0009033526956295,B,1308,Incorrect
2,relearn,73,598,B,78.31835362979965,52.46425925696708,3.915917681489982,0.8241066572885904,B,637,Correct
2,relearn,73,599,A,19.48227692484266,38.9241410513671,0.9741138462421332,0.6114189778713388,B,3286,Correct
2,relearn,73,600,B,69.4315625427444,51.472096919542835,3.4715781271372204,0.8085218077364881,B,1253,Correct
2,relearn,73,601,B,58.39573575855403,26.986185792587264,2.9197867879277015,0.42389801517200704,B,1166,Correct
2,relearn,73,602,A,59.42649775280693,68.50585802946722,2.971324887640346,1.076087501566198,A,2061,Correct
2,relearn,73,603,A,25.499339048788173,42.93189998187471,1.2749669524394087,0.6743727079385468,B,621,Incorrect
2,relearn,73,604,B,72.6194520849366,59.71508562831471,3.6309726042468298,0.9380023715919947,A,887,Incorrect
2,relearn,73,605,B,71.95224883477903,59.22711190205804,3.5976124417389514,0.9303372982242307,A,1202,Incorrect
2,relearn,73,606,B,76.481572700626,50.95697348393217,3.8240786350313,0.8004302677314558,B,613,Correct
2,relearn,73,607,A,46.1810309221857,61.86109854967225,2.309051546109285,0.9717118637332228,B,632,Incorrect
2,relearn,73,608,A,55.15408526808491,76.81332338768625,2.757704263404246,1.2065808622628609,A,908,Correct
2,relearn,73,609,A,13.491760068308864,32.63432724474912,0.6745880034154432,0.5126188136347454,A,1058,Correct
2,relearn,73,610,A,49.958640519501195,72.00220069809973,2.4979320259750595,1.13100792377724,A,1887,Correct
2,relearn,73,611,B,32.604199262761995,18.627355420526836,1.6302099631380997,0.2925978147246656,B,980,Correct
2,relearn,73,612,A,55.67620048263307,74.43452532731,2.7838100241316535,1.1692147897086025,A,763,Correct
2,relearn,73,613,B,42.20577096741491,15.231140771798174,2.1102885483707454,0.23925019977236556,B,576,Correct
2,relearn,73,614,B,50.14536096099599,36.9329290575471,2.5072680480497995,0.5801410930137149,B,3858,Correct
2,relearn,73,615,B,41.075851088299665,19.291618349986493,2.0537925544149833,0.30303203242087806,B,627,Correct
2,relearn,73,616,A,48.36758597345699,75.42647270838201,2.4183792986728494,1.1847962627342197,A,668,Correct
2,relearn,73,617,A,48.86827889841794,65.47148350611424,2.443413944920897,1.0284236580121688,A,839,Correct
2,relearn,73,618,A,60.60991738795276,69.56014960786652,3.030495869397638,1.092648274953402,A,671,Correct
2,relearn,73,619,B,35.65690299979978,12.360488353122506,1.7828451499899893,0.19415809702475934,B,664,Correct
2,relearn,73,620,B,55.816596664179414,47.98628587173609,2.7908298332089707,0.7537668158385289,A,961,Incorrect
2,relearn,73,621,A,35.42882231595869,66.17189913440211,1.7714411157979344,1.0394257609736124,A,793,Correct
2,relearn,73,622,A,16.449182948226245,38.74443596695638,0.8224591474113123,0.6085961770063517,A,851,Correct
2,relearn,73,623,A,26.541500985643932,38.6841568776336,1.3270750492821966,0.6076493152854439,A,730,Correct
2,relearn,73,624,A,26.34322964691351,58.10173555497964,1.3171614823456756,0.9126599279017045,A,572,Correct
2,relearn,73,625,B,76.44611745985331,46.50330852236196,3.8223058729926658,0.7304722621073597,A,889,Incorrect
2,relearn,73,626,A,38.035386400595165,53.60710131135093,1.9017693200297583,0.8420583782999194,B,1224,Incorrect
2,relearn,73,627,B,76.88292402507325,56.153879154522855,3.8441462012536625,0.8820630711120901,A,678,Incorrect
2,relearn,73,628,B,48.178867064665496,19.432482257117847,2.408943353233275,0.3052447174998772,A,3211,Incorrect
2,relearn,73,629,B,71.24847469243693,57.002898567506975,3.562423734621847,0.8953994368650201,B,940,Correct
2,relearn,73,630,A,15.94031117800673,32.57318817513428,0.7970155589003366,0.5116584433749989,B,1370,Incorrect
2,relearn,73,631,A,38.04037464494588,58.486220429539216,1.902018732247294,0.9186994021883683,A,1792,Correct
2,relearn,73,632,A,27.39218132720893,45.37467111410481,1.3696090663604465,0.7127436671556233,B,2272,Incorrect
2,relearn,73,633,B,68.67764640314037,50.626008464330084,3.4338823201570188,0.7952314813605702,B,1114,Correct
2,relearn,73,634,A,61.99568289091553,77.22866668403333,3.0997841445457768,1.2131050595054695,B,914,Incorrect
2,relearn,73,635,B,77.59957603509818,46.45676050699944,3.8799788017549086,0.7297410875918493,B,1334,Correct
2,relearn,73,636,B,71.53381215493333,55.348803381498485,3.5766906077466665,0.8694169704415076,A,1258,Incorrect
2,relearn,73,637,A,43.46194503056411,52.038139707418466,2.173097251528205,0.8174131870565257,A,2522,Correct
2,relearn,73,638,B,58.30581492226965,42.90137024290368,2.9152907461134823,0.6738931479202098,B,526,Correct
2,relearn,73,639,B,61.99010603242634,28.841074254711728,3.099505301621317,0.4530345350012004,B,628,Correct
2,relearn,73,640,B,58.87341252981462,46.71855069203959,2.943670626490731,0.7338532782023697,B,536,Correct
2,relearn,73,641,B,58.83200092479641,32.02669087793694,2.9416000462398206,0.5030740839045897,B,478,Correct
2,relearn,73,642,A,16.981908878502004,31.67212981212544,0.8490954439251002,0.4975046517065778,B,1428,Incorrect
2,relearn,73,643,A,45.415619463208174,70.05335612296166,2.2707809731604085,1.1003955447760296,B,1098,Incorrect
2,relearn,73,644,B,81.86231894012992,57.92990383608111,4.093115947006496,0.9099608015729781,B,705,Correct
2,relearn,73,645,A,32.272705298132706,42.29586030295614,1.6136352649066352,0.6643818200251359,B,2019,Incorrect
2,relearn,73,646,A,31.56113716333933,46.85944841694712,1.5780568581669663,0.7360664944897546,A,931,Correct
2,relearn,73,647,A,60.66341513966074,71.5911812836604,3.0331707569830373,1.124551645912813,A,1081,Correct
2,relearn,73,648,B,52.08902144785847,21.99639371095337,2.6044510723929237,0.3455185444389992,B,835,Correct
2,relearn,73,649,A,38.90701751222388,49.50180636942109,1.9453508756111941,0.7775725561479886,A,510,Correct
2,relearn,73,650,A,43.36466868266394,60.82706221564562,2.168233434133197,0.9554692589806079,A,1486,Correct
2,relearn,73,651,B,32.65147576344252,19.369039598741335,1.632573788172126,0.3042481625524779,B,1232,Correct
2,relearn,73,652,B,81.7285575954254,53.3424218055915,4.08642787977127,0.8379008023456713,B,1246,Correct
2,relearn,73,653,B,44.01894242672666,19.75385809670452,2.2009471213363327,0.31029287738331085,B,1172,Correct
2,relearn,73,654,B,68.65823307229749,39.108727204635876,3.4329116536148745,0.6143184503866568,B,947,Correct
2,relearn,73,655,A,42.18128511412849,57.35110815756405,2.1090642557064245,0.9008691003151843,A,552,Correct
2,relearn,73,656,A,50.50565641512692,77.6617938129537,2.525282820756346,1.219908604536903,A,601,Correct
2,relearn,73,657,B,49.33391175133444,23.939438593502878,2.466695587566722,0.3760398220820631,B,618,Correct
2,relearn,73,658,B,57.164653923978676,48.60736798715,2.8582326961989337,0.7635227508938308,B,681,Correct
2,relearn,73,659,B,45.10732472003533,36.379946462387736,2.2553662360017666,0.5714548627211364,B,693,Correct
2,relearn,73,660,A,52.233589918079176,64.76072276606259,2.611679495903959,1.0172590544151374,A,763,Correct
2,relearn,73,661,B,72.3049470923683,60.706681350683354,3.6152473546184147,0.9535783207756167,A,1173,Incorrect
2,relearn,73,662,B,46.17802429558031,21.565020624018143,2.3089012147790156,0.3387425518346389,B,750,Correct
2,relearn,73,663,A,37.66441789758854,45.59828118987547,1.8832208948794271,0.7162561260121721,B,798,Incorrect
2,relearn,73,664,A,37.55795989031313,61.287779028762955,1.8778979945156564,0.9627061817579815,A,1022,Correct
2,relearn,73,665,B,83.68807599618931,63.02221209920993,4.184403799809465,0.9899505927192785,B,2380,Correct
2,relearn,73,666,B,41.710304807685276,15.472616954717846,2.0855152403842636,0.2430432987837523,B,686,Correct
2,relearn,73,667,A,46.7600102724459,73.60498254887573,2.338000513622295,1.1561843622157646,A,701,Correct
2,relearn,73,668,A,31.546885068960187,57.74660955404203,1.5773442534480093,0.9070816217234831,B,553,Incorrect
2,relearn,73,669,A,59.053134968312705,67.93258684210957,2.952656748415635,1.0670825788126104,B,723,Incorrect
2,relearn,73,670,B,85.43088873192004,66.1628649962414,4.271544436596002,1.0392838530632262,B,1147,Correct
2,relearn,73,671,A,30.629278314338897,45.25369026288536,1.531463915716945,0.7108433043885429,B,2999,Incorrect
2,relearn,73,672,B,35.22225929074533,24.41728969878841,1.7611129645372665,0.383545889691437,B,1622,Correct
2,relearn,73,673,A,45.92655079301669,69.65173961862614,2.2963275396508345,1.0940869674781248,A,606,Correct
2,relearn,73,674,B,46.596280817118135,29.91742805139343,2.3298140408559065,0.469941860902794,B,811,Correct
2,relearn,73,675,B,50.82556947090415,28.479467841507258,2.5412784735452076,0.4473544347451298,B,2882,Correct
2,relearn,73,676,B,71.68877939249926,45.874656731367224,3.584438969624963,0.720597422866084,B,2862,Correct
2,relearn,73,677,B,58.47369890856331,45.59591415702182,2.9236849454281653,0.7162189447470529,B,585,Correct
2,relearn,73,678,A,45.125382915564984,72.01476608000593,2.256269145778249,1.1312053003346703,A,1218,Correct
2,relearn,73,679,B,70.86510051512808,54.81100467110108,3.5432550257564035,0.860969248053035,B,1719,Correct
2,relearn,73,680,B,65.16192639672285,55.873015990641434,3.258096319836142,0.8776512828505209,B,1097,Correct
2,relearn,73,681,B,52.91346363834088,39.50390825544562,2.6456731819170436,0.6205259398169658,B,1436,Correct
2,relearn,73,682,B,57.092902741533905,33.79519199513568,2.8546451370766954,0.5308536344928743,B,1084,Correct
2,relearn,73,683,A,60.697870037343634,85.05368471182086,3.034893501867182,1.3360201552569948,A,756,Correct
2,relearn,73,684,B,58.84486602239427,40.11195551722347,2.9422433011197135,0.6300771238701491,B,793,Correct
2,relearn,73,685,B,69.5421919084795,56.43565690983943,3.4771095954239746,0.8864892257423278,B,1141,Correct
2,relearn,73,686,B,62.31413845618922,35.368667116297374,3.115706922809461,0.5555697238991136,B,986,Correct
2,relearn,73,687,A,37.06316376835282,69.47518844185775,1.853158188417641,1.091313708078534,A,1900,Correct
2,relearn,73,688,A,53.74003544382365,78.95664618158335,2.6870017721911825,1.2402480979807544,A,1029,Correct
2,relearn,73,689,B,75.18247074132985,57.41263742254679,3.7591235370664924,0.9018355997494371,B,1397,Correct
2,relearn,73,690,A,35.65434704676836,52.44020524846247,1.7827173523384179,0.823728817806553,B,2289,Incorrect
2,relearn,73,691,A,33.12158306139064,44.48136734501034,1.656079153069532,0.6987116843635671,A,715,Correct
2,relearn,73,692,B,80.40756993464919,61.014235773354876,4.02037849673246,0.9584093743498362,A,1225,Incorrect
2,relearn,73,693,A,59.998707049251955,84.9952447311068,2.999935352462598,1.3351021821865583,A,1050,Correct
2,relearn,73,694,B,57.277611137551716,41.758280375840314,2.863880556877586,0.6559375342764138,B,677,Correct
2,relearn,73,695,B,65.1644688396345,44.89683512154794,3.2582234419817246,0.705237836936436,B,779,Correct
2,relearn,73,696,B,50.92891471374854,32.016118528410786,2.5464457356874273,0.5029080138265769,B,1239,Correct
2,relearn,73,697,A,13.004823200597393,39.71881274917287,0.6502411600298698,0.6239016517105506,A,854,Correct
2,relearn,73,698,B,64.96017198184386,47.06978199081438,3.248008599092193,0.7393704065420781,B,1960,Correct
2,relearn,73,699,B,67.79146145479623,56.77183174833624,3.389573072739812,0.8917698477570446,B,1233,Correct
2,relearn,73,700,A,27.90485172387942,47.15606739601891,1.395242586193971,0.7407257745175908,A,794,Correct
2,relearn,73,701,A,46.95522301718567,60.93045888692189,2.347761150859284,0.9570934100950437,B,839,Incorrect
2,relearn,73,702,B,65.92348127728881,41.27692736653989,3.296174063864441,0.648376458887406,B,733,Correct
2,relearn,73,703,B,57.807144010076605,42.56360026729318,2.8903572005038303,0.6685874695503041,B,903,Correct
2,relearn,73,704,A,14.860855978792962,34.370138139701076,0.7430427989396481,0.5398848674127563,A,745,Correct
2,relearn,73,705,B,69.35122884838657,48.37720213470442,3.467561442419328,0.7599073141380791,B,1606,Correct
2,relearn,73,706,A,31.91839205548575,50.942150897727174,1.5959196027742875,0.8001974350918118,A,1017,Correct
2,relearn,73,707,A,46.07924226748678,53.04359259038786,2.303962113374339,0.8332068040098626,B,873,Incorrect
2,relearn,73,708,A,15.807935325759132,45.2255143241167,0.7903967662879566,0.710400717777325,A,638,Correct
2,relearn,73,709,B,85.19638635100553,59.976435402324796,4.259819317550276,0.9421076442422318,B,1927,Correct
2,relearn,73,710,B,74.93532220900063,47.502297359970434,3.7467661104500314,0.7461643420736046,A,1953,Incorrect
2,relearn,73,711,A,26.880623931752126,40.17283786745118,1.3440311965876064,0.6310334615911923,A,771,Correct
2,relearn,73,712,B,67.88468025615131,43.07848508665633,3.394234012807566,0.6766752613800848,B,685,Correct
2,relearn,73,713,B,67.37520344007049,37.649141929134174,3.3687601720035247,0.5913913384926369,B,690,Correct
2,relearn,73,714,B,31.466084560985703,16.648876866912165,1.573304228049285,0.2615199462780615,B,1097,Correct
2,relearn,73,715,A,41.715596919929474,56.73733429136394,2.085779845996474,0.8912279629700862,B,796,Incorrect
2,relearn,73,716,A,34.19024703700134,49.29561135987595,1.709512351850067,0.7743336525120191,A,1012,Correct
2,relearn,73,717,B,74.22943915669461,60.007108891574866,3.7114719578347306,0.9425894622846719,A,950,Incorrect
2,relearn,73,718,B,82.22380660013937,62.643920095633916,4.111190330006968,0.9840083958225476,B,714,Correct
2,relearn,73,719,A,36.288119938738525,63.651574447857875,1.8144059969369264,0.9998365933740704,A,925,Correct
2,relearn,73,720,A,40.5609450204693,67.34028074918915,2.0280472510234646,1.057778656461634,A,847,Correct
2,relearn,73,721,B,66.08068098857842,55.37925987421644,3.304034049428921,0.8698953799103919,B,858,Correct
2,relearn,73,722,B,76.66740071198728,57.5025235296374,3.8333700355993643,0.9032475274179154,B,625,Correct
2,relearn,73,723,A,32.06963059157156,49.20888537361683,1.6034815295785778,0.7729713639054844,A,849,Correct
2,relearn,73,724,B,55.8570810588179,37.38500184311629,2.792854052940895,0.5872422357238751,B,614,Correct
2,relearn,73,725,B,50.19689543419671,20.22992554371031,2.5098447717098353,0.3177709273539441,A,689,Incorrect
2,relearn,73,726,B,70.6942654216274,48.913661861363664,3.5347132710813702,0.7683340038191766,B,1683,Correct
2,relearn,73,727,A,16.907876452297103,45.59381758498741,0.8453938226148552,0.7161860118705478,A,491,Correct
2,relearn,73,728,A,39.33939024554519,68.21532921693546,1.9669695122772595,1.0715238856506681,A,963,Correct
2,relearn,73,729,A,52.46223810746265,63.021485283549694,2.6231119053731327,0.9899391759255849,B,608,Incorrect
2,relearn,73,730,B,35.37643679991619,19.485028373554997,1.7688218399958096,0.30607010996674533,B,979,Correct
2,relearn,73,731,B,50.841232007161565,39.16950402872115,2.5420616003580783,0.615273130506931,B,1138,Correct
2,relearn,73,732,A,62.16870844539309,72.65837620185495,3.1084354222696544,1.1413151044875547,A,1059,Correct
2,relearn,73,733,B,43.853254845355195,28.516055426266846,2.1926627422677596,0.44792915118259635,B,1103,Correct
2,relearn,73,734,B,51.43335301286569,20.562761054227188,2.5716676506432843,0.3229990953274122,B,687,Correct
2,relearn,73,735,A,41.946002831925576,74.12867054871792,2.097300141596279,1.1644104340811512,A,1782,Correct
2,relearn,73,736,B,59.703562031772336,49.71155535862377,2.9851781015886165,0.7808672855658737,B,653,Correct
2,relearn,73,737,A,24.65979027542059,44.69759737861119,1.2329895137710296,0.7021082177887966,B,1192,Incorrect
2,relearn,73,738,B,43.80044707516745,32.82610205630644,2.1900223537583723,0.5156312053304055,B,713,Correct
2,relearn,73,739,B,43.544452167769194,28.97440398799513,2.1772226083884596,0.4551288735541416,B,1771,Correct
2,relearn,73,740,A,51.68575726932641,74.70573861681285,2.5842878634663204,1.1734749980978927,B,497,Incorrect
2,relearn,73,741,B,58.539091933674584,34.43592538771705,2.926954596683729,0.5409182510880907,B,811,Correct
2,relearn,73,742,B,36.40027694964841,15.96796822445517,1.8200138474824203,0.25082425833351807,A,2742,Incorrect
2,relearn,73,743,A,18.688765478846012,36.620738702099914,0.9344382739423005,0.5752372183777427,A,742,Correct
2,relearn,73,744,A,28.636458861181914,51.897810598955445,1.4318229430590959,0.8152089025753646,B,781,Incorrect
2,relearn,73,745,A,62.829489042282106,82.42692119963819,3.141474452114105,1.2947590504940405,B,484,Incorrect
2,relearn,73,746,A,51.418272411334144,69.12966625458043,2.5709136205667074,1.0858862582525206,B,587,Incorrect
2,relearn,73,747,A,12.749070846292398,38.885818197598816,0.6374535423146199,0.6108170038920236,A,1049,Correct
2,relearn,73,748,A,56.962222966216515,83.45382664770807,2.848111148310826,1.3108896435519788,A,861,Correct
2,relearn,73,749,B,47.28457371304823,23.36446465689109,2.364228685652412,0.36700815260573705,B,658,Correct
2,relearn,73,750,B,77.6246500176416,60.11184590514148,3.88123250088208,0.9442346674465707,B,1054,Correct
2,relearn,73,751,B,43.75195104499676,28.878941852806854,2.187597552249838,0.4536293578411241,A,1161,Incorrect
2,relearn,73,752,A,51.616686979783324,73.86097325830657,2.580834348989166,1.1602054548764402,B,1220,Incorrect
2,relearn,73,753,B,54.2727436671773,35.619093763037306,2.7136371833588653,0.5595034164674201,B,1703,Correct
2,relearn,73,754,A,10.814191590655732,35.079933442781936,0.5407095795327865,0.5510343059613132,A,819,Correct
2,relearn,73,755,B,35.26308896939469,23.849807768032267,1.7631544484697343,0.3746319043678948,A,784,Incorrect
2,relearn,73,756,B,62.33797031950682,54.05941110357554,3.1168985159753415,0.849163243901917,B,692,Correct
2,relearn,73,757,B,74.37159020469458,51.4589475546788,3.718579510234729,0.8083152579962067,B,615,Correct
2,relearn,73,758,A,66.35323318181052,80.62318080912289,3.3176616590905263,1.2664259626949101,B,723,Incorrect
2,relearn,73,759,A,59.571268672571335,74.15386347314069,2.978563433628567,1.1648061636125964,A,601,Correct
2,relearn,73,760,B,62.746008418911764,40.403881909104776,3.1373004209455884,0.6346626929107656,B,714,Correct
2,relearn,73,761,A,68.44312538089915,89.40266071729683,3.422156269044957,1.4043337106042024,A,437,Correct
2,relearn,73,762,B,52.28996638206988,27.858514944655116,2.614498319103494,0.43760052945024996,B,484,Correct
2,relearn,73,763,B,33.414140292151586,14.984314960893375,1.6707070146075793,0.23537306900109128,A,2133,Incorrect
2,relearn,73,764,B,85.41569993630424,62.785714083152136,4.270784996815212,0.9862356905700997,B,989,Correct
2,relearn,73,765,B,81.49232169142306,56.438390388492316,4.0746160845711525,0.8865321631246013,B,1187,Correct
2,relearn,73,766,A,37.09986699350942,54.490311895010805,1.854993349675471,0.8559318177059124,B,1293,Incorrect
2,relearn,73,767,A,47.948437212601306,78.28391897129524,2.3974218606300655,1.2296809236721988,B,889,Incorrect
2,relearn,73,768,B,45.54281173040642,35.23116038593324,2.277140586520321,0.5534097732294581,B,689,Correct
2,relearn,73,769,B,60.84459523939645,28.584202763849774,3.0422297619698226,0.44899960705815756,B,722,Correct
2,relearn,73,770,B,52.501611883653815,38.47544700826318,2.6250805941826907,0.604370908323715,B,754,Correct
2,relearn,73,771,A,47.49359339532355,69.3659200715579,2.3746796697661776,1.0895973245315154,A,1478,Correct
2,relearn,73,772,A,51.432077916475876,71.67858003587499,2.5716038958237935,1.1259245023022644,A,1226,Correct
2,relearn,73,773,B,86.14797582661144,67.10676679095965,4.307398791330573,1.0541106277832117,A,667,Incorrect
2,relearn,73,774,A,19.29444044447221,50.33695180073477,0.9647220222236106,0.7906909899064591,A,715,Correct
2,relearn,73,775,B,69.55368499574462,55.07451119322876,3.477684249787231,0.8651083988234815,A,1687,Incorrect
2,relearn,73,776,B,71.61871332955975,59.687000502286544,3.5809356664779877,0.9375612114639684,A,551,Incorrect
2,relearn,73,777,B,64.98348596356135,32.77524406587351,3.2491742981780676,0.5148323298848034,A,1142,Incorrect
2,relearn,73,778,B,71.56129488544681,55.06406344030273,3.578064744272341,0.8649442859042868,B,867,Correct
2,relearn,73,779,B,60.009313565558124,45.93162184960419,3.0004656782779064,0.7214922288509047,B,522,Correct
2,relearn,73,780,A,42.741739296224615,53.08199161531847,2.1370869648112305,0.8338099744829975,A,1632,Correct
2,relearn,73,781,A,39.758165411735945,57.71478347661629,1.9879082705867972,0.9065816988683165,A,775,Correct
2,relearn,73,782,B,50.87877618612172,42.63550810391261,2.543938809306086,0.6697169952065998,A,1498,Incorrect
2,relearn,73,783,A,28.66011456004334,58.20141399761329,1.4330057280021669,0.9142256732172003,A,500,Correct
2,relearn,73,784,A,54.121079892004715,65.51758955722424,2.7060539946002358,1.0291478901694353,B,468,Incorrect
2,relearn,73,785,B,40.116026828900715,27.902259844518447,2.0058013414450357,0.4382876727304632,B,1753,Correct
2,relearn,73,786,A,36.04815487542936,48.61676095492055,1.802407743771468,0.7636702952865475,A,2920,Correct
2,relearn,73,787,B,71.33892826905503,49.71756392507908,3.5669464134527518,0.7809616679070468,B,2208,Correct
2,relearn,73,788,A,29.95875066518132,61.39757000509195,1.497937533259066,0.9644307743813096,A,901,Correct
2,relearn,73,789,B,52.117277523681985,41.35455409254467,2.605863876184099,0.6495958166481002,B,761,Correct
2,relearn,73,790,B,39.68125148716589,17.28006205053832,1.9840625743582945,0.2714345799577348,B,667,Correct
2,relearn,73,791,A,57.71169941202055,82.18371802908601,2.8855849706010277,1.290938824024358,A,1435,Correct
2,relearn,73,792,A,19.650059421837707,48.45044004436927,0.9825029710918853,0.7610577325329162,A,1989,Correct
2,relearn,73,793,A,24.840063323332913,53.31905670142265,1.2420031661666457,0.8375337841476351,A,1459,Correct
2,relearn,73,794,A,30.558850621996445,56.43944559480561,1.5279425310998223,0.8865487382666106,A,557,Correct
2,relearn,73,795,A,56.55430259859692,70.5621497774256,2.827715129929846,1.1083876568113147,A,3138,Correct
2,relearn,73,796,B,83.27705983282803,65.69820008410603,4.163852991641402,1.0319849136914994,A,986,Incorrect
2,relearn,73,797,B,72.29782847719343,53.70189230746057,3.614891423859672,0.8435473517849417,B,1348,Correct
2,relearn,73,798,B,56.65847938862579,25.110459594846226,2.8329239694312895,0.3944341769571612,B,1428,Correct
2,relearn,73,799,B,65.69855893027186,33.57061828960774,3.284927946513593,0.527326038975494,B,1646,Correct
2,relearn,73,800,A,46.07909955187816,55.05932052038876,2.303954977593908,0.8648697842924954,B,3569,Incorrect
2,relearn,73,801,B,64.215026752342,33.38882928876075,3.2107513376170997,0.5244705040276725,B,1010,Correct
2,relearn,73,802,A,45.17068104237914,57.85741123769314,2.2585340521189567,0.9088220905003016,A,824,Correct
2,relearn,73,803,A,48.30614714866994,76.05762435815141,2.415307357433497,1.194710369665303,A,817,Correct
2,relearn,73,804,B,73.52515279219966,58.080561040033075,3.6762576396099833,0.9123273193987071,A,2360,Incorrect
2,relearn,73,805,A,25.74443428839598,48.77915568490002,1.287221714419799,0.7662211857399736,A,1046,Correct
2,relearn,73,806,B,57.3068469371162,29.06862596209242,2.86534234685581,0.4566089088622953,B,699,Correct
2,relearn,73,807,B,31.309485740402383,12.641256174283317,1.5654742870201193,0.1985683876463754,B,1107,Correct
2,relearn,73,808,A,41.773934535203956,58.6922458837028,2.088696726760198,0.9219356424546324,A,850,Correct
2,relearn,73,809,B,71.81092768179846,39.33273527853263,3.590546384089923,0.6178371609831511,B,1926,Correct
2,relearn,73,810,A,20.91694794391715,43.43033238077505,1.0458473971958575,0.6822020657520291,A,679,Correct
2,relearn,73,811,A,65.94519111770958,86.92520519965622,3.297259555885479,1.3654179303351264,A,1066,Correct
2,relearn,73,812,B,80.14650788895285,58.12937771765833,4.007325394447642,0.9130941299777081,A,2379,Incorrect
2,relearn,73,813,A,33.54176087748616,57.23937711179794,1.677088043874308,0.8991140331524008,A,1273,Correct
2,relearn,73,814,A,35.351831168262244,61.21287782819123,1.767591558413112,0.9615296364506754,A,2137,Correct
2,relearn,73,815,A,50.92997558547644,62.316996441491604,2.546498779273822,0.9788730910718565,A,714,Correct
2,relearn,73,816,A,21.69509334512138,50.23645887557167,1.0847546672560688,0.7891124507293087,A,789,Correct
2,relearn,73,817,A,34.5145735505633,60.89876815037778,1.7257286775281648,0.9565956131694744,A,2215,Correct
2,relearn,73,818,A,39.971352720381056,67.68501430909473,1.9985676360190527,1.0631937185578602,A,681,Correct
2,relearn,73,819,A,32.601731585622694,61.363157360841974,1.6300865792811348,0.963890221829478,A,831,Correct
2,relearn,73,820,A,49.79271720956447,57.591887263608456,2.4896358604782236,0.9046512496686194,A,1384,Correct
2,relearn,73,821,A,20.89333550916093,45.887867266445085,1.0446667754580465,0.7208049334658371,B,1744,Incorrect
2,relearn,73,822,A,49.55411262659236,57.751159387785286,2.477705631329618,0.9071530903447974,B,887,Incorrect
2,relearn,73,823,A,15.675708646308017,42.869788074155494,0.7837854323154008,0.6733970563735912,A,877,Correct
2,relearn,73,824,B,35.179848670010074,17.37839393595754,1.7589924335005036,0.2729791736019681,B,873,Correct
2,relearn,73,825,A,19.203674495184252,45.44329947165907,0.9601837247592127,0.7138216788752252,A,818,Correct
2,relearn,73,826,B,78.40440018568138,61.5771213009626,3.920220009284069,0.9672511595415584,A,871,Incorrect
2,relearn,73,827,B,45.59091722721206,21.554413704170134,2.279545861360603,0.3385759387272803,B,775,Correct
2,relearn,73,828,B,65.10241802534973,40.80066478931998,3.2551209012674867,0.640895343818537,B,5006,Correct
2,relearn,73,829,B,46.95591358911179,33.934491446142246,2.347795679455589,0.5330417451525308,B,793,Correct
2,relearn,73,830,B,79.79676800696245,63.512539636542954,3.9898384003481224,0.9976526396649695,A,1154,Incorrect
2,relearn,73,831,A,22.30155643269331,45.69303546226417,1.1150778216346655,0.7177445226423349,A,2095,Correct
2,relearn,73,832,A,17.452681399770572,33.398979955226494,0.8726340699885285,0.5246299503236617,A,3577,Correct
2,relearn,73,833,A,60.705142433689275,77.39946268128679,3.035257121684464,1.2157879167566397,A,1942,Correct
2,relearn,73,834,A,55.42550875691765,84.59559242012004,2.771275437845883,1.3288244583656275,A,583,Correct
2,relearn,73,835,A,58.03078092582825,68.38846254208863,2.9015390462914126,1.074243457562632,A,3063,Correct
2,relearn,73,836,B,66.90535056092976,56.53371726850213,3.345267528046488,0.8880295542542436,B,874,Correct
2,relearn,73,837,B,60.44492088163992,50.86285861638735,3.0222460440819963,0.798951914849094,B,663,Correct
2,relearn,73,838,A,21.261553382605644,51.98114730051003,1.0630776691302821,0.8165179524222561,A,1333,Correct
2,relearn,73,839,A,64.03122199248743,89.01911303086477,3.2015610996243713,1.398308957634221,A,2153,Correct
2,relearn,73,840,B,35.459186882468984,17.229000669218063,1.7729593441234492,0.27063250965554553,B,742,Correct
2,relearn,73,841,A,32.80626327445428,61.15153171382111,1.6403131637227142,0.9605660139395182,A,840,Correct
2,relearn,73,842,A,42.27473791521642,50.85528769207877,2.113736895760821,0.7988329910481503,B,1814,Incorrect
2,relearn,73,843,B,82.78644163438776,67.65436440232816,4.139322081719388,1.0627122709482046,B,761,Correct
2,relearn,73,844,B,68.5261873733495,49.335499396912745,3.426309368667475,0.7749602123326238,B,669,Correct
2,relearn,73,845,A,18.634689634730012,37.715790316518266,0.9317344817365005,0.5924382489135342,A,1157,Correct
2,relearn,73,846,B,39.39693917066913,24.268695406766064,1.9698469585334564,0.3812117760105231,B,531,Correct
2,relearn,73,847,B,61.520266910076174,44.27202125708473,3.076013345503809,0.6954232837041427,A,642,Incorrect
2,relearn,73,848,A,32.03755302113657,62.84256842415678,1.6018776510568284,0.9871287564702241,A,3092,Correct
2,relearn,73,849,A,27.874587743050117,60.85087962224856,1.393729387152506,0.9558433819286647,A,694,Correct
2,relearn,73,850,A,33.69534232104904,53.21272033724165,1.6847671160524522,0.8358634564450327,A,630,Correct
2,relearn,73,851,A,11.000963046049925,35.87083486185534,0.5500481523024963,0.563457756400687,A,1089,Correct
2,relearn,73,852,B,58.944057857748774,38.716701884965495,2.9472028928874385,0.6081605310651684,A,1041,Incorrect
2,relearn,73,853,A,38.6514265368108,64.10025110942573,1.93257132684054,1.0068843898931643,A,889,Correct
2,relearn,73,854,B,52.83980275379395,22.78909945202308,2.6419901376896973,0.35797033710201437,B,712,Correct
2,relearn,73,855,B,37.881013039938345,20.860116274985593,1.8940506519969174,0.3276699402126181,B,605,Correct
2,relearn,73,856,B,82.72751745477419,52.11252970970972,4.13637587273871,0.8185817024800193,A,794,Incorrect
2,relearn,73,857,B,70.62792819331682,45.2154831321136,3.5313964096658412,0.7102431481818064,B,679,Correct
2,relearn,73,858,A,29.33435615810535,43.999071987112984,1.4667178079052676,0.691135806597413,A,903,Correct
2,relearn,73,859,A,34.37405558670025,58.86761679710098,1.7187027793350125,0.9246903623205577,A,918,Correct
2,relearn,73,860,A,55.940750949332504,68.13491335880452,2.7970375474666254,1.0702607163049866,B,949,Incorrect
2,relearn,73,861,B,36.78157333730262,11.680976180985507,1.839078666865131,0.18348434478470713,B,722,Correct
2,relearn,73,862,B,83.73898201993725,69.13543053430696,4.186949100996863,1.0859768033467312,A,2111,Incorrect
2,relearn,73,863,A,58.71121678167573,85.64376476293054,2.935560839083786,1.345289111024975,A,861,Correct
2,relearn,73,864,A,58.27031312050089,76.88192983246167,2.9135156560250444,1.2076585297773375,B,1409,Incorrect
2,relearn,73,865,A,38.54462978100705,61.52135651145654,1.9272314890503526,0.9663752082763523,B,1292,Incorrect
2,relearn,73,866,B,57.527559244874105,31.640864568431404,2.876377962243705,0.4970135384070684,B,1286,Correct
2,relearn,73,867,B,60.59623366240181,35.774402043060064,3.0298116831200907,0.5619429932252259,B,898,Correct
2,relearn,73,868,B,83.03183024540378,68.33109640517961,4.15159151227019,1.0733423523912409,B,617,Correct
2,relearn,73,869,A,48.598203179862324,62.070997260766866,2.429910158993116,0.9750089449770867,A,738,Correct
2,relearn,73,870,B,73.21801384941963,47.61442423090675,3.660900692470982,0.7479256268436225,B,741,Correct
2,relearn,73,871,B,83.25331574195648,57.90370329944312,4.162665787097825,0.9095492445058678,B,826,Correct
2,relearn,73,872,A,44.09655624771132,56.92574430164481,2.204827812385566,0.8941875004908918,A,750,Correct
2,relearn,73,873,A,10.698813752023707,32.779573960583704,0.5349406876011854,0.5149003437118652,A,622,Correct
2,relearn,73,874,B,47.97951212102585,38.579663355011725,2.3989756060512923,0.6060079348703609,B,3307,Correct
2,relearn,73,875,B,34.36543558161736,13.317001455519542,1.7182717790808681,0.20918296970252387,B,1088,Correct
2,relearn,73,876,A,32.2108687076544,55.09289499385352,1.6105434353827202,0.8653971708884204,A,560,Correct
2,relearn,73,877,B,55.814737752031206,34.09981732809084,2.79073688760156,0.5356386780334207,B,2020,Correct
2,relearn,73,878,A,27.21693467045084,38.15512075882421,1.3608467335225418,0.5993392353637677,A,625,Correct
2,relearn,73,879,A,46.99381231966339,72.0662740816543,2.3496906159831696,1.1320143861325684,A,900,Correct
2,relearn,73,880,B,58.35737153653775,39.6995187424676,2.917868576826887,0.6235985821619326,A,637,Incorrect
2,relearn,73,881,A,47.015629842786055,55.3312981248889,2.3507814921393027,0.8691419985136883,A,684,Correct
2,relearn,73,882,A,16.62642944643147,40.92897966334668,0.8313214723215735,0.6429109091464799,A,742,Correct
2,relearn,73,883,A,33.84704696892302,65.13453793923829,1.692352348446151,1.023130929424383,A,902,Correct
2,relearn,73,884,B,49.083218926546586,34.980497796340856,2.4541609463273293,0.5494723744794919,B,872,Correct
2,relearn,73,885,A,22.383761163677026,38.31783862725558,1.1191880581838511,0.6018952016641267,A,592,Correct
2,relearn,73,886,A,40.10992880704429,61.52588040582432,2.0054964403522146,0.9664462694429093,A,629,Correct
2,relearn,73,887,A,61.52480530972582,72.46754419612444,3.076240265486291,1.138317522351191,A,453,Correct
2,relearn,73,888,B,86.92839885521666,60.4396632014946,4.346419942760833,0.9493840094962839,A,395,Incorrect
2,relearn,73,889,B,68.31387957930012,38.788279901389174,3.415693978965006,0.6092848759179443,B,1609,Correct
2,relearn,73,890,A,44.44177143380164,58.05696336932878,2.2220885716900822,0.9119566480540752,B,833,Incorrect
2,relearn,73,891,A,20.27292472945673,40.95709203590049,1.0136462364728365,0.64335249726193,A,718,Correct
2,relearn,73,892,B,38.42132512809786,29.380867436705536,1.921066256404893,0.46151358647624846,A,1128,Incorrect
2,relearn,73,893,A,46.474025753117324,69.92764638915499,2.3237012876558665,1.0984209008949706,B,1290,Incorrect
2,relearn,73,894,A,44.10861858333037,66.78687850263222,2.2054309291665186,1.0490858343003173,B,610,Incorrect
2,relearn,73,895,B,56.3373064997987,38.09946685013636,2.8168653249899354,0.5984650258103812,B,797,Correct
2,relearn,73,896,A,34.35705798105383,52.85292518118776,1.7178528990526913,0.8302118073497522,A,1983,Correct
2,relearn,73,897,B,65.72379322156623,46.179945627971705,3.286189661078311,0.72539288964006,B,697,Correct
2,relearn,73,898,A,51.03271800222141,64.77567187718195,2.55163590011107,1.017493874503489,A,639,Correct
