experiment,condition,subject,trial,cat,x,y,xt,yt,resp,rt,fb
2,new_learn,70,0,A,26.917470721755727,38.67651834396119,1.3458735360877865,0.6075293294790967,A,4800,Correct
2,new_learn,70,1,B,58.78698716826714,46.59535807803532,2.9393493584133568,0.7319181731467078,B,526,Correct
2,new_learn,70,2,B,51.08173245768933,25.433501415410017,2.5540866228844665,0.39950850600858856,B,979,Correct
2,new_learn,70,3,B,40.61177850946808,14.764514150752508,2.030588925473404,0.23192044594913308,B,698,Correct
2,new_learn,70,4,A,61.70143922644219,83.32561917525489,3.085071961322109,1.3088757652840075,B,2006,Incorrect
2,new_learn,70,5,B,65.8923986976139,50.966730154516156,3.2946199348806946,0.8005835251546066,B,736,Correct
2,new_learn,70,6,A,35.438184246198105,50.16313301989112,1.7719092123099052,0.7879606508816875,A,385,Correct
2,new_learn,70,7,B,32.30122697475055,16.18324476778253,1.6150613487375274,0.25420581436855527,A,647,Incorrect
2,new_learn,70,8,A,49.40029324297649,58.26602490153216,2.4700146621488246,0.9152405789226671,B,756,Incorrect
2,new_learn,70,9,B,68.12705046076418,39.9122926460172,3.406352523038209,0.6269408268232678,B,744,Correct
2,new_learn,70,10,B,65.59118868132883,40.2020251201335,3.279559434066442,0.6314919338842184,B,733,Correct
2,new_learn,70,11,A,59.34931656536531,70.80319782847116,2.9674658282682653,1.1121740307429488,B,1452,Incorrect
2,new_learn,70,12,A,19.543215960156815,35.28818004489742,0.9771607980078407,0.5543054359380184,A,1311,Correct
2,new_learn,70,13,B,73.04118026009799,51.23500310847165,3.6520590130048993,0.8047975468611238,B,1855,Correct
2,new_learn,70,14,B,57.05488094991949,42.443926640420024,2.8527440474959747,0.6667076406152382,B,1419,Correct
2,new_learn,70,15,B,59.29344562344629,46.115974876280305,2.9646722811723145,0.7243880394222684,B,2599,Correct
2,new_learn,70,16,A,53.42937431685239,80.94160187157503,2.6714687158426194,1.2714277090476498,B,3200,Incorrect
2,new_learn,70,17,A,58.035256518152664,71.01189212204366,2.901762825907633,1.1154521930406163,B,1415,Incorrect
2,new_learn,70,18,B,36.65486538962463,11.05024746438109,1.8327432694812316,0.17357688127224435,A,671,Incorrect
2,new_learn,70,19,A,21.810541211223015,37.747631588977484,1.0905270605611508,0.5929384104517283,A,1279,Correct
2,new_learn,70,20,B,58.80201361634545,42.19608623855065,2.9401006808172725,0.6628145726863605,B,1463,Correct
2,new_learn,70,21,A,36.346784885824626,61.868633184611696,1.8173392442912313,0.9718302175020889,B,1069,Incorrect
2,new_learn,70,22,A,60.437306540165395,80.38285467023046,3.02186532700827,1.26265092853286,A,1305,Correct
2,new_learn,70,23,B,73.91152285559934,55.52816269972789,3.6955761427799674,0.8722343400240194,A,1746,Incorrect
2,new_learn,70,24,A,56.5995002393003,82.16621228416504,2.829975011965015,1.2906638444261613,A,2075,Correct
2,new_learn,70,25,B,48.14572560411659,17.60787407639624,2.4072862802058297,0.27658383921870294,B,1348,Correct
2,new_learn,70,26,A,44.44332845004473,52.06461839611066,2.2221664225022364,0.8178291133258864,A,1122,Correct
2,new_learn,70,27,A,50.469484024957275,59.39879154032294,2.5234742012478635,0.9330340356759506,A,3220,Correct
2,new_learn,70,28,B,55.39077525674301,30.981607821491988,2.769538762837151,0.4866579576419966,A,1960,Incorrect
2,new_learn,70,29,A,51.59514832894924,72.99867114423164,2.579757416447462,1.1466604449426767,A,810,Correct
2,new_learn,70,30,B,37.02105406985133,12.833934658667403,1.8510527034925668,0.20159497420160474,A,1830,Incorrect
2,new_learn,70,31,B,83.66098952511597,58.36396641622329,4.183049476255798,0.9167790406378425,A,1934,Incorrect
2,new_learn,70,32,A,47.93720338077345,57.18522435486979,2.396860169038672,0.8982634036357153,A,1957,Correct
2,new_learn,70,33,B,50.25335493957068,38.55476527548775,2.5126677469785337,0.6056168367517559,B,1045,Correct
2,new_learn,70,34,A,23.208158653750992,35.50629416887038,1.1604079326875496,0.5577315645856066,A,1925,Correct
2,new_learn,70,35,A,45.70734632311329,53.46924631280559,2.2853673161556647,0.8398929570464658,B,1256,Incorrect
2,new_learn,70,36,A,26.269024568805378,47.89756401177103,1.3134512284402688,0.7523731761211337,A,971,Correct
2,new_learn,70,37,A,43.22667712346058,56.20817144640474,2.161333856173029,0.8829158924387035,A,848,Correct
2,new_learn,70,38,A,51.67705734118212,78.98752494871187,2.583852867059106,1.2407331405205684,B,1674,Incorrect
2,new_learn,70,39,A,56.51262451944535,64.90928787719055,2.8256312259722676,1.0195927097236341,A,1009,Correct
2,new_learn,70,40,A,22.517669476416707,37.102860542164436,1.1258834738208352,0.582810370532152,A,845,Correct
2,new_learn,70,41,A,20.126066991288532,43.177199895809956,1.0063033495644265,0.6782258699762728,A,848,Correct
2,new_learn,70,42,B,83.07716554748838,60.047226749701096,4.153858277374419,0.9432196321265074,A,1089,Incorrect
2,new_learn,70,43,A,29.673579727870553,49.36441706307987,1.4836789863935278,0.7754144499705719,A,865,Correct
2,new_learn,70,44,A,46.69516933498129,55.98992869630817,2.3347584667490646,0.8794877433366903,A,1836,Correct
2,new_learn,70,45,B,82.45500683952847,63.36000225736258,4.122750341976423,0.995256588115815,A,1917,Incorrect
2,new_learn,70,46,A,28.412967483600713,54.719534374931484,1.4206483741800358,0.8595324360006944,A,723,Correct
2,new_learn,70,47,B,57.077471771637164,34.89764672422727,2.8538735885818585,0.5481709528820216,B,4862,Correct
2,new_learn,70,48,A,49.63712501541899,80.41040323166521,2.4818562507709494,1.2630836603239621,A,3892,Correct
2,new_learn,70,49,B,67.29217190652503,53.779880252662295,3.3646085953262515,0.8447723835635134,A,3211,Incorrect
2,new_learn,70,50,A,41.513052561083676,51.28009954153481,2.0756526280541836,0.8055059199751954,A,2562,Correct
2,new_learn,70,51,A,50.53058123620667,64.72349340812544,2.5265290618103338,1.0166742570281713,A,7930,Correct
2,new_learn,70,52,B,78.33805791733461,64.04606844215547,3.9169028958667305,1.0060332905459235,A,2308,Incorrect
2,new_learn,70,53,B,69.6740914343168,51.27730761281666,3.4837045717158395,0.8054620644614439,A,1142,Incorrect
2,new_learn,70,54,B,67.99413671266917,53.04113986750373,3.3997068356334585,0.833168276728892,B,1328,Correct
2,new_learn,70,55,A,37.61078601100094,61.063631778267215,1.8805393005500468,0.9591852849805826,A,892,Correct
2,new_learn,70,56,A,41.91129012547588,55.18467539294697,2.095564506273794,0.8668388540260982,A,1204,Correct
2,new_learn,70,57,A,51.18988786927697,64.59049875124353,2.5594943934638485,1.0145851818430367,A,4883,Correct
2,new_learn,70,58,B,47.565870458400404,37.113583040804976,2.3782935229200204,0.5829787991469383,B,6408,Correct
2,new_learn,70,59,B,78.0622110786071,58.41392879764666,3.903110553930355,0.91756384789002,B,1255,Correct
2,new_learn,70,60,B,70.89380088031805,40.968859168235284,3.5446900440159026,0.643537334944414,B,1090,Correct
2,new_learn,70,61,B,35.208198262942076,11.82643481482473,1.7604099131471036,0.18576920366205968,A,689,Incorrect
2,new_learn,70,62,A,34.081438358040316,43.9100051553462,1.7040719179020158,0.6897367480756278,A,975,Correct
2,new_learn,70,63,B,72.29602673701265,39.28488116657048,3.6148013368506327,0.6170854703502292,B,2917,Correct
2,new_learn,70,64,B,52.553518592539945,43.68509297916522,2.627675929626997,0.6862038358736625,B,1558,Correct
2,new_learn,70,65,A,26.455759875124773,41.238647425828105,1.3227879937562386,0.6477751589848061,A,2606,Correct
2,new_learn,70,66,B,37.12655303194049,25.922885171668973,1.8563276515970244,0.40719572807583515,A,2913,Incorrect
2,new_learn,70,67,A,30.55036250888063,44.23741511320159,1.5275181254440315,0.694879691667181,A,845,Correct
2,new_learn,70,68,A,68.76546204453714,86.05677916907617,3.438273102226857,1.351776726145844,B,983,Incorrect
2,new_learn,70,69,B,85.8601290715159,58.18256138391088,4.293006453575795,0.9139295370536579,A,942,Incorrect
2,new_learn,70,70,A,45.609084086843765,56.75984301908189,2.2804542043421883,0.8915815292382878,A,1423,Correct
2,new_learn,70,71,B,62.053908702890695,37.8421143134902,3.1026954351445344,0.5944225416178298,B,1453,Correct
2,new_learn,70,72,B,47.729654649677165,26.075285595967316,2.3864827324838584,0.4095896283427333,B,1559,Correct
2,new_learn,70,73,A,46.73404852747512,77.77082422810193,2.336702426373756,1.2216212502931405,A,754,Correct
2,new_learn,70,74,B,52.96975370235384,43.73298552547556,2.648487685117692,0.6869561302319139,B,883,Correct
2,new_learn,70,75,B,54.54505727800707,26.848028530096123,2.7272528639003535,0.42172784596759577,B,1218,Correct
2,new_learn,70,76,B,47.440044604884754,19.499716465763598,2.3720022302442376,0.30630082997963426,B,1200,Correct
2,new_learn,70,77,A,43.90541904894321,74.1520847976552,2.1952709524471605,1.1647782242434048,A,851,Correct
2,new_learn,70,78,A,28.1269323049954,46.42418394453512,1.40634661524977,0.7292293761452637,A,942,Correct
2,new_learn,70,79,B,43.985341285720565,20.944160074560745,2.199267064286028,0.32899009712924343,B,1829,Correct
2,new_learn,70,80,B,77.92022715146007,58.46436387313428,3.8960113575730033,0.9183560802031959,A,2147,Incorrect
2,new_learn,70,81,B,53.85558679579546,40.11861296126389,2.6927793397897735,0.6301816987565945,A,1515,Incorrect
2,new_learn,70,82,A,52.01203333970559,65.86546187891105,2.6006016669852796,1.0346122558204276,B,675,Incorrect
2,new_learn,70,83,B,73.64378240614816,47.942973399693685,3.6821891203074077,0.7530864651186426,A,626,Incorrect
2,new_learn,70,84,B,61.886187790717536,43.189056211209206,3.0943093895358764,0.6784121085430573,B,826,Correct
2,new_learn,70,85,B,61.68292288544056,33.785178585172,3.084146144272028,0.5306963442169778,B,638,Correct
2,new_learn,70,86,B,88.45774162091564,68.27531698152686,4.422887081045782,1.072466171253396,A,920,Incorrect
2,new_learn,70,87,B,83.40756095693257,67.5214587208433,4.170378047846628,1.0606245933853389,B,606,Correct
2,new_learn,70,88,A,41.279591531415164,72.27283891861975,2.0639795765707585,1.1352590990040714,A,931,Correct
2,new_learn,70,89,B,79.135178242009,64.13380076915266,3.9567589121004505,1.007411386715807,B,2489,Correct
2,new_learn,70,90,B,65.93574857412257,36.2068311142746,3.2967874287061285,0.5687355731918571,B,2694,Correct
2,new_learn,70,91,B,64.28333711331466,46.44646756156887,3.2141668556657326,0.729579406383107,B,2092,Correct
2,new_learn,70,92,B,38.62508631883975,28.698944361315817,1.9312543159419875,0.45080196385645993,A,2245,Incorrect
2,new_learn,70,93,A,20.30420701933414,47.851326826276704,1.015210350966707,0.7516468841097754,A,1036,Correct
2,new_learn,70,94,B,64.46085685036005,44.84248888758835,3.2230428425180024,0.7043841682896476,B,5095,Correct
2,new_learn,70,95,A,31.22937090150942,47.755291704695466,1.5614685450754708,0.7501383679475443,A,1115,Correct
2,new_learn,70,96,A,21.323792955573634,45.27618370393963,1.0661896477786816,0.7111966305343932,A,1025,Correct
2,new_learn,70,97,A,49.7220124692491,74.83591859355865,2.486100623462455,1.1755198603908381,B,742,Incorrect
2,new_learn,70,98,A,23.37803683170229,55.05163171700285,1.1689018415851145,0.8647490088513349,A,629,Correct
2,new_learn,70,99,B,58.99507847018458,27.733425914561224,2.949753923509229,0.4356356355603116,A,2067,Incorrect
2,new_learn,70,100,A,52.26767634896491,71.17551304955705,2.6133838174482458,1.1180223445598645,B,722,Incorrect
2,new_learn,70,101,B,56.76933707669538,38.217111940057094,2.8384668538347686,0.6003129905615107,B,1731,Correct
2,new_learn,70,102,A,65.1075113459716,83.53746414677997,3.25537556729858,1.3122034183152234,A,938,Correct
2,new_learn,70,103,A,29.670452112512013,49.60994577245917,1.4835226056256008,0.7792712059187287,A,966,Correct
2,new_learn,70,104,B,61.096522327683104,34.75296249572977,3.054826116384155,0.5458982583353312,B,1521,Correct
2,new_learn,70,105,B,51.98950363588546,37.633277527422514,2.5994751817942734,0.5911421410532821,B,804,Correct
2,new_learn,70,106,B,35.65120654230925,21.103289219016027,1.7825603271154622,0.33148969188520716,A,826,Incorrect
2,new_learn,70,107,B,39.183794549236794,20.079865987125874,1.9591897274618395,0.315413797351111,B,648,Correct
2,new_learn,70,108,B,40.290599846003055,16.209489497414424,2.0145299923001527,0.2546180656175903,B,4726,Correct
2,new_learn,70,109,B,55.97699818997654,42.38057512164911,2.798849909498827,0.665712517285416,B,6748,Correct
2,new_learn,70,110,B,85.98627936418592,60.88167837332408,4.299313968209296,0.9563271675792576,B,1175,Correct
2,new_learn,70,111,B,84.32373308854704,63.835900478083545,4.216186654427352,1.0027319798861822,B,2090,Correct
2,new_learn,70,112,B,31.086469590960466,16.375193267713566,1.5543234795480234,0.25722093435480986,A,788,Incorrect
2,new_learn,70,113,B,78.28796120092093,61.92051349184214,3.914398060046046,0.9726451514623946,B,1123,Correct
2,new_learn,70,114,B,63.97921914777591,35.44078354285895,3.1989609573887954,0.5567025260785586,B,1001,Correct
2,new_learn,70,115,B,35.527903813734724,24.95863310383657,1.7763951906867361,0.3920492920132799,A,795,Incorrect
2,new_learn,70,116,B,55.440487817794214,42.71044046952087,2.7720243908897104,0.6708940300531547,B,610,Correct
2,new_learn,70,117,A,42.724692989195745,49.729377125937475,2.1362346494597872,0.7811472292322071,A,855,Correct
2,new_learn,70,118,B,32.100572272190036,10.790907327434116,1.605028613609502,0.16950317592717645,B,1078,Correct
2,new_learn,70,119,A,56.48947134232243,66.99652968807881,2.8244735671161214,1.0523790274203944,A,867,Correct
2,new_learn,70,120,A,27.083900097843944,56.367753855724935,1.3541950048921974,0.885422607062516,A,628,Correct
2,new_learn,70,121,A,61.25711848741027,71.72950701482111,3.0628559243705133,1.1267244614168976,B,676,Incorrect
2,new_learn,70,122,A,17.19579400133038,30.991403488664897,0.8597897000665191,0.4868118276221336,A,603,Correct
2,new_learn,70,123,B,39.158278986714976,24.488943697144915,1.9579139493357487,0.3846714280656227,B,1777,Correct
2,new_learn,70,124,B,81.42721152111528,67.46660308886442,4.071360576055764,1.0597629231331744,A,1007,Incorrect
2,new_learn,70,125,B,46.38091519039108,27.557850955951793,2.319045759519554,0.4328777105597031,B,1589,Correct
2,new_learn,70,126,A,60.59550956280981,75.8713444047027,3.0297754781404906,1.191784290998975,A,1192,Correct
2,new_learn,70,127,B,69.82771774670474,55.05656566187015,3.4913858873352366,0.8648265110760767,B,1769,Correct
2,new_learn,70,128,A,19.506124900755072,33.52794596386259,0.9753062450377535,0.5266557436501313,A,998,Correct
2,new_learn,70,129,A,39.84218387792653,58.76061326651129,1.9921091938963265,0.9230095547925141,B,4822,Incorrect
2,new_learn,70,130,B,60.38730653534843,48.41602391029176,3.0193653267674216,0.7605171251630017,A,1264,Incorrect
2,new_learn,70,131,B,41.1879289634972,18.0741840676389,2.05939644817486,0.28390861943262025,B,1426,Correct
2,new_learn,70,132,A,55.55101546663322,63.99997229305393,2.7775507733316607,1.0053092139290425,A,825,Correct
2,new_learn,70,133,A,45.845237059621304,74.93302004173947,2.292261852981065,1.177045126372127,A,901,Correct
2,new_learn,70,134,A,45.925930908987844,64.44660512842377,2.296296545449392,1.012324906101292,A,464,Correct
2,new_learn,70,135,A,25.722683056191055,56.81551699769343,1.286134152809553,0.8924560540492984,A,1348,Correct
2,new_learn,70,136,B,33.806484704555956,15.247505884915629,1.6903242352277976,0.23950726236809036,B,961,Correct
2,new_learn,70,137,A,52.94249159281966,69.43469247323576,2.647124579640983,1.0906775988909196,A,642,Correct
2,new_learn,70,138,B,44.615052464873116,24.161612442554855,2.2307526232436556,0.3795297207420703,B,738,Correct
2,new_learn,70,139,B,73.70919199239736,55.05201865606,3.685459599619868,0.8647550868758316,A,1282,Incorrect
2,new_learn,70,140,B,69.19267556438656,41.153715608467614,3.459633778219328,0.6464410531174274,B,657,Correct
2,new_learn,70,141,A,26.03790495501455,37.51719511546699,1.3018952477507275,0.5893187227902299,B,1399,Incorrect
2,new_learn,70,142,A,22.778928245636536,37.082182234197546,1.1389464122818267,0.5824855564301648,A,607,Correct
2,new_learn,70,143,A,47.93840153552434,69.4341171043335,2.396920076776217,1.0906685610173374,B,848,Incorrect
2,new_learn,70,144,A,27.965880997011666,59.30606102646079,1.3982940498505831,0.9315774281703859,A,1477,Correct
2,new_learn,70,145,B,46.38755926346705,35.86272034694195,2.3193779631733524,0.5633302938984901,A,2768,Incorrect
2,new_learn,70,146,A,42.981006369597246,54.2352609879888,2.1490503184798624,0.8519254874269536,B,881,Incorrect
2,new_learn,70,147,A,56.21993560563331,84.72152983436533,2.8109967802816653,1.330802678642653,A,970,Correct
2,new_learn,70,148,A,24.74149837029855,51.88841175493932,1.2370749185149277,0.8150612658787982,A,1474,Correct
2,new_learn,70,149,A,33.95132426737765,61.99005112727494,1.6975662133688827,0.9737374460855132,A,855,Correct
2,new_learn,70,150,B,45.5531212402257,28.131815569541295,2.277656062011285,0.4418935256270695,A,1762,Incorrect
2,new_learn,70,151,A,41.12306640634467,64.73991163058815,2.0561533203172333,1.0169321538635407,A,771,Correct
2,new_learn,70,152,B,78.76586621416067,54.89344768040947,3.9382933107080333,0.8622642598149505,A,1515,Incorrect
2,new_learn,70,153,A,62.22780011089649,85.97018297913175,3.1113900055448243,1.350416476375053,A,1192,Correct
2,new_learn,70,154,A,45.695611055582035,62.37611259397633,2.284780552779102,0.9798016854236291,B,1352,Incorrect
2,new_learn,70,155,A,58.64138582665504,85.9768024573444,2.932069291332752,1.3505204548956702,A,819,Correct
2,new_learn,70,156,B,44.08367447785156,20.241231775307806,2.204183723892578,0.3179485252245765,A,4977,Incorrect
2,new_learn,70,157,A,67.13319217122316,89.72542598973754,3.356659608561158,1.4094036956478706,A,4792,Correct
2,new_learn,70,158,B,54.492748200220035,32.65846005751425,2.7246374100110016,0.5129978909712122,A,1093,Incorrect
2,new_learn,70,159,A,52.570406330587076,70.28749138883025,2.6285203165293534,1.104073332932025,B,1112,Incorrect
2,new_learn,70,160,A,50.502757218627785,72.65723340550704,2.5251378609313893,1.1412971534844991,A,1190,Correct
2,new_learn,70,161,B,58.52108767630217,40.05189586605059,2.9260543838151083,0.6291337090756398,B,4015,Correct
2,new_learn,70,162,B,52.53657611167173,26.83213655747801,2.6268288055835867,0.4214782154454551,B,1580,Correct
2,new_learn,70,163,A,37.65087833263936,50.21085875895888,1.882543916631968,0.7887103250378996,A,2657,Correct
2,new_learn,70,164,B,52.670094902976864,33.36594908468815,2.633504745148843,0.5241111026225368,B,4150,Correct
2,new_learn,70,165,B,69.56590797550103,55.3133118806708,3.478295398775052,0.868859471250182,A,1341,Incorrect
2,new_learn,70,166,B,64.61874675049003,47.99939238846036,3.230937337524501,0.7539726925218044,B,1696,Correct
2,new_learn,70,167,A,17.8426171823775,40.686706627605034,0.8921308591188749,0.6391052932002356,A,1071,Correct
2,new_learn,70,168,B,45.44719863295244,30.20401656285472,2.2723599316476224,0.4744435827138441,B,1084,Correct
2,new_learn,70,169,A,50.59086242713922,61.7779809614173,2.5295431213569612,0.9704062557099934,A,1226,Correct
2,new_learn,70,170,A,48.74138086161001,62.91566023448,2.4370690430805007,0.9882768799419692,A,1617,Correct
2,new_learn,70,171,A,30.06426245902902,48.525592600265355,1.5032131229514512,0.7622382261204244,A,3067,Correct
2,new_learn,70,172,A,19.184604400615875,49.42404462523483,0.9592302200307938,0.7763510775266591,A,786,Correct
2,new_learn,70,173,B,58.80462202122241,40.47821146139381,2.94023110106112,0.6358302587878447,A,834,Incorrect
2,new_learn,70,174,A,40.787231234575096,61.668443104539136,2.039361561728755,0.9686856390777014,B,780,Incorrect
2,new_learn,70,175,B,42.50944897194354,27.18540229511568,2.125472448597177,0.4270273006760925,A,476,Incorrect
2,new_learn,70,176,A,22.29685106070014,42.65820833389438,1.1148425530350068,0.6700735695853275,A,1995,Correct
2,new_learn,70,177,A,41.74546770650772,66.61864414160812,2.087273385325386,1.0464432151369436,A,1695,Correct
2,new_learn,70,178,A,40.603259202538254,58.688139310584454,2.030162960126913,0.9218711365549324,A,2079,Correct
2,new_learn,70,179,A,23.034148328274487,52.96933197915073,1.1517074164137242,0.8320403210562942,A,2611,Correct
2,new_learn,70,180,A,44.720052530870376,75.18224135066022,2.2360026265435184,1.1809598855382446,A,8223,Correct
2,new_learn,70,181,B,77.12389320360188,46.436381414142325,3.856194660180094,0.7294209735498157,A,1015,Incorrect
2,new_learn,70,182,B,47.102984423817105,23.746098037444874,2.3551492211908553,0.3730028357292992,B,1103,Correct
2,new_learn,70,183,B,67.34851062013966,40.78557684629904,3.367425531006983,0.640658342963775,B,1278,Correct
2,new_learn,70,184,B,81.07398086623829,51.75738621691325,4.053699043311914,0.8130031215403213,B,628,Correct
2,new_learn,70,185,B,65.43882649204343,44.067896693875994,3.2719413246021714,0.6922169025631738,B,1415,Correct
2,new_learn,70,186,B,57.45949271794256,27.078336119017752,2.872974635897128,0.4253455091147066,B,853,Correct
2,new_learn,70,187,B,67.45129030695212,36.315181174144676,3.3725645153476056,0.5704375319523765,B,594,Correct
2,new_learn,70,188,B,65.93885633391704,37.96526670579214,3.2969428166958523,0.5963570148724688,B,871,Correct
2,new_learn,70,189,A,61.963356030517105,71.48138266204357,3.098167801525855,1.1228269331975844,B,1777,Incorrect
2,new_learn,70,190,B,83.52287077693717,58.85769844874886,4.176143538846858,0.9245345652689639,A,680,Incorrect
2,new_learn,70,191,A,18.581170992663758,40.93936360915111,0.9290585496331879,0.6430740197857523,A,677,Correct
2,new_learn,70,192,A,53.89342610568799,70.10734598421685,2.6946713052843996,1.1012436155334677,B,3095,Incorrect
2,new_learn,70,193,B,45.163087816725536,21.007379296665675,2.2581543908362764,0.329983142347896,A,809,Incorrect
2,new_learn,70,194,A,46.684897361896546,63.939368555689526,2.3342448680948276,1.0043572526486222,B,1727,Incorrect
2,new_learn,70,195,B,44.56173640747673,25.37126954022642,2.2280868203738367,0.3985309699991091,B,2937,Correct
2,new_learn,70,196,B,89.66506471087936,64.86850771763972,4.483253235543969,1.0189521364753487,B,2125,Correct
2,new_learn,70,197,A,36.726900863145126,54.29153269224713,1.836345043157256,0.8528094012904683,B,1361,Incorrect
2,new_learn,70,198,B,48.35232391234885,37.97463129549771,2.4176161956174425,0.5965041135035832,A,463,Incorrect
2,new_learn,70,199,A,43.11581688077934,71.34416091151658,2.155790844038967,1.1206714589807427,B,1116,Incorrect
2,new_learn,70,200,A,25.493570174696803,50.434587583911245,1.27467850873484,0.7922246492022328,A,880,Correct
2,new_learn,70,201,A,19.00032299278891,42.9652617393871,0.9500161496394455,0.6748967532001058,A,1974,Correct
2,new_learn,70,202,B,35.564365050327034,21.235247007059215,1.7782182525163517,0.3335624799727093,B,2218,Correct
2,new_learn,70,203,B,53.73925708056766,28.145577590938352,2.6869628540283834,0.44210969895366714,A,872,Incorrect
2,new_learn,70,204,A,49.50122949121071,65.32353992209462,2.4750614745605355,1.0260997656286601,B,902,Incorrect
2,new_learn,70,205,A,34.51634586494333,44.85115156713014,1.7258172932471667,0.7045202413416919,A,676,Correct
2,new_learn,70,206,A,30.19178731631139,57.0131710953008,1.5095893658155695,0.8955607973542749,A,809,Correct
2,new_learn,70,207,B,61.342011917822596,42.47150810172134,3.0671005958911297,0.6671408891962358,B,3439,Correct
2,new_learn,70,208,A,44.241864810720024,68.67103141324506,2.212093240536001,1.0786820390114231,B,1097,Incorrect
2,new_learn,70,209,B,50.426174278949944,20.392600556639866,2.521308713947497,0.32032622048165466,B,930,Correct
2,new_learn,70,210,B,38.28717171459121,24.870664347194296,1.9143585857295604,0.39066748201521595,B,2730,Correct
2,new_learn,70,211,A,17.78456496543224,43.06945556415925,0.889228248271612,0.6765334259723736,A,5442,Correct
2,new_learn,70,212,A,56.555613059499365,85.48510716148928,2.827780652974968,1.3427969232493548,B,1117,Incorrect
2,new_learn,70,213,B,52.70678638648387,40.27693458241057,2.635339319324194,0.6326686089660887,B,803,Correct
2,new_learn,70,214,A,32.41497236297342,57.286642576303215,1.6207486181486712,0.8998564773326923,A,1623,Correct
2,new_learn,70,215,B,75.1916223571173,43.864932562939856,3.759581117855865,0.6890287494497177,B,1845,Correct
2,new_learn,70,216,A,22.837203015867917,36.32872109098621,1.1418601507933959,0.5706502164687742,A,1576,Correct
2,new_learn,70,217,B,52.511961019127035,41.71639851033733,2.6255980509563517,0.6552796554714997,B,1471,Correct
2,new_learn,70,218,A,29.167614606183,50.706167271239536,1.45838073030915,0.7964906129551068,A,1764,Correct
2,new_learn,70,219,A,35.912647319945194,54.06315319187526,1.7956323659972597,0.8492220244874744,B,3256,Incorrect
2,new_learn,70,220,B,73.4935543045989,62.719535490837416,3.674677715229945,0.9851961596728955,B,948,Correct
2,new_learn,70,221,B,68.00723291093747,56.95562034975862,3.400361645546874,0.8946567923572549,B,775,Correct
2,new_learn,70,222,A,15.149919428405578,41.09748096788023,0.7574959714202789,0.6455577214486944,A,786,Correct
2,new_learn,70,223,A,53.237257042013596,78.22397853907312,2.66186285210068,1.2287393815645886,B,1117,Incorrect
2,new_learn,70,224,A,38.36649252218292,55.331877570889695,1.9183246261091458,0.8691511004301846,A,659,Correct
2,new_learn,70,225,A,53.37068085030393,62.67040854303778,2.6685340425151964,0.9844244753813927,A,2495,Correct
2,new_learn,70,226,B,44.144325262430584,26.959382404831267,2.2072162631215293,0.4234769885416792,B,903,Correct
2,new_learn,70,227,B,51.69263833131211,31.553043860967186,2.584631916565605,0.4956340539600552,B,906,Correct
2,new_learn,70,228,A,59.277162858096496,72.4012465211539,2.9638581429048245,1.1372761209080033,A,796,Correct
2,new_learn,70,229,A,55.04038281774843,75.60280785819515,2.7520191408874215,1.187566128790333,A,4021,Correct
2,new_learn,70,230,A,24.407558001835007,38.59944180965219,1.2203779000917505,0.6063186141093502,A,1340,Correct
2,new_learn,70,231,A,23.988859505034178,44.31156307010658,1.199442975251709,0.696044405050638,A,1855,Correct
2,new_learn,70,232,B,51.65272186150194,33.523557029275196,2.582636093075097,0.5265868024268472,A,1426,Incorrect
2,new_learn,70,233,B,77.52003227815514,64.74330424958816,3.876001613907757,1.016985444998175,B,749,Correct
2,new_learn,70,234,A,36.93794728003075,65.6451146438019,1.8468973640015376,1.0311510495451393,A,790,Correct
2,new_learn,70,235,B,74.73558795830901,58.5227997140847,3.73677939791545,0.9192739882463766,B,738,Correct
2,new_learn,70,236,A,65.8000933470726,85.02559333479954,3.2900046673536303,1.3355788969385975,B,765,Incorrect
2,new_learn,70,237,B,63.29149623761072,39.75559375960988,3.164574811880536,0.6244794064714531,B,853,Correct
2,new_learn,70,238,A,50.41772608452108,59.10713695173124,2.5208863042260536,0.9284527361114233,A,1959,Correct
2,new_learn,70,239,A,69.05005965360766,86.56597313943071,3.4525029826803832,1.3597751263284346,B,771,Incorrect
2,new_learn,70,240,B,46.909198633114535,19.267194615059317,2.3454599316557267,0.30264838528977583,B,887,Correct
2,new_learn,70,241,B,44.277974921393636,32.765295643569154,2.213898746069682,0.5146760604326724,B,1354,Correct
2,new_learn,70,242,B,47.90785363471006,38.8964074919883,2.395392681735503,0.6109833401393271,B,3194,Correct
2,new_learn,70,243,B,83.77020881036513,63.72377712946182,4.1885104405182565,1.0009707504445526,A,859,Incorrect
2,new_learn,70,244,A,51.09321912446781,70.23043779943424,2.5546609562233904,1.1031771372454877,A,868,Correct
2,new_learn,70,245,B,79.69639562871143,58.20892611007214,3.9848197814355717,0.9143436732037689,B,2931,Correct
2,new_learn,70,246,A,39.871687992455094,62.75206213202336,1.9935843996227547,0.9857070869578742,A,2328,Correct
2,new_learn,70,247,B,43.04821729202072,31.18403520675654,2.1524108646010363,0.4898376795741591,B,2270,Correct
2,new_learn,70,248,B,62.39901322485344,51.09980746889474,3.1199506612426724,0.8026738987206627,B,905,Correct
2,new_learn,70,249,A,27.083757525337823,43.628532912804545,1.3541878762668913,0.6853153924288363,A,718,Correct
2,new_learn,70,250,A,43.23979449206955,71.39421256508088,2.161989724603478,1.121457668516431,B,752,Incorrect
2,new_learn,70,251,B,36.85735152298078,23.106374941856547,1.8428675761490387,0.3629540888421391,A,584,Incorrect
2,new_learn,70,252,A,43.040936774758705,60.6427144789373,2.1520468387379355,0.952573531503864,A,858,Correct
2,new_learn,70,253,B,57.3276294178323,34.03160347729289,2.866381470891615,0.534567177370721,B,735,Correct
2,new_learn,70,254,B,64.72965610925591,53.78952469457589,3.2364828054627957,0.8449238781028318,A,830,Incorrect
2,new_learn,70,255,B,64.84638304093403,44.84911333958901,3.2423191520467016,0.7044882249383442,B,582,Correct
2,new_learn,70,256,A,41.04297645926931,56.29977070442181,2.0521488229634657,0.884354730219007,A,2224,Correct
2,new_learn,70,257,A,48.934184292803565,73.85487854535566,2.4467092146401783,1.1601097193492789,A,4026,Correct
2,new_learn,70,258,A,30.310256786804423,60.99032855822623,1.515512839340221,0.9580338406927563,A,1088,Correct
2,new_learn,70,259,A,46.15294233549273,63.87781167134487,2.3076471167746364,1.003390319370447,B,1986,Incorrect
2,new_learn,70,260,A,13.055883793583796,41.01876488055347,0.6527941896791899,0.6443212520403689,A,771,Correct
2,new_learn,70,261,B,35.78926349964927,25.061644471633784,1.7894631749824637,0.3936673907948198,A,2354,Incorrect
2,new_learn,70,262,B,45.283767128614706,17.739558549751614,2.264188356430735,0.27865233408912843,B,1164,Correct
2,new_learn,70,263,A,24.728965673989762,40.98405600308118,1.2364482836994881,0.6437760462679625,A,2460,Correct
2,new_learn,70,264,B,61.589731148894074,50.65510016570197,3.079486557444704,0.7956884527371221,B,3498,Correct
2,new_learn,70,265,B,41.265454089906214,14.923397323272699,2.0632727044953105,0.23441617698697545,B,1663,Correct
2,new_learn,70,266,A,54.2745286714926,61.73038056839541,2.71372643357463,0.9696585504848657,A,1048,Correct
2,new_learn,70,267,B,39.05706326441293,23.757530040025323,1.9528531632206465,0.37318240920591184,A,984,Incorrect
2,new_learn,70,268,B,45.50064862290826,36.14836695950389,2.275032431145413,0.5678172203962272,B,465,Correct
2,new_learn,70,269,B,80.88572693845731,63.98882721832497,4.044286346922865,1.0051341475045814,B,887,Correct
2,new_learn,70,270,A,63.967562929472926,79.84480092376717,3.198378146473646,1.2541992000472322,B,961,Incorrect
2,new_learn,70,271,B,72.96467946700223,58.60778501947351,3.648233973350111,0.9206089343017396,A,714,Incorrect
2,new_learn,70,272,A,44.54890981525764,66.96248842649985,2.227445490762882,1.0518443085339173,B,432,Incorrect
2,new_learn,70,273,B,37.28147312159298,22.706548153719194,1.864073656079649,0.35667362434053546,B,762,Correct
2,new_learn,70,274,A,36.447653651720024,44.15799662635701,1.8223826825860012,0.6936321889930304,A,2910,Correct
2,new_learn,70,275,A,64.6351598705511,83.3832830340792,3.2317579935275553,1.3097815470603082,A,3745,Correct
2,new_learn,70,276,B,71.81587114155113,58.10516329804109,3.5907935570775567,0.9127137707638059,B,1789,Correct
2,new_learn,70,277,B,54.3932542611021,24.63936681302109,2.719662713055105,0.3870342688444561,B,1843,Correct
2,new_learn,70,278,A,41.178737183615894,68.01960603126523,2.058936859180795,1.068449473039474,A,1399,Correct
2,new_learn,70,279,A,13.517688211187963,30.177005380141065,0.6758844105593981,0.4740192920479541,A,2050,Correct
2,new_learn,70,280,B,60.51638510331206,45.980832447129345,3.025819255165603,0.7222652271092236,B,2081,Correct
2,new_learn,70,281,A,41.11252265363887,72.92382759016662,2.0556261326819434,1.1454848051445805,A,2686,Correct
2,new_learn,70,282,B,43.343293388430006,21.72466714709548,2.1671646694215,0.34125027355499343,A,845,Incorrect
2,new_learn,70,283,B,46.48025264816779,35.593743738996125,2.3240126324083894,0.5591052192209397,B,469,Correct
2,new_learn,70,284,A,27.322918675186266,40.40594766747571,1.3661459337593131,0.6346951417673765,A,659,Correct
2,new_learn,70,285,A,35.66111281127587,67.730111475524,1.7830556405637936,1.0639021031916198,A,886,Correct
2,new_learn,70,286,A,54.99209293781574,66.51545246100508,2.7496046468907873,1.0448222840084733,B,1108,Incorrect
2,new_learn,70,287,B,52.63618814857896,45.538719898863135,2.631809407428948,0.7153205394407588,A,571,Incorrect
2,new_learn,70,288,B,75.81844583850935,54.46426362868393,3.790922291925467,0.8555226524952559,B,532,Correct
2,new_learn,70,289,A,15.022382390858365,40.015656427838096,0.7511191195429183,0.6285644613113467,A,673,Correct
2,new_learn,70,290,A,58.17720059175589,67.11937851851228,2.908860029587794,1.0543087323363538,B,1212,Incorrect
2,new_learn,70,291,B,75.24197908936077,60.51668517810144,3.7620989544680383,0.950593867875649,A,552,Incorrect
2,new_learn,70,292,B,65.7084335349635,45.483249733751165,3.285421676748175,0.7144492161247129,B,474,Correct
2,new_learn,70,293,A,17.134821089202838,32.55900611869763,0.8567410544601418,0.511435672153428,A,563,Correct
2,new_learn,70,294,B,67.44708423494673,56.98339578889795,3.372354211747336,0.8950930879350066,B,507,Correct
2,new_learn,70,295,A,25.15661822668815,47.83516080524019,1.2578309113344075,0.751392948845145,A,648,Correct
2,new_learn,70,296,A,44.869602997483085,71.54935050835884,2.243480149874154,1.1238945696309062,B,842,Incorrect
2,new_learn,70,297,B,45.154855853375565,31.61886835846685,2.2577427926687785,0.49666802274891114,A,2596,Incorrect
2,new_learn,70,298,B,70.79626116527884,40.03625266492433,3.5398130582639418,0.6288879862469553,B,511,Correct
2,new_learn,70,299,B,54.281851384449865,22.309659480102294,2.714092569222493,0.35043931163389624,B,551,Correct
2,new_learn,70,300,B,71.64048241155707,44.71328138021206,3.5820241205778536,0.7023545815098374,B,1085,Incorrect
2,new_learn,70,301,A,57.46062957673648,75.84032946136443,2.873031478836824,1.1912971094082603,A,499,Correct
2,new_learn,70,302,A,18.41695123904335,33.10191935761702,0.9208475619521675,0.519963733368057,B,714,Incorrect
2,new_learn,70,303,A,42.05742172421208,57.92271370273249,2.102871086210604,0.9098478592224463,A,640,Correct
2,new_learn,70,304,A,40.687335023944165,55.05590736730898,2.0343667511972083,0.8648161706092902,B,1871,Correct
2,new_learn,70,305,B,35.12004441869003,16.885427900594376,1.7560022209345016,0.26523568122613705,A,1525,Incorrect
2,new_learn,70,306,B,33.214292380077396,13.836749972545626,1.6607146190038697,0.21734716031654056,B,771,Incorrect
2,new_learn,70,307,B,84.5073756024561,57.66834159543073,4.225368780122804,0.9058521915045593,A,1604,Correct
2,new_learn,70,308,A,35.036581851685796,63.612186569817794,1.7518290925842899,0.9992178900326143,A,948,Correct
2,new_learn,70,309,A,52.55230947294186,65.12580297553572,2.6276154736470927,1.0229937209353965,A,2240,Incorrect
2,new_learn,70,310,A,53.441497242188554,71.58837774591794,2.6720748621094277,1.124507608044934,B,795,Correct
2,new_learn,70,311,A,14.589300062789079,33.50277930201701,0.729465003139454,0.5262604266502842,A,651,Correct
2,new_learn,70,312,B,49.258676781413214,31.88444049310424,2.4629338390706605,0.500839620084786,B,798,Correct
2,new_learn,70,313,B,59.12710960075165,35.371989921845454,2.9563554800375824,0.5556219184066093,B,1006,Correct
2,new_learn,70,314,B,54.03449089932613,39.67370470405149,2.7017245449663063,0.6231930961946949,B,561,Incorrect
2,new_learn,70,315,B,34.30311268622144,11.64508568715512,1.7151556343110719,0.18292057822595084,A,657,Incorrect
2,new_learn,70,316,B,73.47167307340519,43.29111283755921,3.6735836536702595,0.6800152102810141,B,950,Correct
2,new_learn,70,317,A,40.728001229339554,67.15748673808766,2.0364000614669777,1.0549073348496507,A,992,Correct
2,new_learn,70,318,A,19.678848760831464,35.04903087590176,0.9839424380415732,0.550548889575874,A,908,Correct
2,new_learn,70,319,B,79.97468067880537,50.50409560231654,3.9987340339402686,0.793316478602171,B,675,Incorrect
2,new_learn,70,320,A,51.03609578252765,58.59118506759452,2.5518047891263826,0.9203481828673747,A,462,Incorrect
2,new_learn,70,321,A,41.36696589597188,56.20089082531866,2.068348294798594,0.8828015287101154,B,2033,Incorrect
2,new_learn,70,322,B,56.85551988152858,26.303352226879095,2.8427759940764292,0.4131720906037405,B,1436,Incorrect
2,new_learn,70,323,A,67.8373485620109,89.89311908193989,3.391867428100545,1.412037812580474,A,967,Correct
2,new_learn,70,324,B,75.85849217110656,64.8667549722245,3.792924608555328,1.0189246044147484,A,794,Correct
2,new_learn,70,325,B,70.15086736137124,60.07996241749165,3.507543368068562,0.9437338427937132,A,511,Incorrect
2,new_learn,70,326,A,48.57604550312904,68.53866741812334,2.4288022751564515,1.0766028702380521,A,1849,Correct
2,new_learn,70,327,B,35.97914497767895,22.91843472123326,1.7989572488839474,0.3600019307600182,B,3895,Correct
2,new_learn,70,328,B,44.03710452076099,34.330813481757154,2.2018552260380493,0.5392671571302485,B,1345,Incorrect
2,new_learn,70,329,A,38.26571511727033,67.72979989147915,1.9132857558635166,1.0638972088408882,A,3525,Incorrect
2,new_learn,70,330,B,78.68879641593546,54.469801425935636,3.934439820796773,0.8556096400110712,B,2244,Correct
2,new_learn,70,331,B,82.28231195854288,64.48057821900625,4.114115597927144,1.0128585541602602,B,499,Incorrect
2,new_learn,70,332,B,68.76620898479665,48.471339736132904,3.4383104492398324,0.7613860241234508,A,575,Incorrect
2,new_learn,70,333,A,22.985637175577363,47.53158863669833,1.1492818587788682,0.7466244483725178,A,734,Correct
2,new_learn,70,334,A,54.95483324321226,72.52272641385821,2.747741662160613,1.139184322600397,B,819,Incorrect
2,new_learn,70,335,A,35.449273430006265,66.24041406734834,1.7724636715003133,1.0405019910236377,A,571,Correct
2,new_learn,70,336,A,26.290186565209524,41.323479005169006,1.3145093282604763,0.6491076903170548,A,723,Correct
2,new_learn,70,337,B,59.057364658259935,49.81772272077694,2.952868232912997,0.7825349585908309,B,642,Correct
2,new_learn,70,338,A,52.98377767647551,72.33816890719666,2.649188883823775,1.1362853000649331,B,906,Correct
2,new_learn,70,339,B,43.394923775624974,14.331267991576947,2.169746188781249,0.22511503119482343,A,802,Incorrect
2,new_learn,70,340,A,68.15126427686673,82.08035292392333,3.4075632138433365,1.289315168749275,B,638,Incorrect
2,new_learn,70,341,A,30.68139159688964,62.09862093447125,1.534069579844482,0.975442856628961,A,872,Correct
2,new_learn,70,342,A,46.42522118524131,57.83948817610886,2.3212610592620653,0.9085405557072865,B,911,Incorrect
2,new_learn,70,343,A,24.149469614964662,46.00931809731801,1.207473480748233,0.7227126786560508,A,1140,Incorrect
2,new_learn,70,344,A,49.370318693453115,70.406193522344,2.4685159346726557,1.1059379016850859,A,2089,Correct
2,new_learn,70,345,B,34.255017581669264,13.104057763421643,1.7127508790834634,0.20583805800890864,B,1664,Correct
2,new_learn,70,346,A,29.338582798466845,49.931860287953626,1.4669291399233424,0.7843278273035352,A,1734,Correct
2,new_learn,70,347,A,60.01896524730927,82.99136190584498,3.0009482623654633,1.303625264374072,A,1110,Incorrect
2,new_learn,70,348,B,73.02235803741516,43.97158187271034,3.6511179018707582,0.6907039928901446,B,689,Correct
2,new_learn,70,349,A,22.557193890767337,41.76398325690564,1.1278596945383668,0.6560271149227094,A,566,Correct
2,new_learn,70,350,A,44.05173706392249,52.66518320589452,2.202586853196124,0.8272627632979938,B,894,Incorrect
2,new_learn,70,351,B,39.277443620168654,27.108418338768377,1.9638721810084325,0.42581803951756775,A,814,Incorrect
2,new_learn,70,352,A,50.37080062151479,62.833597680351566,2.518540031075739,0.9869878443560457,B,1156,Correct
2,new_learn,70,353,B,77.06105707912083,55.10389568252828,3.8530528539560414,0.8655699693020458,B,15491,Incorrect
2,new_learn,70,354,A,26.16612346965188,50.97217208056664,1.308306173482594,0.8006690067291145,A,630,Incorrect
2,new_learn,70,355,A,38.20036184706782,55.6879284347076,1.910018092353391,0.8747439343205579,B,1282,Incorrect
2,new_learn,70,356,B,63.903811072532584,45.652460340700856,3.195190553626629,0.717107170123226,B,11038,Correct
2,new_learn,70,357,A,31.866824904784053,50.351718037751574,1.5933412452392026,0.7909229374151251,A,1650,Correct
2,new_learn,70,358,B,39.276452686002436,24.456532109514647,1.963822634300122,0.3841623080376705,A,877,Incorrect
2,new_learn,70,359,B,48.27292853312491,18.314056688001298,2.4136464266562454,0.2876765297422595,B,783,Correct
2,new_learn,70,360,B,80.13121986162807,55.72322041507479,4.006560993081404,0.8752982994518188,A,2012,Incorrect
2,new_learn,70,361,A,46.86863811078559,57.72880672773522,2.3434319055392794,0.9068019755817899,B,618,Incorrect
2,new_learn,70,362,B,51.68832503166395,21.86610169111062,2.584416251583198,0.34347192217720235,B,942,Correct
2,new_learn,70,363,B,47.9268478548864,17.782542202879124,2.39634239274432,0.27932751973357756,B,578,Correct
2,new_learn,70,364,A,21.082200312814603,34.94461331602926,1.0541100156407301,0.5489087023808679,A,767,Incorrect
2,new_learn,70,365,A,24.903014113836786,53.43914113545503,1.2451507056918394,0.8394200660264682,B,881,Incorrect
2,new_learn,70,366,B,70.55162326398616,55.295158615799366,3.5275811631993075,0.8685743204323881,A,1953,Correct
2,new_learn,70,367,B,44.22892551873973,22.66679197375556,2.2114462759369866,0.3560491357259928,B,1098,Correct
2,new_learn,70,368,A,62.29579796091481,75.86158695021412,3.1147898980457405,1.1916310212622798,A,938,Incorrect
2,new_learn,70,369,A,49.85680405847275,57.600355404550584,2.492840202923637,0.9047842669154862,B,743,Correct
2,new_learn,70,370,B,39.471952745611844,21.520125087092328,1.9735976372805921,0.3380373343897133,B,648,Correct
2,new_learn,70,371,B,52.048782523365404,41.4034130152633,2.60243912616827,0.650363290811476,B,1087,Incorrect
2,new_learn,70,372,A,16.39979933726109,42.92535638967486,0.8199899668630545,0.6742699214326311,B,1291,Correct
2,new_learn,70,373,B,80.62359031716319,56.513105712887324,4.03117951585816,0.887705788695751,B,1776,Incorrect
2,new_learn,70,374,B,56.360012158733376,42.63385116102205,2.818000607936669,0.6696909680085377,B,2736,Incorrect
2,new_learn,70,375,B,70.78682486270233,49.01790667177903,3.5393412431351168,0.7699714774720555,A,829,Incorrect
2,new_learn,70,376,B,75.99646912512296,53.91651334878699,3.799823456256148,0.8469186112186263,B,683,Incorrect
2,new_learn,70,377,A,45.715090504049314,59.95659211064065,2.285754525202466,0.9417959465453419,A,817,Correct
2,new_learn,70,378,B,64.80989824004902,40.830623909872074,3.2404949120024513,0.6413659405837093,B,820,Correct
2,new_learn,70,379,B,71.11131089918585,39.928319584614954,3.555565544959293,0.627192577386059,B,977,Incorrect
2,new_learn,70,380,B,52.79046853264016,39.77757028885475,2.639523426632008,0.6248246129855886,A,837,Incorrect
2,new_learn,70,381,B,63.577706274514114,34.63521917973239,3.178885313725706,0.5440487506525978,B,660,Correct
2,new_learn,70,382,A,10.02595719848922,33.199173226282,0.5012978599244611,0.5214913935647124,A,1023,Incorrect
2,new_learn,70,383,A,39.65956507873073,53.21196913845041,1.9829782539365366,0.8358516566420129,B,589,Correct
2,new_learn,70,384,B,72.27686903551098,46.201928003351576,3.613843451775549,0.7257381879850692,B,791,Correct
2,new_learn,70,385,A,24.912953991574625,56.051776325950335,1.2456476995787313,0.8804592436313192,B,1047,Incorrect
2,new_learn,70,386,B,46.40132152202165,23.903676091863424,2.3200660761010825,0.3754780660199405,B,533,Correct
2,new_learn,70,387,A,44.10387199055724,67.09227821191192,2.205193599527862,1.053883041715725,A,1045,Correct
2,new_learn,70,388,A,15.457801202838528,31.636075656348137,0.7728900601419264,0.496938314351971,B,619,Incorrect
2,new_learn,70,389,B,69.00006451971815,38.85364635454978,3.4500032259859075,0.6103116497631472,B,520,Incorrect
2,new_learn,70,390,A,20.24396582994533,52.059988109037626,1.0121982914972665,0.8177563809466231,A,593,Incorrect
2,new_learn,70,391,B,67.04655439684011,35.26572401991176,3.3523277198420054,0.5539526975223994,B,683,Incorrect
2,new_learn,70,392,A,16.613894071985886,45.269574210301265,0.8306947035992942,0.711092808851102,B,1581,Correct
2,new_learn,70,393,B,71.9803110757006,60.75141574958012,3.5990155537850295,0.9542810070703006,A,1346,Correct
2,new_learn,70,394,A,49.20243903276055,65.92262370906155,2.4601219516380275,1.0355101517487606,B,1496,Correct
2,new_learn,70,395,B,69.3718392635608,39.5892409385551,3.46859196317804,0.621866342468805,B,708,Correct
2,new_learn,70,396,A,39.19784002434664,65.26923373703242,1.959892001217332,1.0252467260684808,B,1329,Incorrect
2,new_learn,70,397,B,50.328750398723685,23.17779937117086,2.516437519936184,0.36407602115424254,B,568,Incorrect
2,new_learn,70,398,A,39.77086299842803,52.22083035833604,1.9885431499214012,0.8202828850905367,A,2086,Incorrect
2,new_learn,70,399,A,56.57965603533519,74.0909304272288,2.8289828017667595,1.1638176136390723,B,1911,Incorrect
2,new_learn,70,400,A,22.023016852422142,50.566619208339375,1.1011508426211072,0.7942985971089576,B,716,Correct
2,new_learn,70,401,A,59.973034310763076,81.84559230578881,2.998651715538154,1.285627557582857,A,603,Incorrect
2,new_learn,70,402,A,42.260586560761695,71.73092513751925,2.1130293280380847,1.1267467372361495,B,936,Correct
2,new_learn,70,403,A,27.893584286139813,59.730800772088045,1.3946792143069906,0.9382492244931369,B,2334,Incorrect
2,new_learn,70,404,A,58.51856098368181,81.81281356965528,2.9259280491840904,1.2851126703997018,A,1143,Incorrect
2,new_learn,70,405,A,60.42960114562199,83.4005551609278,3.0214800572810994,1.3100528569944054,B,743,Correct
2,new_learn,70,406,A,53.73368918164715,70.53564593347977,2.6866844590823575,1.107971335404154,B,1714,Correct
2,new_learn,70,407,B,82.07648130288757,57.6567543712892,4.103824065144379,0.9056701798133667,B,879,Correct
2,new_learn,70,408,B,72.79645220410767,43.64877747048044,3.6398226102053832,0.6856333931971851,B,825,Correct
2,new_learn,70,409,A,52.18811035601015,59.59809673305007,2.609405517800507,0.9361647143224198,B,718,Correct
2,new_learn,70,410,A,40.40445188781264,60.43126465605372,2.020222594390632,0.9492520854529944,B,684,Incorrect
2,new_learn,70,411,A,21.40435565800567,51.34589948351915,1.0702177829002835,0.8065395030469186,B,1215,Incorrect
2,new_learn,70,412,B,44.83678569073603,26.812546765053632,2.2418392845368014,0.42117049970562637,B,723,Correct
2,new_learn,70,413,B,84.28680089492616,68.66720025000346,4.214340044746308,1.0786218592399504,B,774,Correct
2,new_learn,70,414,B,69.81751809273271,46.285510230776154,3.4908759046366358,0.7270510945433079,B,547,Correct
2,new_learn,70,415,B,45.29626426815761,18.016196177924094,2.2648132134078804,0.2829977477909942,B,2055,Correct
2,new_learn,70,416,A,31.814757187046677,53.067861568344284,1.5907378593523338,0.8335880202241526,A,1607,Incorrect
2,new_learn,70,417,B,54.22549850706406,32.97161415597675,2.711274925353203,0.517916904047069,B,586,Correct
2,new_learn,70,418,A,41.40457764781263,58.59947456931651,2.0702288823906314,0.9204783940559331,B,1023,Incorrect
2,new_learn,70,419,A,42.962494312772755,73.0067321703096,2.148124715638638,1.1467870672442113,A,1439,Correct
2,new_learn,70,420,B,82.84773763554006,56.298286865347265,4.142386881777003,0.8843314221293285,B,871,Incorrect
2,new_learn,70,421,B,40.99084680705336,15.274207152173464,2.0495423403526676,0.23992668489338415,B,3107,Incorrect
2,new_learn,70,422,B,47.52625315174508,31.796891312123748,2.3763126575872544,0.49946440076580545,B,1562,Correct
2,new_learn,70,423,B,71.72635137107713,59.82008883762054,3.5863175685538566,0.9396517581467875,B,2304,Incorrect
2,new_learn,70,424,B,74.31220393948135,61.255558038073076,3.7156101969740676,0.9622000556197677,B,653,Incorrect
2,new_learn,70,425,A,20.091214948525494,34.76869395183569,1.0045607474262745,0.5461453674699943,A,748,Correct
2,new_learn,70,426,B,62.56739535271718,35.47404557012245,3.1283697676358586,0.5572250047810311,A,700,Correct
2,new_learn,70,427,A,45.15496758271035,67.25774342439779,2.2577483791355175,1.0564821631955765,A,811,Incorrect
2,new_learn,70,428,B,39.374894577037395,14.645706126397481,1.9687447288518698,0.23005421386662678,B,501,Incorrect
2,new_learn,70,429,B,41.31265243878835,21.471369844531697,2.065632621939417,0.337271488830451,A,2078,Correct
2,new_learn,70,430,A,40.950546772190805,67.08916328159529,2.0475273386095405,1.0538341125047295,A,1269,Correct
2,new_learn,70,431,B,44.96121731711163,21.67124118012082,2.2480608658555816,0.3404110604282008,A,666,Incorrect
2,new_learn,70,432,B,71.78492395243437,48.53054259513549,3.5892461976217187,0.762315980458021,B,776,Incorrect
2,new_learn,70,433,B,69.00563725452677,51.54821292598125,3.4502818627263387,0.8097174351697256,A,766,Incorrect
2,new_learn,70,434,B,45.459870713772276,34.00366843283724,2.2729935356886135,0.534128374718523,B,715,Incorrect
2,new_learn,70,435,B,40.46395409591824,18.032202289262607,2.023197704795912,0.2832491711999623,B,1657,Incorrect
2,new_learn,70,436,B,48.041698288057106,40.400279751751455,2.402084914402855,0.6346061103553743,A,569,Correct
2,new_learn,70,437,A,56.90878835502145,85.95605739082137,2.8454394177510727,1.3501945921527352,A,623,Correct
2,new_learn,70,438,B,37.469758271919716,19.045691330305477,1.8734879135959859,0.29916901982913247,A,465,Incorrect
2,new_learn,70,439,B,73.71030343898794,63.960002062064646,3.6855151719493966,1.0046813630088516,107,4828,Incorrect
2,new_learn,70,440,A,40.97364743660752,57.35077892163121,2.0486823718303757,0.9008639286892449,A,2027,Correct
2,new_learn,70,441,B,64.37649732405478,31.752016046392058,3.218824866202739,0.4987595017400527,A,1187,Incorrect
2,new_learn,70,442,B,55.653024454462376,23.741895487426724,2.782651222723119,0.3729368222279823,B,1381,Correct
2,new_learn,70,443,B,39.10826191203421,20.74793379344634,1.9554130956017104,0.32590778191329217,A,2575,Incorrect
2,new_learn,70,444,A,55.61778318014617,69.63348048270106,2.7808891590073084,1.0938001536417095,B,1113,Incorrect
2,new_learn,70,445,B,62.97802353391925,49.61638666890196,3.1489011766959623,0.7793723792834647,A,2110,Incorrect
2,new_learn,70,446,A,47.63564706362291,58.06910114268505,2.3817823531811455,0.9121473077521101,A,1270,Incorrect
2,new_learn,70,447,B,61.798452227362056,42.29401639810875,3.089922611368103,0.6643528560355235,B,559,Incorrect
2,new_learn,70,448,A,27.06968119756388,48.738178324136626,1.353484059878194,0.7655775148622846,B,4847,Incorrect
2,new_learn,70,449,A,68.20473879929774,84.28143474581694,3.410236939964887,1.3238896811573302,A,1469,Correct
2,new_learn,70,450,A,42.46884375147116,56.51502770102463,2.123442187573558,0.8877359792148132,A,904,Correct
2,new_learn,70,451,A,52.04689893088973,74.11138404846147,2.602344946544487,1.1641388983700918,A,755,Correct
2,new_learn,70,452,A,30.639080116408252,45.718398679482725,1.5319540058204126,0.718142927126761,B,942,Correct
2,new_learn,70,453,A,36.97985397095733,57.48083988090735,1.8489926985478664,0.9029069214601486,A,1906,Correct
2,new_learn,70,454,B,62.030636161672106,33.4404564957946,3.101531808083605,0.525281462299387,B,1655,Correct
2,new_learn,70,455,A,48.645969309289256,72.89183662952216,2.432298465464463,1.1449822923098707,A,620,Correct
2,new_learn,70,456,B,64.48737629469109,48.365210909597536,3.2243688147345546,0.7597189564145628,B,436,Correct
2,new_learn,70,457,A,49.82633269905335,64.07799992024441,2.4913166349526676,1.006534869030836,A,519,Correct
2,new_learn,70,458,B,73.72485071636474,49.52791716987339,3.6862425358182374,0.7779827036423901,B,396,Correct
2,new_learn,70,459,B,57.22943416912171,30.35990845181402,2.8614717084560857,0.47689232677938803,B,760,Correct
2,new_learn,70,460,A,46.28944253831591,71.66381642070694,2.3144721269157955,1.1256925959775026,A,718,Incorrect
2,new_learn,70,461,A,34.93829599706583,54.235179194858496,1.7469147998532915,0.851924202623467,B,1085,Incorrect
2,new_learn,70,462,B,82.64827943464388,53.938819779910176,4.132413971732194,0.8472689998193481,B,642,Correct
2,new_learn,70,463,A,13.674589284208018,33.330386726700276,0.6837294642104009,0.5235524904095417,A,1079,Incorrect
2,new_learn,70,464,A,42.28834553118545,54.55379819745596,2.1144172765592724,0.8569290582127388,B,563,Correct
2,new_learn,70,465,A,42.29964024202022,74.93196644038699,2.1149820121010108,1.1770285764407833,B,870,Correct
2,new_learn,70,466,A,28.029956384930532,58.318546726797294,1.4014978192465266,0.9160655898246973,B,716,Correct
2,new_learn,70,467,B,51.107980445506,27.129072459050676,2.5553990222753002,0.426142473680294,B,667,Incorrect
2,new_learn,70,468,A,37.52815747958903,69.02007942558325,1.8764078739794514,1.0841648723679818,B,698,Incorrect
2,new_learn,70,469,A,54.06085230201913,81.9977887968562,2.703042615100957,1.2880182544740544,A,666,Correct
2,new_learn,70,470,A,34.45266215790325,65.35430599445552,1.7226331078951624,1.026583037963204,A,752,Correct
2,new_learn,70,471,A,55.540500937137566,78.49990015167722,2.777025046856878,1.2330735481202073,A,956,Incorrect
2,new_learn,70,472,B,72.85922637772359,48.60242443498794,3.6429613188861794,0.7634450977580558,B,526,Correct
2,new_learn,70,473,A,22.587700794273324,35.34333422410158,1.1293850397136662,0.5551717957590312,B,541,Incorrect
2,new_learn,70,474,B,86.71850185309066,69.44626700100156,4.3359250926545325,1.0908594111479089,A,490,Correct
2,new_learn,70,475,B,53.99938858413395,23.711213284621643,2.6999694292066976,0.3724548673133402,B,677,Correct
2,new_learn,70,476,A,40.01472345144773,65.74142698679803,2.0007361725723865,1.0326639202911723,A,1996,Correct
2,new_learn,70,477,A,31.76632643808852,43.158587713533585,1.588316321904426,0.677933510500739,A,853,Correct
2,new_learn,70,478,A,59.19993161592345,72.67656310260335,2.9599965807961723,1.1416007836564686,A,654,Incorrect
2,new_learn,70,479,A,54.21549222238269,76.21127713112514,2.7107746111191346,1.1971239417791928,B,876,Incorrect
2,new_learn,70,480,B,51.89235117765935,33.0655669199508,2.5946175588829674,0.5193927106124956,A,526,Incorrect
2,new_learn,70,481,A,33.50218665442399,49.49730587707841,1.6751093327211992,0.7775018625795822,A,1911,Incorrect
2,new_learn,70,482,A,24.746719834442697,51.144976015343275,1.237335991722135,0.803383404589143,B,470,Incorrect
2,new_learn,70,483,A,33.49525253025302,48.993142306223824,1.674762626512651,0.7695824797275604,B,612,Correct
2,new_learn,70,484,A,25.558713840838685,38.089812541462535,1.2779356920419342,0.5983133762843553,B,436,Incorrect
2,new_learn,70,485,B,77.28143315260819,46.74497815549007,3.8640716576304097,0.7342683998275147,A,1602,Incorrect
2,new_learn,70,486,B,74.0017916482508,52.88675319810956,3.7000895824125397,0.8307431765969873,B,469,Incorrect
2,new_learn,70,487,B,45.00764163534992,36.455612155855995,2.250382081767496,0.5726434166547797,B,577,Incorrect
2,new_learn,70,488,B,71.9128366468362,48.99968649457391,3.59564183234181,0.769685275597782,A,791,Incorrect
2,new_learn,70,489,B,71.07583604323189,56.60248111050929,3.5537918021615944,0.889109694158655,A,1195,Incorrect
2,new_learn,70,490,B,62.55518897295498,47.09029385321816,3.127759448647749,0.7396926061232738,B,1034,Correct
2,new_learn,70,491,A,28.355784724384876,54.165998673660184,1.4177892362192437,0.8508375175376266,B,1203,Incorrect
2,new_learn,70,492,A,50.71307747675941,77.73462129770178,2.5356538738379704,1.2210525759922228,B,655,Incorrect
2,new_learn,70,493,A,20.227332529702114,51.1740531352947,1.0113666264851056,0.8038401469212777,B,1224,Incorrect
2,new_learn,70,494,B,64.16699113552679,54.623309392653795,3.2083495567763394,0.8580209375136175,A,1502,Incorrect
2,new_learn,70,495,B,62.165389404297905,51.95876650020822,3.108269470214895,0.816166395633208,B,3459,Correct
2,new_learn,70,496,B,49.85472792847144,24.436268779979322,2.492736396423572,0.38384401240164334,B,713,Correct
2,new_learn,70,497,B,77.65119827943741,51.176991125296496,3.8825599139718703,0.8038862967603075,B,751,Incorrect
2,new_learn,70,498,B,58.039252678105115,26.33807759476398,2.901962633905256,0.4137175554069422,B,650,Correct
2,new_learn,70,499,A,48.84437071421362,57.969367085817495,2.442218535710681,0.910580688850271,A,412,Correct
2,new_learn,70,500,A,44.96443795326667,64.26008911399174,2.2482218976633335,1.0093951193977093,A,544,Correct
2,new_learn,70,501,A,57.0486039728181,75.8733377658783,2.852430198640905,1.1918156026431015,A,408,Correct
2,new_learn,70,502,A,34.33658373875812,67.28944817227531,1.7168291869379062,1.0569801802106562,A,901,Correct
2,new_learn,70,503,B,47.58409503695361,36.44951446779088,2.3792047518476807,0.5725476343946335,A,1219,Correct
2,new_learn,70,504,A,36.35745650107278,44.29557011299465,1.8178728250536391,0.695793188267778,A,514,Correct
2,new_learn,70,505,A,16.67252087364308,47.05783721791936,0.833626043682154,0.7391827784881989,A,1186,Correct
2,new_learn,70,506,A,29.810417797454342,40.35282271342824,1.490520889872717,0.6338606569405875,A,654,Incorrect
2,new_learn,70,507,A,36.48628426309261,53.9193973779115,1.8243142131546304,0.8469639134421775,A,804,Incorrect
2,new_learn,70,508,A,56.12196507287031,76.72573159229313,2.8060982536435155,1.205204973558252,B,599,Correct
2,new_learn,70,509,A,27.51514013318793,51.28909788358336,1.3757570066593965,0.8056472656015665,B,395,Incorrect
2,new_learn,70,510,A,58.399112157794036,71.01914312029135,2.919955607889702,1.115566091454747,B,578,Incorrect
2,new_learn,70,511,A,47.63876628042023,64.38054937442254,2.3819383140210113,1.011287304743804,A,1471,Incorrect
2,new_learn,70,512,B,72.46862948420963,56.44061579614597,3.623431474210481,0.8865671197462812,B,1144,Correct
2,new_learn,70,513,B,75.45622575760922,55.41323750578266,3.7728112878804607,0.870429099298966,B,447,Correct
2,new_learn,70,514,B,74.00502778051991,58.89055311661264,3.7002513890259956,0.925050645184949,B,379,Correct
2,new_learn,70,515,A,43.31755151030865,53.20863515694416,2.1658775755154323,0.8357992865829769,B,350,Incorrect
2,new_learn,70,516,B,49.09764546469347,29.132129275990966,2.4548822732346736,0.45760641658440676,A,692,Incorrect
2,new_learn,70,517,A,29.24483478921579,43.66016919048177,1.4622417394607896,0.6858123339165247,B,478,Incorrect
2,new_learn,70,518,B,47.03762591531337,35.87445078554148,2.3518812957656685,0.5635145551971285,B,1494,Incorrect
2,new_learn,70,519,A,32.11632276809567,57.84557223384379,1.6058161384047835,0.908636123862707,A,670,Correct
2,new_learn,70,520,A,59.899948442262634,77.69648255299623,2.9949974221131317,1.2204534939913023,A,817,Correct
2,new_learn,70,521,B,51.97672935197911,37.10080426942501,2.5988364675989555,0.5827780706754924,A,623,Incorrect
2,new_learn,70,522,B,80.15583332276721,59.438275063501365,4.007791666138361,0.9336542414077263,B,754,Correct
2,new_learn,70,523,A,64.93928273981093,75.84120482739817,3.246964136990547,1.1913108596257642,B,720,Correct
2,new_learn,70,524,A,66.43161190458923,85.01798772781994,3.3215805952294613,1.3354594283435315,B,565,Correct
2,new_learn,70,525,A,67.0107810675801,89.82434748553824,3.3505390533790047,1.4109575508703185,B,515,Incorrect
2,new_learn,70,526,B,43.01111071635144,19.03250963338835,2.150555535817572,0.298961962218149,B,3063,Correct
2,new_learn,70,527,B,68.02067024792944,50.93767099830229,3.4010335123964723,0.8001270649962018,B,530,Correct
2,new_learn,70,528,B,85.64663569704058,69.36248001070219,4.282331784852029,1.0895432881819542,B,714,Correct
2,new_learn,70,529,A,27.069967491998014,57.53070638565606,1.3534983745999005,0.9036902226850423,B,831,Incorrect
2,new_learn,70,530,A,65.04709166675724,86.80559398527302,3.252354583337862,1.36353908177316,A,1151,Correct
2,new_learn,70,531,B,77.44269261631969,49.48892271459276,3.8721346308159843,0.7773701801711883,A,648,Incorrect
2,new_learn,70,532,B,59.00610777035437,27.21482923506412,2.950305388517718,0.42748953796789085,B,1051,Correct
2,new_learn,70,533,A,36.98962552050864,55.117167952851716,1.849481276025432,0.8657784496367685,B,879,Correct
2,new_learn,70,534,B,52.48905909553529,26.615275573908463,2.6244529547767645,0.41807177108129345,B,509,Incorrect
2,new_learn,70,535,A,44.55474264178712,54.59222703834235,2.227737132089356,0.8575326970338121,B,1161,Incorrect
2,new_learn,70,536,A,61.94128484221648,82.90602104954777,3.0970642421108243,1.3022847333381,A,508,Incorrect
2,new_learn,70,537,B,35.19139674226941,11.060693827721025,1.7595698371134705,0.1737409723638717,B,730,Correct
2,new_learn,70,538,B,75.69364094670236,63.14984455903195,3.784682047335118,0.9919554387099606,B,922,Incorrect
2,new_learn,70,539,A,56.634126228328114,66.04600930068797,2.8317063114164056,1.0374482880898224,B,1080,Incorrect
2,new_learn,70,540,B,66.61421756674349,44.23881679859646,3.3307108783371744,0.6949017092898768,A,425,Correct
2,new_learn,70,541,A,63.01923100027753,81.18011410779617,3.1509615500138763,1.275174250493168,A,700,Incorrect
2,new_learn,70,542,B,38.72475806473888,11.634211310525313,1.936237903236944,0.182749763917288,A,857,Correct
2,new_learn,70,543,A,62.92046624569278,82.64267842722977,3.1460233122846386,1.2981481570998437,B,968,Correct
2,new_learn,70,544,A,47.78615079888906,78.4888702125334,2.3893075399444528,1.2329002902412884,B,598,Incorrect
2,new_learn,70,545,A,29.821035662331813,38.96696781655683,1.4910517831165908,0.6120916991258242,A,903,Incorrect
2,new_learn,70,546,A,60.95458451620387,79.1742616961441,3.0477292258101936,1.2436663944900104,B,774,Incorrect
2,new_learn,70,547,B,67.3207342570636,55.34757722934599,3.36603671285318,0.8693977100885353,A,2613,Incorrect
2,new_learn,70,548,B,52.716900761750054,33.61020791548436,2.6358450380875023,0.5279479113645559,B,3072,Correct
2,new_learn,70,549,A,58.973553044222776,68.36439912869587,2.948677652211139,1.073865470348957,A,2043,Incorrect
2,new_learn,70,550,B,72.93820662867873,63.321015985896146,3.646910331433936,0.9946441931956659,B,1516,Correct
2,new_learn,70,551,B,46.73026526898974,18.105536093757795,2.336513263449487,0.28440109590727164,B,2916,Correct
2,new_learn,70,552,B,37.59221161369986,20.84548947557573,1.8796105806849932,0.3274401829847603,B,619,Correct
2,new_learn,70,553,B,49.92939355068404,24.610056762715097,2.496469677534202,0.38657386765086776,B,624,Incorrect
2,new_learn,70,554,A,16.8763377152672,37.03250905742317,0.84381688576336,0.5817052919939906,A,692,Incorrect
2,new_learn,70,555,A,38.3068162020596,67.94415792927548,1.9153408101029799,1.0672643370247827,B,764,Correct
2,new_learn,70,556,B,79.27136662855804,57.33605244079829,3.963568331427902,0.9006326056692552,B,576,Correct
2,new_learn,70,557,B,75.60806260951492,45.37488310123406,3.780403130475746,0.7127469970416628,B,661,Incorrect
2,new_learn,70,558,B,44.31596822119325,20.540203852268007,2.2157984110596627,0.32264476762760963,A,575,Correct
2,new_learn,70,559,B,82.42076442580398,60.51664829168689,4.121038221290199,0.9505932884652043,B,845,Correct
2,new_learn,70,560,B,78.5980948976659,54.499846077920566,3.9299047448832947,0.8560815803008487,B,802,Incorrect
2,new_learn,70,561,A,40.06902887180776,52.953554351295594,2.0034514435903876,0.8317924866574903,A,1468,Incorrect
2,new_learn,70,562,B,39.619259036212476,22.818141131077617,1.9809629518106238,0.3584265227298427,B,526,Correct
2,new_learn,70,563,A,25.943484252501236,45.03943058421437,1.2971742126250618,0.7074777212261766,100,1387,Correct
2,new_learn,70,564,B,53.44632856231108,46.04861590740373,2.672316428115554,0.7233299672133882,B,808,Correct
2,new_learn,70,565,B,48.374125538533285,21.866857014521827,2.4187062769266645,0.34348378676960106,B,865,Correct
2,new_learn,70,566,B,83.26287865059199,53.60590269893774,4.163143932529599,0.8420395505401603,B,1923,Correct
2,new_learn,70,567,A,46.16998754827428,69.109983965441,2.308499377413714,1.0855770895776893,B,647,Incorrect
2,new_learn,70,568,B,72.54229987296686,40.64405130561876,3.627114993648343,0.6384352649692926,B,550,Incorrect
2,new_learn,70,569,A,56.31160824463451,75.75767962252134,2.8155804122317254,1.189998848775611,A,574,Correct
2,new_learn,70,570,B,80.30323430370854,57.88912004550959,4.015161715185427,0.9093201712887529,B,1175,Incorrect
2,new_learn,70,571,B,64.40794658061948,36.74863466960008,3.2203973290309738,0.577246203537354,B,1178,Correct
2,new_learn,70,572,A,46.25567179555852,67.7074321140974,2.312783589777926,1.0635458566153901,B,6350,Incorrect
2,new_learn,70,573,A,57.484712845743005,66.39154939152391,2.8742356422871502,1.042876019144277,A,1212,Incorrect
2,new_learn,70,574,B,65.94008201547746,39.686307101794505,3.297004100773873,0.6233910541955303,B,592,Correct
2,new_learn,70,575,B,41.06925427925108,32.410375017536936,2.053462713962554,0.509100980275921,B,596,Correct
2,new_learn,70,576,A,42.99575569221282,66.47738879449047,2.149787784610641,1.0442243813330183,A,834,Correct
2,new_learn,70,577,B,68.71800742925343,39.56985508827575,3.4359003714626715,0.6215618302446989,B,11503,Correct
2,new_learn,70,578,A,49.243529422467404,73.81801017465894,2.4621764711233705,1.1595305923366257,A,681,Correct
2,new_learn,70,579,A,29.005448088461314,41.628045960793436,1.4502724044230657,0.6538918168686347,B,1575,Correct
2,new_learn,70,580,B,42.053090260634136,15.818685193199371,2.1026545130317067,0.24847932596202393,B,593,Incorrect
2,new_learn,70,581,A,62.17063394560971,73.7558409801936,3.1085316972804855,1.158554040913566,A,527,Incorrect
2,new_learn,70,582,A,23.564482075876743,40.50211181324312,1.178224103793837,0.6362056846367847,B,685,Incorrect
2,new_learn,70,583,B,67.04724120574015,48.20201711909639,3.3523620602870072,0.7571555143478133,A,767,Correct
2,new_learn,70,584,A,50.681585701299156,77.75010725557367,2.5340792850649576,1.2212958288496434,A,631,Correct
2,new_learn,70,585,A,52.640803537865615,67.74678053843952,2.6320401768932804,1.064163940219608,A,619,Incorrect
2,new_learn,70,586,A,45.81101982901185,77.88722712259825,2.2905509914505924,1.2234497026841717,B,1339,Incorrect
2,new_learn,70,587,B,62.37021623838614,39.80629440615531,3.118510811919307,0.62527581036505,A,583,Incorrect
2,new_learn,70,588,B,38.58607278934035,12.556707607506048,1.9293036394670173,0.19724030186508038,B,4606,Correct
2,new_learn,70,589,A,49.06395760125436,79.35174182939505,2.4531978800627177,1.246454245903907,A,782,Correct
2,new_learn,70,590,A,54.79051940479898,78.79906207248828,2.739525970239949,1.2377727725834766,A,489,Correct
2,new_learn,70,591,B,71.19215382984615,54.52728331803591,3.559607691492307,0.8565125634607544,A,1311,Incorrect
2,new_learn,70,592,B,53.49347857467122,24.240019417747387,2.674673928733561,0.38076133462834566,B,325,Incorrect
2,new_learn,70,593,A,46.50266095261771,68.1729260399944,2.3251330476308856,1.0708578181048336,A,645,Correct
2,new_learn,70,594,B,57.94240534430667,47.27631060279061,2.8971202672153336,0.742614550392781,A,951,Incorrect
2,new_learn,70,595,B,48.25502482072007,21.224154723514527,2.4127512410360032,0.3333882427902317,B,434,Correct
2,new_learn,70,596,A,15.642644408114435,45.37039167247678,0.7821322204057217,0.7126764458437228,A,858,Correct
2,new_learn,70,597,B,76.94142756975953,54.39146911904694,3.847071378487976,0.8543791990117698,B,597,Incorrect
2,new_learn,70,598,B,60.100966932050696,40.125178828050785,3.005048346602535,0.6302848351509053,A,779,Incorrect
2,new_learn,70,599,B,84.4394634152632,61.00957031135373,4.22197317076316,0.958336089444094,B,508,Correct
2,new_learn,70,600,B,53.60590269893774,16.737121349408014,2.6802951349468866,0.2629060873677055,B,730,Correct
2,new_learn,70,601,B,53.8652502345631,21.64958957640063,2.693262511728155,0.34007095783227187,A,914,Incorrect
2,new_learn,70,602,B,60.602086338978204,25.554892597947585,3.03010431694891,0.4014153142449416,B,600,Correct
2,new_learn,70,603,B,59.365213749767314,28.74292882400401,2.9682606874883657,0.4514928701807266,B,351,Correct
2,new_learn,70,604,B,31.18403520675654,56.95178270797928,1.559201760337827,0.8945965108211495,A,612,Incorrect
2,new_learn,70,605,B,56.60248111050929,28.924163956768112,2.8301240555254648,0.45433970498904686,B,347,Correct
2,new_learn,70,606,B,49.955541721164906,35.84860978905573,2.497777086058245,0.563108645773523,B,397,Correct
2,new_learn,70,607,B,51.37357056755994,40.14620537843746,2.5686785283779967,0.6306151194320309,B,486,Correct
2,new_learn,70,608,B,33.36594908468815,47.329905097023136,1.6682974542344073,0.7434564107395499,B,399,Correct
2,new_learn,70,609,A,61.868633184611696,63.653215114175374,3.0934316592305846,0.9998623649003207,B,857,Incorrect
2,new_learn,70,610,B,31.752016046392058,35.62350267594522,1.5876008023196027,0.5595726715094291,A,484,Incorrect
2,new_learn,70,611,A,44.31156307010658,76.01114049496582,2.215578153505329,1.1939802028498312,B,1672,Incorrect
2,new_learn,70,612,A,72.4012465211539,40.722837141903504,3.6200623260576945,0.6396728299916881,B,869,Incorrect
2,new_learn,70,613,A,73.81801017465894,50.756470577532596,3.6909005087329465,0.7972807754426144,A,760,Correct
2,new_learn,70,614,B,31.978636665791065,57.32891531840464,1.5989318332895532,0.9005204960128569,A,1601,Incorrect
2,new_learn,70,615,B,63.36000225736258,17.544993160471535,3.1680001128681288,0.27559610810110274,B,625,Correct
2,new_learn,70,616,A,83.11103482947185,39.03527949658063,4.155551741473593,0.6131647364864099,B,779,Incorrect
2,new_learn,70,617,A,34.718705846648916,83.13180502488092,1.7359352923324456,1.3058313397291246,A,1499,Correct
2,new_learn,70,618,A,40.16894618161581,79.30311766225977,2.0084473090807906,1.245690459272611,A,571,Correct
2,new_learn,70,619,A,43.628532912804545,72.91624247466217,2.181426645640227,1.1453656584288534,A,3472,Correct
2,new_learn,70,620,A,36.41309343707131,82.73678858105485,1.8206546718535657,1.299626435939269,A,587,Correct
2,new_learn,70,621,B,14.764514150752504,59.38822149053192,0.7382257075376252,0.9328680017220928,B,1712,Correct
2,new_learn,70,622,A,61.73038056839541,45.7254713285074,3.0865190284197705,0.7182540240378479,B,745,Incorrect
2,new_learn,70,623,A,60.17620990400415,50.40927431687168,3.008810495200208,0.7918270293333834,A,690,Correct
2,new_learn,70,624,A,68.67103141324506,55.758135189279976,3.4335515706622526,0.8758467394425425,A,591,Correct
2,new_learn,70,625,A,52.95586564925661,54.58898413916282,2.6477932824628305,0.8574817576926183,A,419,Correct
2,new_learn,70,626,A,48.856994100515976,67.95310017937321,2.442849705025799,1.0674048015608506,A,564,Correct
2,new_learn,70,627,A,47.05783721791936,83.32747912635692,2.352891860895968,1.3089049813275986,A,465,Correct
2,new_learn,70,628,B,52.39192000880818,37.21140789345896,2.6195960004404086,0.5845154283391196,B,919,Correct
2,new_learn,70,629,B,63.82807235850006,19.362896264653386,3.191403617925003,0.3041516632862816,B,504,Correct
2,new_learn,70,630,A,83.3832830340792,35.36484012944889,4.16916415170396,0.5555096097302707,B,865,Incorrect
2,new_learn,70,631,A,72.52272641385821,45.04516675678774,3.6261363206929103,0.7075678248142576,A,674,Correct
2,new_learn,70,632,A,69.43469247323576,47.05750840718034,3.471734623661788,0.7391776135411885,A,573,Correct
2,new_learn,70,633,B,27.935762620701695,61.63642982178102,1.3967881310350847,0.9681827756080505,B,799,Correct
2,new_learn,70,634,B,48.53054259513549,28.21507604756563,2.4265271297567748,0.4432013781575476,A,507,Incorrect
2,new_learn,70,635,A,62.91566023448,51.25861913838999,3.145783011724,0.8051685065916158,B,623,Incorrect
2,new_learn,70,636,B,68.27531698152686,11.542258379084359,3.413765849076343,0.1813053706478333,B,2426,Correct
2,new_learn,70,637,A,43.177199895809956,79.87393300871148,2.158859994790498,1.2546568057674563,A,523,Correct
2,new_learn,70,638,B,55.05656566187015,30.172282253295265,2.7528282830935074,0.4739451013449505,B,594,Correct
2,new_learn,70,639,A,56.20089082531866,58.63303410402812,2.810044541265933,0.9210055459944726,A,537,Correct
2,new_learn,70,640,A,33.330386726700276,86.32541071579197,1.666519336335014,1.3559963806142683,A,499,Correct
2,new_learn,70,641,A,58.318546726797294,71.97004361506947,2.915927336339865,1.1305028014981964,A,449,Correct
2,new_learn,70,642,B,63.72377712946182,16.229791189634867,3.186188856473091,0.25493696385326625,B,559,Correct
2,new_learn,70,643,B,51.75738621691325,18.926019133761713,2.587869310845662,0.2972892133616283,B,464,Correct
2,new_learn,70,644,B,58.41392879764666,21.937788921392894,2.920696439882333,0.3445979825572574,B,448,Correct
2,new_learn,70,645,B,64.49961208793611,17.467851788820553,3.2249806043968055,0.2743843742687699,B,402,Correct
2,new_learn,70,646,B,20.079865987125874,60.816205450763206,1.0039932993562937,0.9552987213166262,A,528,Incorrect
2,new_learn,70,647,B,55.52816269972789,26.088477144400656,2.776408134986395,0.40979684070097167,B,554,Correct
2,new_learn,70,648,B,61.255558038073076,25.68779606051865,3.062777901903654,0.40350295695319116,A,2002,Incorrect
2,new_learn,70,649,A,47.83516080524019,74.84338177331185,2.39175804026201,1.1756370917442636,A,529,Correct
2,new_learn,70,650,A,73.75305220003789,37.97673641367858,3.6876526100018943,0.596537180622643,A,748,Correct
2,new_learn,70,651,B,47.92540793030625,25.739872856790598,2.3962703965153125,0.4043209773561433,A,1272,Incorrect
2,new_learn,70,652,B,57.66834159543073,15.492624397543906,2.8834170797715366,0.24335757496074967,B,551,Correct
2,new_learn,70,653,A,72.67656310260335,40.80006838407655,3.633828155130168,0.6408859755068804,B,696,Incorrect
2,new_learn,70,654,B,24.436268779979322,50.14527207152856,1.221813438998966,0.7876800917608777,A,579,Incorrect
2,new_learn,70,655,B,34.75296249572977,38.903477672316896,1.7376481247864886,0.6110943982722266,A,1769,Incorrect
2,new_learn,70,656,B,54.573536917544786,33.8401891221189,2.7286768458772395,0.5315604477106898,B,574,Correct
2,new_learn,70,657,A,44.15799662635701,63.552346348279976,2.2078998313178504,0.9982779220307524,A,1022,Correct
2,new_learn,70,658,A,80.41040323166521,50.36287498458101,4.020520161583261,0.7910981903261043,A,751,Correct
2,new_learn,70,659,B,21.875163042271,54.86519888590452,1.09375815211355,0.8618205287885027,A,786,Incorrect
2,new_learn,70,660,B,23.342918136363735,64.67321932643708,1.1671459068181869,1.0158845535996808,B,727,Correct
2,new_learn,70,661,A,64.59049875124353,48.81011213072303,3.229524937562177,0.7667074484538675,A,1996,Correct
2,new_learn,70,662,B,26.33807759476398,41.960747321894885,1.316903879738199,0.6591178776280128,B,916,Correct
2,new_learn,70,663,B,21.86610169111062,48.31167496833605,1.0933050845555312,0.7588780158157121,A,671,Incorrect
2,new_learn,70,664,B,40.307953348613786,28.84698022302085,2.015397667430689,0.4531273057344618,B,567,Correct
2,new_learn,70,665,B,18.002704103818058,64.55781222001589,0.900135205190903,1.0140717430111565,B,670,Correct
2,new_learn,70,666,B,64.21244837430775,21.385059020205745,3.210622418715388,0.3359157215723125,B,574,Correct
2,new_learn,70,667,B,18.105536093757795,53.26973473101026,0.9052768046878897,0.8367590364480944,B,1104,Correct
2,new_learn,70,668,B,18.032202289262607,59.53604590408176,0.9016101144631304,0.9351900221802396,B,557,Correct
2,new_learn,70,669,B,64.04606844215547,21.66194208266539,3.2023034221077737,0.34026499054694587,A,1371,Incorrect
2,new_learn,70,670,A,56.051776325950335,75.08704600842538,2.8025888162975168,1.1794645605991398,B,816,Incorrect
2,new_learn,70,671,A,53.196896348638425,56.12784819517958,2.6598448174319214,0.8816541777588965,A,1805,Correct
2,new_learn,70,672,A,43.04749352429528,73.31202221214569,2.1523746762147637,1.1515825520074432,A,504,Correct
2,new_learn,70,673,B,20.022437906375902,65.60183494150606,1.001121895318795,1.0304712135712282,B,2385,Correct
2,new_learn,70,674,A,87.7880234331542,31.818527233713482,4.38940117165771,0.49980425702740516,B,7258,Incorrect
2,new_learn,70,675,B,35.87445078554148,52.96237408468663,1.793722539277074,0.8319310267056298,A,1463,Incorrect
2,new_learn,70,676,A,54.59222703834235,55.44525735821288,2.729611351917118,0.870932065964785,B,698,Incorrect
2,new_learn,70,677,A,72.43841843937486,43.40934431844292,3.621920921968743,0.6818723860398506,B,913,Incorrect
2,new_learn,70,678,B,44.71328138021206,28.359517588442927,2.235664069010603,0.44547026057601413,A,437,Incorrect
2,new_learn,70,679,A,31.636075656348137,84.54219879716148,1.5818037828174067,1.3279857532974515,A,1047,Correct
2,new_learn,70,680,A,58.59118506759452,48.96390421747235,2.9295592533797263,0.769123208903427,A,827,Correct
2,new_learn,70,681,B,53.779880252662295,32.70782809347497,2.6889940126331147,0.5137733622666941,A,452,Incorrect
2,new_learn,70,682,A,60.6427144789373,56.959063225241295,3.032135723946865,0.8947108729188731,A,544,Correct
2,new_learn,70,683,A,47.87570226166014,70.59348388578007,2.393785113083007,1.1088798518343808,A,618,Correct
2,new_learn,70,684,A,33.50277930201701,85.41069993721092,1.6751389651008506,1.3416281373035202,A,552,Correct
2,new_learn,70,685,A,49.98558883089247,75.12561404204433,2.4992794415446236,1.1800703858545434,A,1031,Correct
2,new_learn,70,686,A,37.558057314370586,77.50986739683819,1.8779028657185293,1.2175221499731292,A,440,Correct
2,new_learn,70,687,B,46.77301980761855,43.24841157026329,2.3386509903809274,0.6793444603428347,A,2180,Incorrect
2,new_learn,70,688,A,52.319086367399535,77.1423287426162,2.615954318369977,1.211748866293059,B,1004,Incorrect
2,new_learn,70,689,B,53.938819779910176,17.351720565356118,2.696940988995509,0.2725601892763285,B,4381,Correct
2,new_learn,70,690,A,37.51719511546699,73.96209504498545,1.8758597557733494,1.1617938721871814,A,443,Correct
2,new_learn,70,691,B,23.757530040025323,60.94293673558707,1.1878765020012663,0.9572894116835392,A,673,Incorrect
2,new_learn,70,692,A,46.16698269870171,61.197856789330096,2.3083491349350855,0.9612936865239983,B,481,Incorrect
2,new_learn,70,693,B,21.67124118012082,55.03878268288837,1.0835620590060409,0.8645471766954361,B,592,Correct
2,new_learn,70,694,B,64.48057821900625,17.717688041457123,3.224028910950312,0.2783087929481871,B,700,Correct
2,new_learn,70,695,B,13.836749972545626,66.7857076199226,0.6918374986272812,1.0490674421177235,A,667,Incorrect
2,new_learn,70,696,A,66.51091605475779,44.12384742105016,3.3255458027378895,0.6930957745304405,B,462,Incorrect
2,new_learn,70,697,B,27.21482923506412,40.99389222964563,1.360741461753206,0.643930553353532,B,753,Correct
2,new_learn,70,698,A,66.61864414160812,58.25453229349228,3.330932207080406,0.9150600534577235,A,1040,Correct
2,new_learn,70,699,A,66.96248842649985,55.45109018474236,3.348124421324992,0.8710236877896584,A,527,Correct
2,new_learn,70,700,B,54.39146911904694,23.058572430240474,2.719573455952347,0.3622032087455581,B,1305,Correct
2,new_learn,70,701,A,38.089812541462535,74.44128615916131,1.904490627073127,1.1693209886069835,A,1405,Correct
2,new_learn,70,702,B,56.964986304189516,15.134493398612875,2.848249315209476,0.23773206638442715,B,692,Correct
2,new_learn,70,703,B,64.8667549722245,24.141507828893438,3.243337748611225,0.3792139182091605,B,583,Correct
2,new_learn,70,704,B,69.44626700100156,13.281498146909342,3.472313350050078,0.20862528503498423,B,669,Correct
2,new_learn,70,705,A,75.84120482739817,35.060717260189065,3.7920602413699087,0.5507324588709942,B,1012,Incorrect
2,new_learn,70,706,A,55.117167952851716,63.01037447949136,2.755858397642586,0.9897646478235592,A,519,Correct
2,new_learn,70,707,B,46.590572237574065,45.901423991508416,2.329528611878703,0.7210178820051656,A,847,Incorrect
2,new_learn,70,708,B,10.790907327434113,67.89942772780996,0.5395453663717056,1.0665617166631944,B,868,Correct
2,new_learn,70,709,B,58.89055311661264,25.99497221948009,2.944527655830632,0.4083280687749471,B,679,Correct
2,new_learn,70,710,A,68.42235920938869,57.362870185442844,3.4211179604694344,0.901053857817061,B,573,Incorrect
2,new_learn,70,711,A,49.60994577245917,70.32954788748799,2.4804972886229586,1.1047339548681192,A,574,Correct
2,new_learn,70,712,A,89.89311908193989,32.1626514379891,4.494655954096994,0.5052097473877788,B,598,Incorrect
2,new_learn,70,713,A,56.75984301908189,54.390915913156235,2.837992150954095,0.8543705092739591,B,684,Incorrect
2,new_learn,70,714,A,69.63348048270106,44.38221681985383,3.4816740241350534,0.6971542315564108,A,4818,Correct
2,new_learn,70,715,A,66.59523531914472,52.67529193332888,3.329761765957236,0.8274215508172185,A,498,Correct
2,new_learn,70,716,B,25.922885171668973,62.87344696805951,1.2961442585834488,0.9876137955036159,B,739,Correct
2,new_learn,70,717,B,33.61020791548436,47.283099238249946,1.6805103957742178,0.7427211860292159,B,646,Correct
2,new_learn,70,718,A,75.75767962252134,43.68839175536549,3.7878839811260665,0.6862556529290456,A,577,Correct
2,new_learn,70,719,A,64.38054937442254,52.36123371957977,3.2190274687211273,0.8224883359316498,A,891,Correct
2,new_learn,70,720,A,42.9652617393871,80.99967700721109,2.1482630869693553,1.2723399511450022,A,901,Correct
2,new_learn,70,721,B,32.65846005751425,45.507251799779965,1.6329230028757125,0.7148262396962481,A,1045,Incorrect
2,new_learn,70,722,A,81.1927835463126,44.74733911997414,4.05963917731563,0.7028895592350096,A,1182,Correct
2,new_learn,70,723,B,17.739558549751614,54.716232871385294,0.8869779274875808,0.859480576104262,B,541,Correct
2,new_learn,70,724,B,22.309659480102294,45.718148615550135,1.1154829740051146,0.7181389991316933,B,578,Correct
2,new_learn,70,725,A,70.80319782847116,40.65068343463469,3.540159891423558,0.6385394422082633,B,777,Incorrect
2,new_learn,70,726,B,33.4404564957946,37.969363838327894,1.67202282478973,0.5964213724798443,A,477,Incorrect
2,new_learn,70,727,A,78.49990015167722,44.459499062862434,3.9249950075838616,0.6983681781908545,A,2388,Correct
2,new_learn,70,728,A,55.14573239695753,54.60134276502108,2.7572866198478767,0.857675886533642,A,457,Correct
2,new_learn,70,729,A,86.56597313943071,30.94994034639234,4.328298656971535,0.4861605261063426,A,861,Correct
2,new_learn,70,730,B,14.33126799157695,56.605076224375026,0.7165633995788475,0.8891504581119343,B,617,Correct
2,new_learn,70,731,B,20.063922593247987,60.99226926334455,1.0031961296623992,0.958064325217469,B,469,Correct
2,new_learn,70,732,B,42.38057512164911,44.02300181002346,2.1190287560824554,0.6915116953766993,B,3186,Correct
2,new_learn,70,733,A,83.53746414677997,34.8924886540284,4.176873207338998,0.5480899301048041,A,1428,Correct
2,new_learn,70,734,B,26.83213655747801,47.46342388832827,1.3416068278739004,0.7455537190089518,B,590,Correct
2,new_learn,70,735,B,15.27420715217346,59.00915319294664,0.763710357608673,0.9269136108275793,B,804,Correct
2,new_learn,70,736,A,50.434587583911245,74.5064298253032,2.521729379195562,1.1703442629218799,A,522,Correct
2,new_learn,70,737,A,46.059999742786616,76.20706695230906,2.3029999871393305,1.1970578084449983,A,580,Correct
2,new_learn,70,738,B,39.686307101794505,34.05991798452254,1.9843153550897252,0.5350119406102345,B,653,Correct
2,new_learn,70,739,B,38.85364635454978,30.99993548028185,1.942682317727489,0.48694584783305517,A,331,Incorrect
2,new_learn,70,740,A,61.7779809614173,49.40913757286078,3.088899048070865,0.7761169180955343,B,2072,Incorrect
2,new_learn,70,741,A,41.37959472053168,77.60116590316807,2.068979736026584,1.2189562635569777,A,662,Correct
2,new_learn,70,742,A,43.9100051553462,65.91856164195968,2.1955002577673097,1.0354463449479323,A,1237,Correct
2,new_learn,70,743,B,21.72466714709548,56.656706611569994,1.0862333573547742,0.8899614663375028,B,526,Correct
2,new_learn,70,744,A,74.1520847976552,56.09458095105679,3.7076042398827607,0.8811316171101898,A,514,Correct
2,new_learn,70,745,A,57.84557223384379,67.88367723190433,2.8922786116921895,1.0663143084520568,A,781,Correct
2,new_learn,70,746,B,16.209489497414424,59.709400153996945,0.8104744748707212,0.9379130643702502,B,630,Correct
2,new_learn,70,747,A,40.50211181324312,76.43551792412326,2.025105590662156,1.200646307918783,A,531,Correct
2,new_learn,70,748,B,13.104057763421643,65.74498241833074,0.6552028881710822,1.03271976887909,B,467,Correct
2,new_learn,70,749,B,37.97463129549771,51.64767608765115,1.8987315647748855,0.8112797988597505,A,828,Incorrect
2,new_learn,70,750,A,45.27618370393963,78.67620704442636,2.2638091851969815,1.235842970315397,A,1164,Correct
2,new_learn,70,751,B,41.4034130152633,47.951217476634596,2.070170650763165,0.7532159627764088,B,495,Correct
2,new_learn,70,752,A,49.36441706307987,70.32642027212944,2.4682208531539938,1.1046848264009508,A,538,Correct
2,new_learn,70,753,A,52.2086587051727,65.35237877379221,2.6104329352586353,1.0265527652518158,A,447,Correct
2,new_learn,70,754,A,85.01798772781994,33.56838809541077,4.250899386390997,0.5272910071669676,B,722,Incorrect
2,new_learn,70,755,A,59.730800772088045,72.10641571386019,2.9865400386044025,1.1326449294167737,A,377,Correct
2,new_learn,70,756,B,59.438275063501365,19.844166677232792,2.971913753175068,0.31171144124902955,B,550,Correct
2,new_learn,70,757,A,55.331877570889695,61.63350747781708,2.766593878544485,0.9681368715364087,A,1346,Correct
2,new_learn,70,758,B,60.047226749701096,16.922834452511623,3.002361337485055,0.2658232619696338,A,581,Incorrect
2,new_learn,70,759,A,79.32721320090569,44.88990802544222,3.9663606600452845,0.7051290263652538,B,478,Incorrect
2,new_learn,70,760,B,44.91596550172728,24.186595195356347,2.2457982750863636,0.37992214890540843,B,1848,Correct
2,new_learn,70,761,B,28.324719697899106,58.12955936619845,1.4162359848949553,0.9130969833063041,A,854,Incorrect
2,new_learn,70,762,B,27.237483802528445,51.1930705736129,1.3618741901264224,0.8041388721438305,B,4744,Correct
2,new_learn,70,763,A,70.49087346214277,62.30386666296918,3.5245436731071385,0.97866684899311,A,819,Correct
2,new_learn,70,764,B,56.97030795216989,30.585457999973954,2.8485153976084945,0.48043525079698673,B,664,Correct
2,new_learn,70,765,B,54.52728331803591,28.80784617015385,2.7263641659017956,0.45251258946950096,B,637,Correct
2,new_learn,70,766,A,50.97217208056664,73.83387653034812,2.5486086040283316,1.1597798204689873,A,636,Correct
2,new_learn,70,767,B,41.04537802711204,27.728726994602468,2.052268901355602,0.43556182509820046,B,467,Correct
2,new_learn,70,768,A,37.50908568411099,77.13182125406898,1.8754542842055497,1.2115838150489207,A,581,Correct
2,new_learn,70,769,B,44.84911333958901,35.15361695906597,2.2424556669794504,0.5521917239285561,A,467,Incorrect
2,new_learn,70,770,A,66.04600930068797,43.365873771671886,3.3023004650343983,0.6811895522879334,B,317,Incorrect
2,new_learn,70,771,A,82.16621228416504,43.4004997606997,4.108310614208253,0.6817334560516988,A,861,Correct
2,new_learn,70,772,B,48.41602391029176,39.61269346465157,2.420801195514588,0.6222347338872689,A,772,Incorrect
2,new_learn,70,773,B,20.944160074560745,56.014658714279435,1.0472080037280371,0.8798762015505989,B,539,Correct
2,new_learn,70,774,A,77.75010725557367,49.318414298700844,3.887505362778683,0.7746918402374818,B,681,Incorrect
2,new_learn,70,775,B,54.499846077920566,21.401905102334098,2.724992303896028,0.33618033921159357,A,534,Incorrect
2,new_learn,70,776,A,38.67651834396119,73.08252927824427,1.9338259171980596,1.1479776854314658,B,2738,Incorrect
2,new_learn,70,777,B,23.903676091863424,53.59867847797835,1.195183804593171,0.8419260727426907,A,2546,Incorrect
2,new_learn,70,778,B,40.400279751751455,51.958301711942894,2.0200139875875727,0.8161590947562088,B,4317,Correct
2,new_learn,70,779,B,20.74793379344634,60.89173808796579,1.037396689672317,0.9564851852073356,A,3929,Incorrect
2,new_learn,70,780,A,54.840502479145314,62.40690178857234,2.7420251239572657,0.980285320961393,B,767,Incorrect
2,new_learn,70,781,A,64.26008911399174,55.03556204673333,3.213004455699587,0.8644965870610133,B,4916,Incorrect
2,new_learn,70,782,B,46.436381414142325,22.87610679639812,2.3218190707071162,0.35933704527149934,A,1641,Incorrect
2,new_learn,70,783,B,42.63385116102205,43.639987841266624,2.1316925580511024,0.6854953260243557,B,1074,Correct
2,new_learn,70,784,B,47.713668204526996,44.7155429122904,2.3856834102263496,0.7023901055726534,B,449,Correct
2,new_learn,70,785,A,44.23741511320159,69.44963749111938,2.2118707556600796,1.0909123546828745,A,770,Correct
2,new_learn,70,786,A,55.98992869630817,53.30483066501871,2.7994964348154086,0.8373103220903535,B,603,Incorrect
2,new_learn,70,787,B,23.106374941856547,63.14264847701922,1.1553187470928272,0.9918424029180315,B,899,Correct
2,new_learn,70,788,A,47.89756401177103,73.73097543119462,2.394878200588552,1.1581634537832528,A,608,Correct
2,new_learn,70,789,A,73.85487854535566,51.065815707196435,3.6927439272677827,0.8021399573764929,B,569,Incorrect
2,new_learn,70,790,B,21.471369844531697,58.68734756121165,1.073568492226585,0.921858699784867,B,1012,Correct
2,new_learn,70,791,B,36.44951446779088,52.41590496304639,1.822475723389544,0.8233471098158365,B,550,Correct
2,new_learn,70,792,B,58.18256138391088,14.1398709284841,2.909128069195544,0.2221085731581677,B,658,Correct
2,new_learn,70,793,A,63.49731988668283,66.93969464023702,3.1748659943341413,1.0514862645765635,A,727,Correct
2,new_learn,70,794,A,87.04255098018668,32.10039655546066,4.352127549009333,0.5042318499797716,B,457,Incorrect
2,new_learn,70,795,A,56.51502770102463,57.53115624852884,2.8257513850512317,0.9036972891145235,A,459,Correct
2,new_learn,70,796,B,40.73945528889772,50.05917643733679,2.036972764444886,0.7863277047014626,B,717,Correct
2,new_learn,70,797,A,74.0909304272288,43.42034396466481,3.70454652136144,0.6820451680786643,B,433,Incorrect
2,new_learn,70,798,A,66.44166639214397,64.07367292386732,3.3220833196071986,1.0064669007306841,A,438,Correct
2,new_learn,70,799,A,54.55379819745596,57.71165446881455,2.7276899098727982,0.9065325485287018,A,563,Correct
2,new_learn,70,800,B,44.4142235162221,41.65970709551201,2.2207111758111053,0.6543891488098155,B,1105,Correct
2,new_learn,70,801,A,78.98752494871187,48.32294265881788,3.9493762474355933,0.7590550082839155,B,1832,Incorrect
2,new_learn,70,802,B,33.0655669199508,48.10764882234065,1.65327834599754,0.7556731806087152,A,578,Incorrect
2,new_learn,70,803,B,47.31964213710907,23.479762859205238,2.3659821068554536,0.36881925253254827,B,1227,Correct
2,new_learn,70,804,A,33.52794596386259,80.49387509924493,1.6763972981931294,1.2643948333538113,A,1712,Correct
2,new_learn,70,805,B,38.550925895406706,36.75762861615399,1.9275462947703352,0.5773874801194566,B,580,Correct
2,new_learn,70,806,B,67.5214587208433,16.59243904306743,3.376072936042165,0.26063342301418546,A,1077,Incorrect
2,new_learn,70,807,A,34.76869395183569,79.90878505147451,1.7384346975917844,1.255204260374991,B,756,Incorrect
2,new_learn,70,808,B,60.51664829168689,17.57923557419602,3.025832414584345,0.2761339866780928,A,964,Incorrect
2,new_learn,70,809,B,49.48892271459276,22.55730738368031,2.474446135729638,0.35432935580668434,B,512,Correct
2,new_learn,70,810,B,43.29111283755921,26.528326926594815,2.1645556418779606,0.4167059849230928,B,376,Correct
2,new_learn,70,811,B,49.8158374321314,31.566442657107515,2.49079187160657,0.49584452175766214,B,397,Correct
2,new_learn,70,812,A,81.82958200323907,46.813923938754584,4.091479100161953,0.7353513976585139,B,1222,Incorrect
2,new_learn,70,813,A,72.92382759016662,58.88747734636113,3.6461913795083314,0.9250023310988176,A,600,Correct
2,new_learn,70,814,B,51.176991125296496,22.34880172056259,2.558849556264825,0.35105415650927185,A,682,Incorrect
2,new_learn,70,815,A,44.50956459410984,63.58924528799933,2.225478229705492,0.9988575292204904,A,936,Correct
2,new_learn,70,816,B,51.63336075519175,21.009355301363485,2.581668037759588,0.3300141813571065,B,503,Correct
2,new_learn,70,817,A,81.84559230578881,40.026965689236924,4.092279615289441,0.6287421067739872,B,592,Incorrect
2,new_learn,70,818,B,57.1814911313642,16.169000929994255,2.8590745565682094,0.25398207268778245,A,459,Incorrect
2,new_learn,70,819,B,57.6567543712892,17.923518697112428,2.8828377185644602,0.28154197332663855,B,1164,Correct
2,new_learn,70,820,B,23.476485322976618,57.60715860679397,1.173824266148831,0.9048911313664297,A,625,Incorrect
2,new_learn,70,821,A,67.7074321140974,53.74432820444148,3.38537160570487,0.8442139332959605,B,536,Incorrect
2,new_learn,70,822,B,45.800016982324635,42.21617542809271,2.2900008491162316,0.66313013293777,B,804,Correct
2,new_learn,70,823,A,68.1729260399944,53.49733904738229,3.40864630199972,0.8403342366892929,B,452,Incorrect
2,new_learn,70,824,A,69.109983965441,53.83001245172572,3.4554991982720504,0.8455598583049431,A,947,Correct
2,new_learn,70,825,B,21.103289219016027,64.34879345769076,1.0551644609508015,1.0107884839702412,B,776,Correct
2,new_learn,70,826,A,55.6879284347076,61.79963815293218,2.78439642173538,0.9707464460787962,B,537,Incorrect
2,new_learn,70,827,A,46.00931809731801,75.85053038503534,2.3004659048659004,1.191457345142582,A,728,Correct
2,new_learn,70,828,B,37.96526670579214,34.061143666082955,1.898263335289607,0.5350311935711636,B,628,Correct
2,new_learn,70,829,A,85.9768024573444,41.35861417334496,4.298840122867221,0.6496595922481762,B,1697,Incorrect
2,new_learn,70,830,A,35.8310831232571,76.29985105176924,1.791554156162855,1.1985152576711686,A,717,Correct
2,new_learn,70,831,A,53.46924631280559,54.29265367688671,2.6734623156402795,0.8528270096760107,B,990,Incorrect
2,new_learn,70,832,A,71.45437251799378,53.76898916458454,3.5727186258996886,0.8446013067520398,A,1486,Correct
2,new_learn,70,833,B,42.4064358486679,37.14836035104137,2.120321792433395,0.5835250798586896,A,2480,Incorrect
2,new_learn,70,834,A,54.719534374931484,71.58703251639929,2.735976718746574,1.1244864772290681,A,1011,Correct
2,new_learn,70,835,A,82.99136190584498,39.98103475269073,4.149568095292249,0.628020625309857,B,481,Incorrect
2,new_learn,70,836,A,74.17292214988619,51.04259602681425,3.7086461074943093,0.8017752234899561,A,485,Correct
2,new_learn,70,837,B,57.67577262986508,21.22778357783058,2.883788631493254,0.333445244700533,B,735,Correct
2,new_learn,70,838,B,20.35636446055129,56.50904871636474,1.0178182230275645,0.8876420615433961,B,734,Correct
2,new_learn,70,839,A,68.53866741812334,51.42395449687096,3.426933370906167,0.807765588329528,A,1922,Correct
2,new_learn,70,840,B,41.153715608467614,30.807324435613438,2.057685780423381,0.48392032061840246,B,423,Correct
2,new_learn,70,841,B,19.499716465763598,52.559955395115246,0.9749858232881798,0.8256098487115063,B,717,Correct
2,new_learn,70,842,A,36.31139951937766,79.02824516434623,1.815569975968883,1.241372772172016,B,688,Incorrect
2,new_learn,70,843,B,31.351970621941195,35.97664395003402,1.5675985310970597,0.5651198016712127,A,676,Incorrect
2,new_learn,70,844,B,37.10080426942501,48.02327064802089,1.8550402134712505,0.754347771345884,B,771,Correct
2,new_learn,70,845,A,73.40538568875112,44.53957316772714,3.6702692844375564,0.6996259792887832,A,954,Correct
2,new_learn,70,846,B,42.443926640420024,42.94511905008051,2.122196332021001,0.67458035257636,A,3791,Incorrect
2,new_learn,70,847,B,58.76571602537007,22.077125136429657,2.9382858012685036,0.3467866707049499,B,574,Correct
2,new_learn,70,848,A,34.94461331602926,78.9177996871854,1.7472306658014631,1.2396378986736625,A,591,Correct
2,new_learn,70,849,A,49.69467043217046,79.88381499452953,2.484733521608523,1.2548120316377005,A,585,Correct
2,new_learn,70,850,B,62.08531816407009,24.662420475192334,3.1042659082035042,0.3873963949230337,B,590,Correct
2,new_learn,70,851,A,54.29153269224713,63.273099136854874,2.7145766346123565,0.9938915170910098,A,640,Correct
2,new_learn,70,852,B,64.13380076915266,20.864821757990995,3.206690038457633,0.32774385376682486,B,522,Correct
2,new_learn,70,853,A,65.26923373703242,60.80215997565336,3.2634616868516213,0.9550780955095196,B,977,Incorrect
2,new_learn,70,854,B,29.21509849052672,41.602629033332946,1.460754924526336,0.653492568705701,A,434,Incorrect
2,new_learn,70,855,A,35.129486061786025,76.62870201286215,1.7564743030893013,1.2036808364886458,A,909,Correct
2,new_learn,70,856,A,56.367753855724935,72.91609990215605,2.818387692786247,1.1453634189051645,A,661,Correct
2,new_learn,70,857,B,60.75141574958012,28.019688924299402,3.037570787479006,0.44013224440225146,B,3447,Correct
2,new_learn,70,858,B,46.74497815549007,22.718566847391813,2.3372489077745033,0.3568624135392737,B,530,Correct
2,new_learn,70,859,A,69.02007942558325,62.47184252041097,3.4510039712791625,0.981305407591708,B,585,Incorrect
2,new_learn,70,860,B,56.298286865347265,17.152262364459943,2.8149143432673633,0.26942710718316026,B,590,Correct
2,new_learn,70,861,A,62.760799041875174,66.35952958713354,3.138039952093759,1.0423730532330662,A,532,Correct
2,new_learn,70,862,B,40.125178828050785,39.899033067949304,2.0062589414025394,0.6267325458580288,B,481,Correct
2,new_learn,70,863,B,21.991534793007464,54.23192278288672,1.099576739650373,0.8518730510238293,B,849,Correct
2,new_learn,70,864,B,32.765295643569154,55.722025078606364,1.6382647821784575,0.8752795231504797,A,465,Incorrect
2,new_learn,70,865,B,40.78557684629904,32.65148937986034,2.0392788423149515,0.5128883958226719,B,387,Correct
2,new_learn,70,866,B,18.016196177924094,54.70373573184239,0.9008098088962047,0.8592842714953676,A,496,Incorrect
2,new_learn,70,867,B,25.37126954022642,55.43826359252327,1.268563477011321,0.870822208150228,B,384,Correct
2,new_learn,70,868,A,40.55064234930579,86.93322437357514,2.02753211746529,1.3655438952244843,B,314,Incorrect
2,new_learn,70,869,A,54.06315319187526,64.0873526800548,2.7031576595937628,1.0066817818383917,B,475,Incorrect
2,new_learn,70,870,B,22.818141131077617,60.380740963787524,1.140907056553881,0.948458461150716,B,625,Correct
2,new_learn,70,871,A,49.729377125937475,57.275307010804255,2.4864688562968738,0.8996784186862131,A,456,Correct
2,new_learn,70,872,A,74.93302004173947,54.154762940378696,3.7466510020869737,0.8506610270519525,A,406,Correct
2,new_learn,70,873,B,55.10389568252828,22.93894292087917,2.7551947841264144,0.360324072806748,B,1578,Correct
2,new_learn,70,874,A,74.25200629464024,40.59036661668992,3.712600314732012,0.6375919878475472,B,411,Incorrect
2,new_learn,70,875,A,53.20863515694416,56.68244848969135,2.660431757847208,0.8903658188134811,B,433,Incorrect
2,new_learn,70,876,A,43.64636816080686,66.39403656868012,2.182318408040343,1.042915087631688,A,364,Correct
2,new_learn,70,877,B,62.719535490837416,26.506445695401098,3.135976774541871,0.41636227534724446,B,585,Correct
2,new_learn,70,878,A,50.90997567792446,63.96304340989755,2.545498783896223,1.004729136388896,A,520,Correct
2,new_learn,70,879,A,81.81281356965528,41.48143901631819,4.090640678482764,0.6515889203699912,B,435,Incorrect
2,new_learn,70,880,B,22.706548153719194,62.71852687840702,1.1353274076859596,0.9851803164258874,A,484,Incorrect
2,new_learn,70,881,A,45.35610767021163,82.58564271768736,2.2678053835105816,1.2972522422693902,B,347,Incorrect
2,new_learn,70,882,B,55.3133118806708,30.434092024498966,2.76566559403354,0.4780575996142084,B,975,Correct
2,new_learn,70,883,A,45.2242199141386,72.45227504906524,2.26121099570693,1.138077675150052,A,704,Correct
2,new_learn,70,884,B,47.93657403159123,41.80377564127703,2.3968287015795613,0.6566521722347592,B,380,Correct
2,new_learn,70,885,A,47.851326826276704,79.69579298066586,2.3925663413138354,1.2518585887503644,B,6823,Incorrect
2,new_learn,70,886,A,42.65820833389438,77.70314893929987,2.132910416694719,1.22055820934249,A,444,Correct
2,new_learn,70,887,B,26.615275573908463,47.51094090446471,1.3307637786954232,0.7463001145530257,B,443,Correct
2,new_learn,70,888,B,43.68509297916522,47.446481407460055,2.184254648958261,0.745287587141806,B,403,Correct
2,new_learn,70,889,B,21.007379296665675,54.836912183274464,1.0503689648332837,0.8613762023026184,B,349,Correct
2,new_learn,70,890,A,86.05677916907617,31.234537955462855,4.302838958453808,0.4906309748957683,A,382,Correct
2,new_learn,70,891,A,52.83511654901589,55.17368341492607,2.6417558274507944,0.8666661924391038,B,289,Incorrect
2,new_learn,70,892,A,48.945367233905344,71.86690376856782,2.4472683616952673,1.1288826845778863,A,379,Correct
2,new_learn,70,893,B,20.241231775307806,55.91632552214844,1.0120615887653903,0.8783315873805849,A,311,Incorrect
2,new_learn,70,894,B,40.05189586605059,41.47891232369783,2.0025947933025297,0.6515492311751211,B,714,Correct
2,new_learn,70,895,A,35.04903087590176,80.32115123916853,1.7524515437950878,1.2616816933042327,A,670,Correct
2,new_learn,70,896,A,48.993142306223824,66.50474746974697,2.4496571153111915,1.0446541303990071,B,578,Incorrect
2,new_learn,70,897,B,22.66679197375556,55.77107448126027,1.1333395986877781,0.8760499893656821,A,228,Incorrect
2,new_learn,70,898,A,59.30606102646079,72.03411900298833,2.9653030513230396,1.1315092953380053,A,415,Correct
