experiment,condition,subject,trial,cat,x,y,xt,yt,resp,rt,fb
2,relearn,75,0,B,82.67970199746762,66.49530068306309,4.133985099873382,1.044505740620777,B,1623,Correct
2,relearn,75,1,B,43.386377840098376,22.400565391026483,2.1693188920049185,0.3518672583435329,B,1166,Correct
2,relearn,75,2,A,48.65177413667811,67.54069041029831,2.4325887068339056,1.0609266840568787,B,19078,Incorrect
2,relearn,75,3,A,23.99419816048719,39.782523274220495,1.1997099080243594,0.6249024142977804,A,1282,Correct
2,relearn,75,4,A,65.54217390298945,88.47495813006331,3.277108695149473,1.3897613924403571,B,3281,Incorrect
2,relearn,75,5,B,53.29131147987561,44.45647041798984,2.66456557399378,0.6983206043484442,A,1023,Incorrect
2,relearn,75,6,B,82.06381238564018,67.66832825005525,4.1031906192820085,1.0629316145553813,B,1014,Correct
2,relearn,75,7,B,75.30089583836337,59.203799410944946,3.765044791918169,0.9299711064701417,B,1136,Correct
2,relearn,75,8,B,87.25996354649396,59.60305760502821,4.362998177324698,0.9362426395172294,B,797,Correct
2,relearn,75,9,B,49.509654412764974,27.845420301787044,2.4754827206382486,0.4373948392810713,B,823,Correct
2,relearn,75,10,A,30.773157958292366,51.315690461783966,1.5386578979146182,0.8060649808431416,A,739,Correct
2,relearn,75,11,B,79.71432694841933,63.219542280174196,3.9857163474209667,0.9930502479535229,B,726,Correct
2,relearn,75,12,A,58.90107433118131,69.93508387111946,2.9450537165590656,1.0985377285884745,B,621,Incorrect
2,relearn,75,13,A,54.37544287997882,66.21899162662838,2.718772143998941,1.0401654881116988,B,1979,Incorrect
2,relearn,75,14,B,75.38599109778947,60.714793774516,3.7692995548894737,0.9537057504311938,B,853,Correct
2,relearn,75,15,A,32.9884588177944,53.08268219879269,1.64942294088972,0.8338208221428439,B,724,Incorrect
2,relearn,75,16,B,33.52276907326981,18.39251193053243,1.6761384536634905,0.2889089018101165,107,1211,Incorrect
2,relearn,75,17,A,40.721201516235546,57.16733309525327,2.0360600758117773,0.8979823683868416,B,1093,Incorrect
2,relearn,75,18,A,33.25454912607836,53.23524667369584,1.662727456303918,0.8362172993106165,B,996,Incorrect
2,relearn,75,19,A,32.387391932989324,46.80643173361362,1.6193695966494661,0.7352337103753636,A,487,Correct
2,relearn,75,20,A,65.17514557692037,77.64126463672389,3.258757278846019,1.2195861329907638,100,631,Incorrect
2,relearn,75,21,A,36.049117328237706,58.98811885753637,1.8024558664118855,0.9265832042595891,A,724,Correct
2,relearn,75,22,A,27.629734453354942,38.038620000464824,1.3814867226677472,0.5975092457307702,A,632,Correct
2,relearn,75,23,B,39.74391485286132,21.492468419114054,1.9871957426430662,0.33760290446499674,107,719,Incorrect
2,relearn,75,24,B,39.37604236061817,27.142107223418403,1.9688021180309085,0.4263472232801885,B,2016,Correct
2,relearn,75,25,B,42.71920724314069,24.81180371418876,2.1359603621570344,0.3897429013540368,107,1616,Incorrect
2,relearn,75,26,B,49.586825931769106,41.69076374206729,2.4793412965884554,0.6548769854731314,B,623,Correct
2,relearn,75,27,B,46.22741363864682,38.106167557437516,2.311370681932341,0.5985702802745371,B,1571,Correct
2,relearn,75,28,B,30.443669604919556,12.300423370833535,1.522183480245978,0.1932145984892742,107,2448,Incorrect
2,relearn,75,29,B,42.76785666901375,18.218232521126378,2.1383928334506876,0.28617132724880645,107,1150,Incorrect
2,relearn,75,30,A,27.550851502660038,46.429857298368546,1.377542575133002,0.7293184929788852,100,895,Incorrect
2,relearn,75,31,B,40.44189276879535,13.922756160255048,2.0220946384397673,0.21869814235389645,B,1686,Correct
2,relearn,75,32,B,88.15828238836453,63.592647783460095,4.407914119418226,0.9989109754942073,B,873,Correct
2,relearn,75,33,B,57.94863584135849,47.75009320604842,2.8974317920679242,0.750056710121748,B,1278,Correct
2,relearn,75,34,B,50.91386392250558,40.403350967531466,2.545693196125279,0.6346543529000346,B,814,Correct
2,relearn,75,35,A,42.30849136591684,70.10557255962567,2.115424568295842,1.101215758645131,A,1073,Correct
2,relearn,75,36,A,23.376067764855076,45.276552045728046,1.1688033882427538,0.7112024164336758,A,722,Correct
2,relearn,75,37,B,32.41074891166792,19.239840533828502,1.620537445583396,0.3022187083865738,107,865,Incorrect
2,relearn,75,38,A,36.06795481024374,51.22658015074197,1.803397740512187,0.8046652393504985,100,903,Incorrect
2,relearn,75,39,A,53.541148548799285,69.6288462805532,2.6770574274399643,1.0937273597645947,100,1079,Incorrect
2,relearn,75,40,B,44.478492041563115,23.511766096782846,2.223924602078156,0.36932195821287284,B,813,Correct
2,relearn,75,41,B,76.19045715829924,59.5591110093786,3.809522857914962,0.9355523280070138,B,512,Correct
2,relearn,75,42,A,51.35464478030579,76.4071104799646,2.5677322390152892,1.2002000848294023,A,920,Correct
2,relearn,75,43,B,39.29510996360111,29.274105340488912,1.9647554981800552,0.45983657139046846,107,668,Incorrect
2,relearn,75,44,B,67.1614710092204,54.73537694985555,3.3580735504610204,0.8597812905856713,B,822,Correct
2,relearn,75,45,A,39.83367227513031,58.145797280088786,1.9916836137565155,0.9133520478612416,100,722,Incorrect
2,relearn,75,46,A,43.75178963021139,60.630162174520244,2.1875894815105696,0.9523763603671528,100,585,Incorrect
2,relearn,75,47,B,58.22410378983727,25.656279802962754,2.911205189491864,0.4030079007371598,B,934,Correct
2,relearn,75,48,A,25.194116813313315,41.14576866455501,1.2597058406656658,0.6463162228143555,A,674,Correct
2,relearn,75,49,A,30.024815929880724,40.59573471382008,1.5012407964940362,0.6376763097200865,A,335,Correct
2,relearn,75,50,B,56.084576285442054,26.936315202486274,2.8042288142721024,0.4231146497745497,B,912,Correct
2,relearn,75,51,B,63.31099273372774,45.83842929746454,3.1655496366863867,0.7200283636650487,B,886,Correct
2,relearn,75,52,A,66.31301148678439,80.67886939539197,3.3156505743392195,1.2673007169624693,B,684,Incorrect
2,relearn,75,53,B,34.57856930811032,11.825908451880313,1.728928465405516,0.18576093557226311,B,825,Correct
2,relearn,75,54,B,41.52763085158354,25.875212344596484,2.0763815425791767,0.40644688505930116,A,680,Incorrect
2,relearn,75,55,B,76.09274380619475,62.56791761099413,3.8046371903097373,0.982814551585553,B,958,Correct
2,relearn,75,56,B,51.8971358961907,29.367222922376094,2.5948567948095347,0.4612992589463526,B,1515,Correct
2,relearn,75,57,A,38.43812145021194,64.26353290544955,1.921906072510597,1.0094492143474312,100,1536,Incorrect
2,relearn,75,58,A,25.610650838677383,37.85514976522401,1.2805325419338691,0.5946273020148457,A,688,Correct
2,relearn,75,59,A,56.39692831661655,74.04665301788259,2.8198464158308276,1.1631221057194623,100,547,Incorrect
2,relearn,75,60,B,34.5362815836655,15.9871362297166,1.726814079183275,0.2511253486560845,107,1534,Incorrect
2,relearn,75,61,B,61.25995185173833,44.9534340694671,3.0629975925869166,0.7061268911313549,B,744,Correct
2,relearn,75,62,A,46.221717856773,77.01708536972532,2.31108589283865,1.209781547992135,100,1562,Incorrect
2,relearn,75,63,A,54.23476564741395,65.75546893755921,2.7117382823706975,1.0328844907379393,100,669,Incorrect
2,relearn,75,64,A,46.50067357314239,68.62409762292528,2.3250336786571197,1.0779448047570541,A,438,Correct
2,relearn,75,65,A,50.203745649982444,61.837413742914215,2.510187282499122,0.9713398236586591,A,623,Correct
2,relearn,75,66,B,56.17132515474503,47.905333715537616,2.808566257737251,0.752495222342502,107,3932,Incorrect
2,relearn,75,67,B,39.658422004893296,21.534219174896126,1.9829211002446647,0.33825872380323063,107,1277,Incorrect
2,relearn,75,68,B,61.718721107879915,36.44836284981917,3.0859360553939954,0.5725295448218353,B,610,Correct
2,relearn,75,69,A,41.16139206463609,60.16693590458022,2.0580696032318047,0.9451000191341858,100,1295,Incorrect
2,relearn,75,70,A,30.17831656249087,40.622260711795874,1.5089158281245434,0.638092979121936,A,2819,Correct
2,relearn,75,71,B,48.8972030028401,23.144771277306212,2.4448601501420053,0.36355721706900623,107,835,Incorrect
2,relearn,75,72,B,37.552509750525374,16.545305021743562,1.8776254875262686,0.2598930435385594,B,4078,Correct
2,relearn,75,73,A,56.912885796626284,74.26689705129131,2.845644289831314,1.1665816909062312,100,846,Incorrect
2,relearn,75,74,A,17.71363565863529,32.175188086121125,0.8856817829317646,0.5054066725961398,A,581,Correct
2,relearn,75,75,A,25.169996222821325,35.28984588958767,1.2584998111410663,0.5543316029652229,A,634,Correct
2,relearn,75,76,A,56.71281863278553,71.95898469034023,2.835640931639276,1.130329088314766,A,830,Correct
2,relearn,75,77,B,56.10147750146128,42.91477414998513,2.8050738750730644,0.6741036960002922,107,651,Incorrect
2,relearn,75,78,A,39.9990056962738,52.932015225128445,1.9999502848136899,0.8314541508548331,A,823,Correct
2,relearn,75,79,A,42.302022208634156,63.19595481172276,2.115101110431708,0.9926797368655038,B,863,Incorrect
2,relearn,75,80,A,21.881681677409176,36.572230726507904,1.0940840838704589,0.5744752568789407,A,848,Correct
2,relearn,75,81,A,50.93759954739676,72.7305061160003,2.546879977369838,1.1424481185294704,B,11673,Incorrect
2,relearn,75,82,A,21.216653317132923,42.46603402236883,1.0608326658566463,0.6670549025588406,A,727,Correct
2,relearn,75,83,B,39.43298608841103,12.297890386774167,1.9716493044205514,0.1931748104687113,A,1172,Incorrect
2,relearn,75,84,B,68.1623384706125,48.37564253574722,3.408116923530625,0.7598828160149469,B,574,Correct
2,relearn,75,85,B,67.04560838765288,37.060723461094945,3.3522804193826437,0.5821484828104939,B,523,Correct
2,relearn,75,86,A,40.46024956968429,52.40280787734361,2.0230124784842145,0.8231413812747002,A,720,Correct
2,relearn,75,87,B,64.39934697342508,33.07668999424306,3.2199673486712537,0.5195674314549051,B,683,Correct
2,relearn,75,88,A,41.731986480317026,67.91007674367145,2.0865993240158516,1.0667289910131865,B,914,Incorrect
2,relearn,75,89,A,46.15840160762615,56.36577543731408,2.3079200803813076,0.8853915301387896,A,671,Correct
2,relearn,75,90,A,61.199382404659175,80.69029135460865,3.0599691202329584,1.2674801326782927,100,553,Incorrect
2,relearn,75,91,B,34.56072672793484,10.765140513744022,1.7280363363967421,0.16909843176420034,B,651,Correct
2,relearn,75,92,B,47.31579342823899,37.491890968722096,2.3657896714119495,0.5889212461826343,B,648,Correct
2,relearn,75,93,A,22.459737711480233,48.42646394103047,1.1229868855740117,0.7606811167823617,100,651,Incorrect
2,relearn,75,94,A,55.635530139053614,81.4682289450539,2.781776506952681,1.2796999477737634,100,710,Incorrect
2,relearn,75,95,B,53.94652442823485,34.34472737353571,2.6973262214117426,0.5394857160312203,107,553,Incorrect
2,relearn,75,96,B,59.67581026431045,46.13272522387268,2.9837905132155225,0.7246511532669747,B,703,Correct
2,relearn,75,97,B,64.31557552595366,31.58037369537319,3.215778776297683,0.49606334999502383,B,431,Correct
2,relearn,75,98,A,45.69174985616104,77.49878610562155,2.284587492808052,1.2173480854577372,100,455,Incorrect
2,relearn,75,99,A,44.67339595807726,52.26809004747877,2.233669797903863,0.8210252385516457,A,774,Correct
2,relearn,75,100,A,59.26140596773138,74.65458663366525,2.963070298386569,1.1726715046255276,100,743,Incorrect
2,relearn,75,101,B,41.323654485449296,17.803678155204437,2.066182724272465,0.27965952249633674,B,987,Correct
2,relearn,75,102,A,24.517574732610235,44.42706928551313,1.2258787366305117,0.6978587724394639,A,823,Correct
2,relearn,75,103,B,87.70308534943464,66.63277930782257,4.385154267471733,1.0466652498086269,B,712,Correct
2,relearn,75,104,A,25.205550192347303,41.242628088017995,1.260277509617365,0.6478376870802669,A,590,Correct
2,relearn,75,105,A,31.902606458329906,42.912250669543965,1.5951303229164953,0.6740640572622151,A,474,Correct
2,relearn,75,106,A,37.54226921151829,51.084573648277825,1.8771134605759143,0.8024346064259819,A,770,Correct
2,relearn,75,107,A,48.800462516046196,61.09991746479409,2.44002312580231,0.9597552592116989,100,623,Incorrect
2,relearn,75,108,B,75.8137598282597,61.5045050849479,3.7906879914129856,0.9661105066877419,B,589,Correct
2,relearn,75,109,A,65.88381603891912,88.14823883788141,3.2941908019459563,1.3846292977998336,100,468,Incorrect
2,relearn,75,110,B,64.56001039312768,52.797456259426305,3.2280005196563843,0.8293405035642106,B,764,Correct
2,relearn,75,111,A,62.33671692115641,75.20155365011233,3.1168358460578203,1.181263242428658,100,652,Incorrect
2,relearn,75,112,B,40.08694443714708,31.18375019978047,2.004347221857354,0.4898332026950478,107,1838,Incorrect
2,relearn,75,113,B,62.81351047478876,32.88991116416831,3.140675523739438,0.5166335164528604,B,771,Correct
2,relearn,75,114,A,62.723652667894484,82.28866576462093,3.1361826333947245,1.292587339199195,100,539,Incorrect
2,relearn,75,115,A,16.314437909909028,44.91606277557453,0.8157218954954515,0.7055398642196147,A,630,Correct
2,relearn,75,116,B,58.98900898276109,34.900456769644805,2.949450449138055,0.5482150929722214,B,617,Correct
2,relearn,75,117,A,51.37704662113869,82.2487413084818,2.5688523310569344,1.291960207308669,100,1231,Incorrect
2,relearn,75,118,A,43.69827286133254,76.08062258793973,2.1849136430666274,1.1950716250140454,100,1894,Incorrect
2,relearn,75,119,A,60.393498820651985,80.49943069965383,3.019674941032599,1.2644821005209657,100,556,Incorrect
2,relearn,75,120,B,49.79034420196871,37.598399314645356,2.4895172100984353,0.5905942753681267,107,701,Incorrect
2,relearn,75,121,A,16.291762429340967,35.56720747960344,0.8145881214670483,0.5586883886331305,A,589,Correct
2,relearn,75,122,B,72.43422254980328,43.80875266478668,3.621711127490164,0.6881462776731305,B,509,Correct
2,relearn,75,123,B,57.08175685255324,47.261841410090305,2.8540878426276617,0.7423872688453279,B,818,Correct
2,relearn,75,124,A,20.498435646065133,48.43249895264185,1.0249217823032566,0.7607759145230749,A,693,Correct
2,relearn,75,125,A,35.682030957631824,66.02815032558335,1.7841015478815911,1.0371677599648759,A,890,Correct
2,relearn,75,126,B,40.52990928764659,22.89988982149665,2.0264954643823296,0.3597106281561478,107,908,Incorrect
2,relearn,75,127,A,40.37934391937441,61.342582325842905,2.0189671959687208,0.9635670299354758,100,730,Incorrect
2,relearn,75,128,A,17.18689417769534,42.84979174699821,0.859344708884767,0.6730829548011106,A,652,Correct
2,relearn,75,129,B,49.61178862683495,23.251271270677183,2.4805894313417474,0.36523011505291425,B,643,Correct
2,relearn,75,130,B,66.49180819842255,46.09547107329676,3.324590409921127,0.7240659664381497,B,645,Correct
2,relearn,75,131,B,82.98712375223991,66.40225581589564,4.149356187611995,1.0430441952650393,107,482,Incorrect
2,relearn,75,132,B,71.38921910253306,56.330701471740014,3.5694609551266527,0.8848405895758907,107,765,Incorrect
2,relearn,75,133,A,44.146837803921954,58.98072188557192,2.2073418901960977,0.9264670128956772,100,778,Incorrect
2,relearn,75,134,B,41.76044201976981,29.058109475200144,2.0880221009884905,0.4564437162724837,B,897,Correct
2,relearn,75,135,B,52.5987817034822,35.985825088878386,2.62993908517411,0.565264018662938,B,1031,Correct
2,relearn,75,136,B,36.17984262117511,16.283552713805932,1.8089921310587556,0.25578144790017426,B,935,Correct
2,relearn,75,137,B,59.85373339072618,51.02908740773213,2.992686669536309,0.8015630305976132,B,1062,Correct
2,relearn,75,138,B,79.57833932185343,58.016368175334335,3.9789169660926715,0.9113189802379551,B,634,Correct
2,relearn,75,139,B,45.63244742626873,26.11284795426524,2.2816223713134365,0.41017965648713467,B,811,Correct
2,relearn,75,140,A,14.975974129372958,36.37412631024399,0.7487987064686479,0.5713634399850487,A,576,Correct
2,relearn,75,141,B,61.49971930279664,28.811359718070143,3.0749859651398324,0.45256778015111027,B,554,Correct
2,relearn,75,142,B,51.35110227743208,19.697114276294005,2.5675551138716037,0.3094015475366194,107,739,Incorrect
2,relearn,75,143,A,29.41359910881509,50.58558884574159,1.4706799554407548,0.7945965714764777,A,662,Correct
2,relearn,75,144,B,75.98520948940745,56.4459011909198,3.7992604744703726,0.886650142533245,B,684,Correct
2,relearn,75,145,A,64.82914290397733,80.67254397410609,3.2414571451988663,1.2672013574772563,107,1470,Correct
2,relearn,75,146,B,77.42894185025034,62.99498426324557,3.871447092512517,0.9895228988720847,B,624,Correct
2,relearn,75,147,A,35.823062735883816,59.476045921864774,1.7911531367941906,0.9342475446634978,A,1011,Correct
2,relearn,75,148,A,25.76982632167048,44.30231085285816,1.2884913160835239,0.6958990715619529,A,594,Correct
2,relearn,75,149,A,48.915230465371295,72.44646607134239,2.4457615232685646,1.137986427941357,100,504,Incorrect
2,relearn,75,150,A,50.451401044204225,81.49518968370856,2.5225700522102112,1.2801234460662274,107,319,Correct
2,relearn,75,151,A,44.44088549120257,67.46034528351784,2.2220442745601288,1.0596646257566524,A,1009,Correct
2,relearn,75,152,A,68.95071688407037,87.56571557739456,3.447535844203519,1.3754790438213802,100,707,Incorrect
2,relearn,75,153,A,25.977668198997435,47.79806958512898,1.2988834099498718,0.7508103213220747,A,711,Correct
2,relearn,75,154,B,53.98918942776622,38.52199613303567,2.699459471388311,0.6051021002657964,B,1667,Correct
2,relearn,75,155,B,82.49885533522462,52.21624936672436,4.124942766761231,0.8202109270425697,B,761,Correct
2,relearn,75,156,A,18.3455358853797,31.88519018097099,0.917276794268985,0.5008513961542593,A,463,Correct
2,relearn,75,157,A,34.692257755578666,55.96839668869074,1.7346128877789335,0.8791495193519506,A,1852,Correct
2,relearn,75,158,A,53.97869929556529,80.62581985047612,2.6989349647782648,1.2664674166595493,100,634,Incorrect
2,relearn,75,159,A,15.201720204806982,41.89309898472616,0.760086010240349,0.6580552600326286,A,523,Correct
2,relearn,75,160,A,51.37273156602649,70.29726644870847,2.5686365783013243,1.104226879213534,100,1115,Incorrect
2,relearn,75,161,A,23.46122901973033,46.3204192998782,1.1730614509865165,0.7275994449184812,A,621,Correct
2,relearn,75,162,B,64.12921437736429,54.77251550140851,3.2064607188682146,0.8603646615892904,107,688,Incorrect
2,relearn,75,163,B,80.7821095033452,57.411037319803796,4.0391054751672595,0.9018104653943253,B,591,Correct
2,relearn,75,164,B,86.65025071264957,62.78739189482184,4.332512535632478,0.9862620455741781,B,699,Correct
2,relearn,75,165,A,37.94777846765205,53.18823517973339,1.8973889233826027,0.835478844490283,A,555,Correct
2,relearn,75,166,A,32.305911895084726,52.1481040237793,1.6152955947542365,0.8191405024987068,A,578,Correct
2,relearn,75,167,A,16.599521093781348,39.17326709527894,0.8299760546890674,0.6153322406181955,A,695,Correct
2,relearn,75,168,B,77.41678481722988,47.49318877461245,3.870839240861494,0.7460212647493786,A,410,Incorrect
2,relearn,75,169,A,35.86223710478628,51.84432506847971,1.7931118552393142,0.8143687538272851,A,563,Correct
2,relearn,75,170,B,33.89512627462362,12.723040095803196,1.6947563137311812,0.1998530464815185,107,683,Incorrect
2,relearn,75,171,A,52.313562790577876,72.65444384859092,2.6156781395288937,1.1412533352269267,A,1711,Correct
2,relearn,75,172,A,34.81564713135505,56.14426367586212,1.7407823565677523,0.8819120315264836,100,933,Incorrect
2,relearn,75,173,A,18.471047944479338,39.53556241763568,0.9235523972239669,0.6210231622339248,A,925,Correct
2,relearn,75,174,B,47.54826129004399,28.414279108976096,2.3774130645021994,0.44633045252904624,107,599,Incorrect
2,relearn,75,175,B,65.99967629346939,45.816116981841034,3.2999838146734697,0.7196778826308118,B,501,Correct
2,relearn,75,176,B,84.05570832827658,58.32871201970745,4.202785416413829,0.916225265872338,B,621,Correct
2,relearn,75,177,A,34.17634829016486,54.3278401673735,1.708817414508243,0.8533797177761054,100,726,Incorrect
2,relearn,75,178,A,46.724659106038715,73.01472805801478,2.3362329553019356,1.1469126663545788,100,826,Incorrect
2,relearn,75,179,B,57.956568767518725,50.45776734145051,2.8978284383759365,0.7925887559822196,107,687,Incorrect
2,relearn,75,180,A,41.13515158464694,62.55507008503436,2.056757579232347,0.9826127431196929,100,569,Incorrect
2,relearn,75,181,A,30.857078959457382,59.77372797166296,1.5428539479728693,0.9389235233672553,A,646,Correct
2,relearn,75,182,B,76.90633546816846,57.19382891124299,3.845316773408423,0.8983985636911624,100,498,Correct
2,relearn,75,183,B,62.74855119927555,46.422218204739366,3.1374275599637773,0.7291984983767577,B,443,Correct
2,relearn,75,184,B,41.079103615862394,19.690428379168317,2.0539551807931193,0.3092965257101558,100,1107,Correct
2,relearn,75,185,A,29.11786152561734,55.72417201410566,1.4558930762808668,0.8753132471344415,A,690,Correct
2,relearn,75,186,A,47.36253566813835,65.50523511455494,2.3681267834069173,1.0289538270377898,100,591,Incorrect
2,relearn,75,187,A,54.134309821069095,70.38182000513338,2.7067154910534548,1.105555043372031,100,571,Incorrect
2,relearn,75,188,B,57.74701618092548,34.464741086535795,2.887350809046274,0.5413708870266758,107,300,Incorrect
2,relearn,75,189,A,56.109577801420684,72.4481163619879,2.8054788900710346,1.1380123506461983,A,458,Correct
2,relearn,75,190,B,45.817302001120275,23.055361647354417,2.290865100056014,0.3621527738859226,B,354,Correct
2,relearn,75,191,B,83.63586877616709,64.55069394143717,4.181793438808354,1.0139599293527108,107,300,Incorrect
2,relearn,75,192,A,36.158037782921454,51.158153808470665,1.8079018891460725,0.8035904008795407,A,522,Correct
2,relearn,75,193,A,14.558505640387967,31.63096004760595,0.7279252820193983,0.4968579585577555,A,638,Correct
2,relearn,75,194,A,25.090598747265794,36.34267374537347,1.2545299373632899,0.5708693842513796,A,679,Correct
2,relearn,75,195,A,45.88127307781578,73.6967652631451,2.2940636538907886,1.1576260817201405,100,712,Incorrect
2,relearn,75,196,B,73.22969315623861,50.18801772117714,3.661484657811931,0.7883515388554223,107,429,Incorrect
2,relearn,75,197,A,25.47961289502082,46.680371851048875,1.2739806447510411,0.7332535663704747,A,572,Correct
2,relearn,75,198,A,54.46523039781914,79.42397266904902,2.723261519890957,1.2475888452800046,B,361,Incorrect
2,relearn,75,199,B,64.5099190189422,54.271664793588315,3.22549595094711,0.8524973170681244,B,669,Correct
2,relearn,75,200,B,54.02320297567281,44.277237858587306,2.7011601487836407,0.6955052258889287,B,607,Correct
2,relearn,75,201,B,67.56606906082365,52.92149943326303,3.3783034530411826,0.8312889691824777,B,481,Correct
2,relearn,75,202,B,54.90547709710751,27.12958142298802,2.7452738548553755,0.42615046846712645,B,883,Correct
2,relearn,75,203,B,79.0709084061115,60.435772179080686,3.953545420305575,0.9493228894591315,B,497,Correct
2,relearn,75,204,B,69.61976809700741,48.119580851512914,3.4809884048503705,0.7558606084846653,B,399,Correct
2,relearn,75,205,B,47.76554902632475,32.805995625387425,2.3882774513162373,0.5153153742520801,B,581,Correct
2,relearn,75,206,A,42.92842911744717,70.64119601440154,2.1464214558723587,1.1096293121982024,B,378,Incorrect
2,relearn,75,207,A,50.89252922066414,81.29319906576642,2.5446264610332068,1.276950584859122,100,495,Incorrect
2,relearn,75,208,B,73.19114497205814,63.10851226753638,3.659557248602907,0.9913061925933682,107,345,Incorrect
2,relearn,75,209,B,45.201301249080835,19.56702987562372,2.260065062454042,0.3073581865491575,B,498,Correct
2,relearn,75,210,B,82.69436858587409,52.615461618348505,4.134718429293704,0.8264817384271967,B,639,Correct
2,relearn,75,211,B,62.52663998218677,33.51519749718886,3.1263319991093383,0.5264554912038978,B,523,Correct
2,relearn,75,212,B,57.27696533709458,45.68620453811243,2.863848266854729,0.7176372227366733,B,887,Correct
2,relearn,75,213,A,32.004471156629805,53.375150405317925,1.60022355783149,0.8384149019879852,100,525,Incorrect
2,relearn,75,214,B,45.965989736882065,28.52062089047657,2.2982994868441033,0.4480008653267039,107,553,Incorrect
2,relearn,75,215,B,64.90295926919383,41.16388989142623,3.245147963459692,0.6466008703804188,B,686,Correct
2,relearn,75,216,A,15.650621954436264,44.32442444552115,0.7825310977218132,0.6962464310632254,A,744,Correct
2,relearn,75,217,A,61.84787539209663,77.92681902882867,3.092393769604832,1.2240716108929475,A,563,Correct
2,relearn,75,218,A,43.43409127063298,67.19825611467054,2.1717045635316494,1.055547738719472,A,461,Correct
2,relearn,75,219,A,34.06124207169866,51.4148921078846,1.7030621035849327,0.8076232366562105,A,424,Correct
2,relearn,75,220,A,64.21159633959894,87.4080773337923,3.210579816979947,1.3730028680812523,100,509,Incorrect
2,relearn,75,221,B,68.19245562308873,58.19844169434382,3.409622781154437,0.9141789843866223,B,531,Correct
2,relearn,75,222,B,77.8917747696957,64.20448670760186,3.894588738484785,1.0085217188405278,B,505,Correct
2,relearn,75,223,B,80.75909948082055,54.22951211277143,4.037954974041027,0.8518351843062072,B,444,Correct
2,relearn,75,224,B,53.457586828191126,37.99765415601026,2.672879341409556,0.5968657557508376,B,396,Correct
2,relearn,75,225,B,81.5351391864733,61.53906891957962,4.076756959323665,0.9666534341325365,B,570,Correct
2,relearn,75,226,A,40.87610521266722,61.30591497319229,2.043805260633361,0.962991060506907,100,463,Incorrect
2,relearn,75,227,B,67.87025020670096,49.89378725029163,3.3935125103350483,0.7837297774264413,B,594,Correct
2,relearn,75,228,B,43.29098388783085,30.743700914609775,2.1645491943915425,0.4829209246874993,B,715,Correct
2,relearn,75,229,B,46.90650175301182,20.918156478056225,2.3453250876505907,0.3285816335905159,107,475,Incorrect
2,relearn,75,230,A,28.025279522986388,61.1675084440477,1.4012639761493193,0.9608169758310595,100,538,Incorrect
2,relearn,75,231,B,66.93826846877258,41.4057079867635,3.3469134234386284,0.6503993401395023,B,577,Correct
2,relearn,75,232,A,61.0019811520332,82.46065657245697,3.0500990576016602,1.2952889644911085,100,529,Incorrect
2,relearn,75,233,A,23.128405333382496,55.47630852288506,1.1564202666691248,0.8714198165188827,A,760,Correct
2,relearn,75,234,B,47.1037651686702,21.245716784883147,2.35518825843351,0.33372693885819127,100,499,Correct
2,relearn,75,235,B,65.87193776803133,35.112829710046086,3.2935968884015665,0.5515510393191511,B,613,Correct
2,relearn,75,236,B,51.89297685293256,34.131938349898526,2.5946488426466283,0.5361432338641047,B,584,Correct
2,relearn,75,237,B,63.460173744243576,52.55997239642623,3.1730086872121785,0.8256101157674748,B,963,Correct
2,relearn,75,238,B,87.46338529156205,66.67695074517829,4.373169264578102,1.047359093124103,B,414,Correct
2,relearn,75,239,A,55.241536603580876,72.49571900654811,2.762076830179044,1.1387600912384075,100,2059,Incorrect
2,relearn,75,240,B,70.91425129887568,58.46599706599947,3.545712564943784,0.9183817343367318,B,616,Correct
2,relearn,75,241,B,36.500309649772774,23.951974559336833,1.8250154824886387,0.37623673657291107,107,618,Incorrect
2,relearn,75,242,A,45.75737857480164,71.00333629811885,2.287868928740082,1.1153177984726785,100,612,Incorrect
2,relearn,75,243,B,74.35761964467143,45.922893600623766,3.717880982233572,0.7213551258365266,B,551,Correct
2,relearn,75,244,B,87.3051348592371,64.41982688955558,4.365256742961855,1.01190427450877,B,509,Correct
2,relearn,75,245,B,75.18622110278532,46.52706003314992,3.7593110551392663,0.7308453499663754,B,603,Correct
2,relearn,75,246,A,20.38749067566021,43.5658992052347,1.0193745337830107,0.6843315444509938,A,592,Correct
2,relearn,75,247,B,40.80851461349795,29.006198154874674,2.0404257306748974,0.45562829515962044,107,626,Incorrect
2,relearn,75,248,A,60.59595433859542,83.55974337192393,3.0297977169297714,1.3125533795654232,100,479,Incorrect
2,relearn,75,249,B,54.67406451090664,32.33619046586231,2.733703225545332,0.5079356920631667,B,315,Correct
2,relearn,75,250,B,81.42939869048654,57.797434760026746,4.071469934524327,0.9078799821921767,B,394,Correct
2,relearn,75,251,B,82.59094978840551,56.31510173934188,4.1295474894202755,0.8845955495523912,B,461,Correct
2,relearn,75,252,A,48.20849427599536,75.76664226953474,2.410424713799768,1.1901396337056813,A,662,Correct
2,relearn,75,253,A,57.556734930018735,73.7333874857623,2.8778367465009365,1.158201342247802,A,775,Correct
2,relearn,75,254,B,63.44282704085355,51.98505185023694,3.1721413520426776,0.8165792849459442,107,578,Incorrect
2,relearn,75,255,B,83.70153106687758,68.62949521335614,4.185076553343879,1.0780295899092776,B,510,Correct
2,relearn,75,256,A,26.526073981605812,51.38051511616517,1.3263036990802906,0.807083244133019,A,532,Correct
2,relearn,75,257,B,60.254330580702664,47.07874656364728,3.012716529035133,0.7395112217228501,B,840,Correct
2,relearn,75,258,A,32.43197696858086,60.28847605698141,1.6215988484290431,0.9470091673836846,A,653,Correct
2,relearn,75,259,A,57.269866818109904,74.29324994846642,2.863493340905495,1.1669956412470621,100,725,Incorrect
2,relearn,75,260,A,19.02648206247885,36.51256347480013,0.9513241031239424,0.5735380058808155,A,337,Correct
2,relearn,75,261,A,46.52456424788959,68.07916467104238,2.3262282123944797,1.0693850179653828,100,687,Incorrect
2,relearn,75,262,B,61.00832179725348,37.85393787347922,3.050416089862674,0.5946082656638337,B,813,Correct
2,relearn,75,263,A,44.19931498796662,76.39222371698494,2.2099657493983313,1.1999662441033394,100,772,Incorrect
2,relearn,75,264,A,69.28266120769511,88.53877965858985,3.4641330603847558,1.3907638986661564,100,534,Incorrect
2,relearn,75,265,B,52.37953422810295,41.464710765123186,2.618976711405147,0.651326153614683,B,2117,Correct
2,relearn,75,266,A,37.75584741164221,60.70731173959404,1.8877923705821105,0.9535882229014702,A,784,Correct
2,relearn,75,267,B,57.47136853750446,29.45105797259342,2.8735684268752233,0.46261613683573294,B,1225,Correct
2,relearn,75,268,A,31.819081634726967,54.254354279545694,1.5909540817363483,0.8522254041493936,A,729,Correct
2,relearn,75,269,B,59.72999081711088,41.10061958718784,2.9864995408555437,0.6456070227654905,B,526,Correct
2,relearn,75,270,B,47.544330066555666,24.38369562907818,2.3772165033277832,0.38301819527840775,B,478,Correct
2,relearn,75,271,B,55.21702946981132,23.905140502567146,2.7608514734905665,0.3755010689294838,B,360,Correct
2,relearn,75,272,B,75.42280342695211,60.95184957228241,3.7711401713476054,0.957429414194963,B,465,Correct
2,relearn,75,273,B,56.21752855851047,43.014167357901066,2.8108764279255234,0.6756649608593194,B,515,Correct
2,relearn,75,274,A,58.60825479216041,66.84603955098842,2.9304127396080206,1.0500151338747898,100,410,Incorrect
2,relearn,75,275,B,80.24798278610731,56.66767477915869,4.012399139305366,0.8901337539111027,B,495,Correct
2,relearn,75,276,B,54.75457414687366,37.1651775646454,2.737728707343683,0.5837892440322509,B,474,Correct
2,relearn,75,277,B,67.96889356426321,54.38266003645563,3.3984446782131608,0.8542408262660012,B,597,Correct
2,relearn,75,278,A,21.736919951799738,52.519425399736605,1.086845997589987,0.8249732050328485,A,339,Correct
2,relearn,75,279,A,48.61119659544985,57.49745227776433,2.4305598297724926,0.9031678683797708,100,574,Incorrect
2,relearn,75,280,B,70.4810957314232,45.27537471021936,3.52405478657116,0.7111839228907512,107,327,Incorrect
2,relearn,75,281,B,54.0894357366034,44.098492620216376,2.70447178683017,0.6926975022502774,B,468,Correct
2,relearn,75,282,B,35.2126265105036,22.423634510441456,1.7606313255251798,0.35222962722392714,107,481,Incorrect
2,relearn,75,283,A,58.38154477631568,75.9459093794944,2.9190772388157837,1.1929555548840787,100,462,Incorrect
2,relearn,75,284,A,28.995869181827935,59.528557645382875,1.4497934590913968,0.9350723968876569,A,625,Correct
2,relearn,75,285,B,37.059513991350315,16.942724230110212,1.8529756995675157,0.26613568986556013,B,787,Correct
2,relearn,75,286,A,30.64192500457399,59.014789393823825,1.5320962502286994,0.9270021440639289,A,900,Correct
2,relearn,75,287,A,32.874009780196246,53.04213232741958,1.6437004890098124,0.833183866252795,A,578,Correct
2,relearn,75,288,B,55.581572906744675,38.466409361674664,2.779078645337234,0.6042289453030739,B,1050,Correct
2,relearn,75,289,B,67.9629291210867,49.08260944503722,3.398146456054335,0.7709878262577295,B,460,Correct
2,relearn,75,290,A,37.50192291876642,64.88330374774827,1.8750961459383209,1.0191845519728053,A,672,Correct
2,relearn,75,291,A,37.85722232055784,55.04207768398575,1.8928611160278919,0.8645989344516418,A,700,Correct
2,relearn,75,292,A,58.58041731904294,83.38489970022387,2.9290208659521464,1.3098069415927254,100,800,Incorrect
2,relearn,75,293,A,34.47439929156533,61.214425725288876,1.7237199645782664,0.9615539507614279,A,508,Correct
2,relearn,75,294,B,73.07174266496537,54.1357105007255,3.6535871332482683,0.8503617520297152,B,635,Correct
2,relearn,75,295,A,44.570705182697324,76.90637242473535,2.2285352591348664,1.208042473118946,A,973,Correct
2,relearn,75,296,A,27.15720524005036,48.21527854941964,1.357860262002518,0.7573638244082114,A,474,Correct
2,relearn,75,297,B,34.713689146696666,15.270125774630355,1.7356844573348331,0.23986257476485437,B,556,Correct
2,relearn,75,298,A,42.95960802007179,71.84538334562107,2.1479804010035894,1.1285446425647283,100,925,Incorrect
2,relearn,75,299,A,47.8610710445288,57.294176726666926,2.39305355222644,0.8999748234898606,A,507,Correct
2,relearn,75,300,B,56.13949469776888,25.439871398446357,2.806974734888444,0.39960856546814083,107,938,Incorrect
2,relearn,75,301,B,62.15039200840791,39.88555579771214,3.1075196004203955,0.6265208453921912,B,1943,Incorrect
2,relearn,75,302,B,64.53295034213164,52.50509665242094,3.2266475171065823,0.8247481295963384,A,459,Correct
2,relearn,75,303,B,52.06030654907899,28.631301472808218,2.6030153274539494,0.44973943184844467,A,434,Correct
2,relearn,75,304,B,51.87928970353376,34.95757668680958,2.593964485176688,0.549112330532914,A,536,Correct
2,relearn,75,305,B,61.723990768794984,49.53948151935956,3.0861995384397494,0.7781643560193368,107,435,Incorrect
2,relearn,75,306,B,51.81665714475447,41.90871640696064,2.5908328572377233,0.6583005779274279,B,508,Correct
2,relearn,75,307,A,46.03716138607475,58.084890060616615,2.3018580693037376,0.9123953194950197,100,299,Incorrect
2,relearn,75,308,B,40.060974190162995,17.023048951737525,2.0030487095081497,0.2673974276423902,107,729,Incorrect
2,relearn,75,309,A,43.071031547778986,70.04819480088797,2.1535515773889493,1.1003144709184818,B,449,Incorrect
2,relearn,75,310,B,52.57976542456945,39.134121977197424,2.6289882712284727,0.6147173505412517,B,255,Correct
2,relearn,75,311,A,65.07519063708597,87.42319269551032,3.253759531854298,1.3732402996279005,107,356,Incorrect
2,relearn,75,312,A,28.442935915518454,38.20135209632821,1.4221467957759228,0.6000654355151087,100,290,Incorrect
2,relearn,75,313,A,33.30450404863113,41.34550388205121,1.6652252024315566,0.6494536562741018,A,489,Correct
2,relearn,75,314,B,75.1277642224395,56.589100519494494,3.756388211121975,0.8888995123264913,100,462,Incorrect
2,relearn,75,315,B,64.61618357966472,48.68759192833118,3.230809178983236,0.7647829056151149,100,559,Incorrect
2,relearn,75,316,A,52.888371337425575,80.13670489255955,2.6444185668712787,1.2587844168667917,B,506,Correct
2,relearn,75,317,A,16.301568574467385,42.879871815007476,0.8150784287233692,0.6735554514044976,A,612,Correct
2,relearn,75,318,B,57.481554805184096,43.80830541709918,2.874077740259205,0.6881392523228836,B,489,Correct
2,relearn,75,319,B,78.39403228783337,56.96226700798839,3.9197016143916685,0.8947611978205827,100,719,Incorrect
2,relearn,75,320,B,39.57765238694893,12.450745357078976,1.9788826193474462,0.19557585072758268,A,538,Correct
2,relearn,75,321,A,34.847545494078226,65.40883987185596,1.7423772747039112,1.0274396541062691,B,446,Correct
2,relearn,75,322,B,72.50429083710785,57.62261145979065,3.6252145418553927,0.9051338642136866,B,1642,Correct
2,relearn,75,323,B,41.75043450205111,14.688934473012296,2.0875217251025555,0.2307332431473864,B,1242,Correct
2,relearn,75,324,A,44.151534379229844,53.0619379108892,2.207576718961492,0.8334949716304364,100,924,Incorrect
2,relearn,75,325,A,46.7246928679538,65.09263910787523,2.33623464339769,1.0224727841203625,A,697,Correct
2,relearn,75,326,A,22.97607936642904,38.924770101032856,1.1488039683214522,0.6114288589603822,A,593,Correct
2,relearn,75,327,A,13.478731074773098,33.39798037987022,0.6739365537386548,0.5246142490306818,A,608,Incorrect
2,relearn,75,328,A,16.84607220700192,40.770447284874166,0.842303610350096,0.6404206883686531,A,521,Correct
2,relearn,75,329,A,46.371542219621816,53.32950671236579,2.3185771109810904,0.8376979325356798,B,2160,Correct
2,relearn,75,330,B,64.39344053258732,35.369913266725476,3.219672026629366,0.5555892983842646,B,594,Correct
2,relearn,75,331,A,54.6085961134613,75.19329876970002,2.730429805673065,1.18113357507036,B,871,Correct
2,relearn,75,332,A,23.139819706795915,54.0203620713747,1.1569909853397957,0.8485498631384573,A,268,Correct
2,relearn,75,333,A,34.37222091838277,61.59859683240413,1.7186110459191386,0.9675884964006015,A,435,Correct
2,relearn,75,334,A,44.387390337664065,63.31215403074216,2.2193695168832033,0.9945049899296248,100,667,Incorrect
2,relearn,75,335,B,42.55565604211613,32.67116852727318,2.1277828021058065,0.5131975151473773,107,409,Incorrect
2,relearn,75,336,B,63.75127785420461,32.203270450339524,3.1875638927102306,0.5058477893417596,B,603,Correct
2,relearn,75,337,B,75.67496765105322,48.348663410927934,3.783748382552661,0.759459028913284,B,544,Correct
2,relearn,75,338,B,74.52043030333844,60.30640568951138,3.7260215151669223,0.9472908053928734,100,392,Incorrect
2,relearn,75,339,B,65.59933036787682,56.48857569277244,3.2799665183938407,0.8873204720408242,107,557,Incorrect
2,relearn,75,340,B,85.61399469568606,59.54084218139068,4.280699734784303,0.9352653619280311,107,395,Incorrect
2,relearn,75,341,A,34.08083213355436,64.55404221573401,1.704041606677718,1.014012523922377,100,294,Incorrect
2,relearn,75,342,B,68.54778467846269,40.705252488470066,3.4273892339231344,0.639396610901476,B,534,Correct
2,relearn,75,343,A,38.894076648350314,48.60296577031564,1.9447038324175157,0.7634536010334989,100,890,Incorrect
2,relearn,75,344,B,53.43645547929886,34.522517227727526,2.6718227739649425,0.5422784325302793,A,447,Correct
2,relearn,75,345,A,42.08468716036218,51.9787429273223,2.1042343580181093,0.8164801846165408,107,516,Incorrect
2,relearn,75,346,A,53.51956669158008,65.3719521836569,2.675978334579004,1.0268602236549986,100,602,Incorrect
2,relearn,75,347,B,48.38884366210647,27.34874980818531,2.4194421831053234,0.4295931574113013,A,538,Correct
2,relearn,75,348,A,21.140428700442598,48.90903160198425,1.0570214350221299,0.7682612718749238,A,298,Correct
2,relearn,75,349,B,45.27247572178619,19.042295558454136,2.2636237860893096,0.29911567916962534,A,543,Correct
2,relearn,75,350,B,36.82461696460324,17.450688249484866,1.841230848230162,0.27411477002333695,A,469,Correct
2,relearn,75,351,B,38.92316825704989,20.389381302105512,1.9461584128524945,0.32027565254967877,107,300,Incorrect
2,relearn,75,352,B,76.28766856352499,64.9605152676778,3.81438342817625,1.0203973876917207,107,534,Incorrect
2,relearn,75,353,A,12.033166579870695,30.25480929196288,0.6016583289935348,0.475241433036954,A,334,Correct
2,relearn,75,354,A,18.88870935811109,34.09915567362741,0.9444354679055544,0.5356282847894128,107,491,Incorrect
2,relearn,75,355,B,42.39148752837629,17.644880577410905,2.1195743764188144,0.2771651359773166,107,979,Incorrect
2,relearn,75,356,B,39.23871495080261,23.514361821619055,1.9619357475401304,0.3693627317632537,100,384,Incorrect
2,relearn,75,357,B,48.793902594053385,34.80301336486582,2.439695129702669,0.5466844555492492,107,353,Incorrect
2,relearn,75,358,A,26.516743330832497,38.163544518707866,1.3258371665416249,0.5994715554745983,100,400,Correct
2,relearn,75,359,A,62.96976606529432,88.2736024650925,3.148488303264716,1.3865985050512024,107,489,Incorrect
2,relearn,75,360,A,56.420963226437095,83.8914143496143,2.8210481613218548,1.317763255100028,B,492,Correct
2,relearn,75,361,A,62.85320173905933,73.94153119403396,3.1426600869529664,1.161470855971788,100,339,Incorrect
2,relearn,75,362,A,37.754388970722076,65.47095211590779,1.8877194485361037,1.0284153109543253,B,308,Correct
2,relearn,75,363,A,66.45804093841778,84.79956636763862,3.322902046920889,1.3320284736408678,A,689,Correct
2,relearn,75,364,A,46.52618493677403,63.99331398841901,2.3263092468387017,1.0052046255244105,107,518,Incorrect
2,relearn,75,365,B,60.498300195074606,34.042332526446856,3.0249150097537303,0.5347357088807315,107,324,Incorrect
2,relearn,75,366,A,18.371931019197596,42.922380127224756,0.9185965509598799,0.674223170411389,100,304,Incorrect
2,relearn,75,367,A,24.663705816104482,35.60179989651567,1.233185290805224,0.5592317650473375,A,433,Correct
2,relearn,75,368,B,73.86734007032388,43.315322040421854,3.6933670035161934,0.6803954875503267,B,371,Correct
2,relearn,75,369,B,48.526504511909344,25.22806373557333,2.426325225595467,0.3962814984798612,B,605,Correct
2,relearn,75,370,B,50.78816813690783,20.415055122457996,2.539408406845391,0.3206789359767236,B,444,Correct
2,relearn,75,371,B,76.93527995968454,59.33109521977043,3.8467639979842265,0.9319706643593365,B,436,Correct
2,relearn,75,372,A,64.35612955682961,80.03355234756884,3.2178064778414806,1.2571641004790821,B,554,Correct
2,relearn,75,373,A,21.165661207877267,52.03944639767126,1.0582830603938633,0.8174337124990193,A,420,Correct
2,relearn,75,374,A,22.818670466223708,40.900509248422146,1.1409335233111855,0.642463696914622,A,326,Correct
2,relearn,75,375,A,51.38200341640806,62.59578552476026,2.5691001708204033,0.9832522997513459,A,508,Correct
2,relearn,75,376,B,60.838624054079254,43.37518163094674,3.0419312027039624,0.6813357597995261,107,334,Incorrect
2,relearn,75,377,A,64.54556348138637,89.25852199631497,3.227278174069318,1.4020695848695301,100,385,Incorrect
2,relearn,75,378,A,38.79440204256519,65.90007944940972,1.9397201021282595,1.0351560273462463,100,282,Incorrect
2,relearn,75,379,A,19.518871728908433,37.451234138241276,0.9759435864454217,0.5882826101828503,107,375,Incorrect
2,relearn,75,380,A,44.214410371909466,73.44773510879199,2.2107205185954735,1.1537143252029503,B,473,Correct
2,relearn,75,381,B,51.889534804947,32.85292835604506,2.59447674024735,0.5160525918613149,A,308,Correct
2,relearn,75,382,B,76.25960532190139,56.992765791266365,3.8129802660950696,0.8952402715880304,100,474,Incorrect
2,relearn,75,383,A,38.831900481646606,68.86116928592213,1.9415950240823303,1.0816687177312803,100,249,Incorrect
2,relearn,75,384,B,34.206078514052535,16.58067661965269,1.7103039257026267,0.26044865929924466,A,295,Incorrect
2,relearn,75,385,B,47.539505674906096,34.741408548764994,2.3769752837453044,0.5457167693608086,107,610,Incorrect
2,relearn,75,386,A,28.573828049014786,42.283219644864936,1.4286914024507393,0.6641832610321565,100,411,Correct
2,relearn,75,387,B,33.41213018297054,14.439397754289399,1.6706065091485272,0.22681352953568268,B,460,Correct
2,relearn,75,388,B,73.2162727652065,51.22251547356032,3.6608136382603247,0.8046013915506331,B,309,Correct
2,relearn,75,389,A,51.040050585435715,64.13049119528681,2.552002529271786,1.0073594000510897,B,291,Correct
2,relearn,75,390,A,54.482475982641205,66.07666699596123,2.72412379913206,1.0379298580410548,107,14,Incorrect
2,relearn,75,391,A,52.20484580560526,60.52780101556433,2.610242290280263,0.9507684750422085,B,339,Correct
2,relearn,75,392,B,74.34572284955831,50.211104541107495,3.717286142477916,0.7887141857748622,100,260,Incorrect
2,relearn,75,393,A,13.361225187374583,33.10183822039669,0.6680612593687292,0.5199624588675803,107,269,Incorrect
2,relearn,75,394,B,77.08967715139859,63.50916152277856,3.8544838575699294,0.9975995763780435,100,401,Correct
2,relearn,75,395,A,19.551356883982308,37.13007765976622,0.9775678441991154,0.5832378960157004,100,257,Incorrect
2,relearn,75,396,B,71.43408881054992,61.2835125110967,3.5717044405274962,0.9626391634551978,107,330,Incorrect
2,relearn,75,397,A,67.72200264915121,81.11837807632327,3.3861001324575604,1.2742045031784826,A,478,Correct
2,relearn,75,398,A,60.133454537140246,79.68582120983399,3.0066727268570124,1.251701952540421,A,411,Correct
2,relearn,75,399,A,43.49036512765652,60.8562004508517,2.1745182563828256,0.9559269613089177,A,384,Incorrect
2,relearn,75,400,A,39.65338395995275,63.75019333785705,1.9826691979976374,1.0013856952757034,B,2225,Correct
2,relearn,75,401,B,79.03081144301422,51.9250961830127,3.951540572150711,0.8156375035274804,B,357,Correct
2,relearn,75,402,B,72.24882060475629,59.75849153412897,3.6124410302378145,0.9386841899661371,B,352,Correct
2,relearn,75,403,B,48.694964757991855,18.135720312857355,2.4347482378995924,0.28487522851215924,100,420,Incorrect
2,relearn,75,404,A,56.3649404927554,77.48136631077719,2.81824702463777,1.2170744559601867,B,299,Incorrect
2,relearn,75,405,B,64.44857330560647,54.11068700048435,3.222428665280324,0.8499686838070918,107,458,Correct
2,relearn,75,406,A,41.15845053619778,71.35822216162941,2.057922526809889,1.1208923325810165,A,389,Correct
2,relearn,75,407,A,35.70775261604403,59.23765164469455,1.7853876308022019,0.9305028561144186,B,591,Incorrect
2,relearn,75,408,A,55.68787958398911,70.0372124216675,2.7843939791994554,1.100141960109092,107,306,Incorrect
2,relearn,75,409,A,14.896478660767642,37.071071792947976,0.7448239330383821,0.5823110340271259,A,631,Correct
2,relearn,75,410,A,15.943324458574729,38.993729081217175,0.7971662229287364,0.6125120640881127,A,400,Correct
2,relearn,75,411,A,48.828974044470414,76.93139429236058,2.4414487022235205,1.2084355156964988,100,659,Incorrect
2,relearn,75,412,B,78.07013490191885,47.3264388915096,3.9035067450959424,0.7434019637106642,107,459,Incorrect
2,relearn,75,413,A,37.51550455008169,46.21295032665052,1.8757752275040844,0.7259113262345765,100,421,Incorrect
2,relearn,75,414,A,45.24203391621887,69.0193844789298,2.2621016958109434,1.0841539561714761,A,478,Correct
2,relearn,75,415,A,30.6475176592475,41.35671534484692,1.532375882962375,0.6496297655198767,100,313,Incorrect
2,relearn,75,416,B,47.049309634303384,35.96380126429009,2.352465481715169,0.5649180692352854,107,303,Incorrect
2,relearn,75,417,A,37.3517891285974,44.800807293390356,1.86758945642987,0.7037294353390358,100,259,Incorrect
2,relearn,75,418,B,39.16055786587958,26.941233121925503,1.9580278932939792,0.4231919002724558,107,534,Incorrect
2,relearn,75,419,A,16.391461879263268,31.156744393017384,0.8195730939631634,0.48940899647439196,A,582,Correct
2,relearn,75,420,B,66.75424287053255,40.31277430214337,3.3377121435266277,0.633231577967185,A,748,Correct
2,relearn,75,421,A,17.357164781259275,35.99636761187547,0.8678582390629637,0.5654296202269278,A,538,Correct
2,relearn,75,422,A,21.803941596436992,35.38313389262391,1.0901970798218497,0.5557969674902565,A,596,Correct
2,relearn,75,423,B,44.567548248605796,25.9760163118379,2.2283774124302895,0.4080303100739929,A,724,Correct
2,relearn,75,424,A,48.32274528121188,78.4222106229828,2.4161372640605943,1.2318532038571712,107,384,Incorrect
2,relearn,75,425,B,65.478063282717,49.91460249231741,3.2739031641358505,0.7840567424835956,B,597,Correct
2,relearn,75,426,A,18.220050645774542,37.43336316609642,0.9110025322887271,0.5880018936088364,A,403,Correct
2,relearn,75,427,A,48.62838254314224,58.279200742016755,2.431419127157112,0.9154475445410234,B,1049,Correct
2,relearn,75,428,A,14.478476108688795,31.357508221292477,0.7239238054344398,0.49256258731446995,107,1553,Incorrect
2,relearn,75,429,B,76.20168414824637,45.56605928192586,3.8100842074123187,0.7157499854656765,B,566,Correct
2,relearn,75,430,A,46.560909652420015,72.2390924829993,2.328045482621001,1.1347290112329211,107,1702,Incorrect
2,relearn,75,431,A,22.65658705086565,40.64128210808812,1.1328293525432824,0.6383917665161998,B,306,Correct
2,relearn,75,432,A,25.055501866499377,44.023443301610186,1.2527750933249688,0.6915186303103268,A,531,Correct
2,relearn,75,433,A,57.71511663266241,74.86579182705619,2.8857558316331207,1.1759891080453124,A,488,Correct
2,relearn,75,434,A,59.319075455720935,80.0431526782985,2.965953772786047,1.2573149021215437,A,328,Correct
2,relearn,75,435,A,22.207036912630546,43.80460817130769,1.1103518456315273,0.6880811761217983,100,399,Incorrect
2,relearn,75,436,A,61.73150467205738,72.30985007801101,3.0865752336028693,1.1358404689362938,A,429,Correct
2,relearn,75,437,B,61.625199468564674,39.62154659681302,3.0812599734282338,0.6223737985620672,107,418,Incorrect
2,relearn,75,438,A,34.1694544105101,44.7352449195445,1.708472720525505,0.7026995839789056,A,649,Correct
2,relearn,75,439,A,44.263638563770485,60.27525319467901,2.2131819281885243,0.9468014631483415,A,526,Correct
2,relearn,75,440,A,47.81779371025353,72.01860801119284,2.390889685512677,1.1312656492486324,A,549,Correct
2,relearn,75,441,A,51.64634943775516,59.89225978121468,2.582317471887758,0.9407854166777774,A,284,Correct
2,relearn,75,442,B,48.8824657598592,34.58098685418359,2.44412328799296,0.543196871274942,A,285,Correct
2,relearn,75,443,A,32.5542795288823,48.016039612882004,1.6277139764441149,0.754234186511533,107,326,Incorrect
2,relearn,75,444,A,59.388245338332595,75.40231426369219,2.9694122669166294,1.1844167827724212,A,331,Correct
2,relearn,75,445,A,35.502057127904166,65.50075726531995,1.7751028563952083,1.028883489146487,107,250,Incorrect
2,relearn,75,446,A,53.830289031368004,67.55767190647137,2.6915144515684,1.061193428775,A,302,Correct
2,relearn,75,447,B,40.879079935859934,27.151406582682622,2.0439539967929967,0.4264932972739264,B,524,Correct
2,relearn,75,448,B,78.76208807018803,59.81238433375427,3.9381044035094015,0.9395307360830583,100,297,Incorrect
2,relearn,75,449,A,16.66626759459439,38.12520480749501,0.8333133797297195,0.5988693166991629,107,329,Incorrect
2,relearn,75,450,A,43.81467205613382,59.85560337011366,2.190733602806691,0.9402096191186676,A,713,Correct
2,relearn,75,451,B,64.01572112852025,46.73516507940358,3.2007860564260127,0.7341142563888026,A,316,Correct
2,relearn,75,452,A,57.32142096143791,73.82832137955408,2.8660710480718956,1.1596925603643666,A,372,Correct
2,relearn,75,453,B,75.02603282097127,50.02143385353288,3.751301641048564,0.7857348455814335,107,309,Incorrect
2,relearn,75,454,A,61.24491255281974,80.58096708190958,3.062245627640987,1.2657628710184403,100,370,Incorrect
2,relearn,75,455,B,87.80351949824394,65.918017983162,4.390175974912197,1.035437805175508,B,317,Correct
2,relearn,75,456,A,39.04928149287321,54.56053204855144,1.9524640746436606,0.8570348332983985,B,344,Correct
2,relearn,75,457,B,57.41274760069355,28.621247772080977,2.8706373800346774,0.4495815086867141,B,418,Correct
2,relearn,75,458,B,60.23051849119592,45.0605274469718,3.0115259245597965,0.7078091099714392,B,402,Correct
2,relearn,75,459,B,56.56440181387025,24.084402197409656,2.828220090693512,0.37831690504742016,B,320,Correct
2,relearn,75,460,A,56.234433215321246,77.17149252030592,2.8117216607660622,1.2122069698417637,B,451,Correct
2,relearn,75,461,A,22.51040612405044,43.152923214556445,1.1255203062025219,0.6778445327588749,100,335,Incorrect
2,relearn,75,462,A,42.32894514468292,65.69154739344592,2.116447257234146,1.0318804134709771,107,363,Correct
2,relearn,75,463,B,66.48748771490553,34.779682625430205,3.3243743857452763,0.5463179771511805,A,60,Incorrect
2,relearn,75,464,B,75.88887438848758,63.15343033859098,3.794443719424379,0.9920117640035608,B,309,Correct
2,relearn,75,465,A,27.053701058486638,38.25960706732554,1.352685052924332,0.6009805024597101,B,263,Correct
2,relearn,75,466,A,23.6040270580965,54.632329333042,1.180201352904825,0.8581626224059147,100,326,Incorrect
2,relearn,75,467,B,89.47074032161598,65.90902051156635,4.473537016080798,1.035296473222179,B,377,Correct
2,relearn,75,468,A,35.38983695034921,59.30712362901583,1.7694918475174606,0.9315941194922889,A,353,Correct
2,relearn,75,469,B,43.62732638018008,28.452406669364784,2.181366319009004,0.44692935884712826,100,369,Incorrect
2,relearn,75,470,B,47.27829521490097,26.908264345439186,2.3639147607450486,0.4226740279424196,107,389,Incorrect
2,relearn,75,471,B,43.688019717586364,19.86008814707983,2.1844009858793183,0.3119615351125586,100,354,Incorrect
2,relearn,75,472,B,69.52635414203633,45.49483946160303,3.476317707101816,0.7146312671440955,107,251,Incorrect
2,relearn,75,473,B,58.37458709806091,46.88985300880729,2.9187293549030455,0.7365440887018712,107,263,Incorrect
2,relearn,75,474,A,32.75681818326657,48.77867239071692,1.6378409091633284,0.7662135941726977,A,400,Correct
2,relearn,75,475,B,56.45442449971621,36.95704880168508,2.8227212249858105,0.5805199650686665,B,648,Correct
2,relearn,75,476,A,25.867940653419332,39.97057916837662,1.2933970326709667,0.627856389375506,100,1090,Incorrect
2,relearn,75,477,B,59.422031230970546,36.69999783849807,2.9711015615485277,0.576482217980934,100,389,Incorrect
2,relearn,75,478,B,67.78371616611537,41.93659713425856,3.3891858083057684,0.6587385273677073,100,816,Correct
2,relearn,75,479,B,31.43768498422631,17.796525197983726,1.5718842492113154,0.27954716410705654,100,376,Correct
2,relearn,75,480,A,44.76720200012689,62.54357397965787,2.2383601000063447,0.9824321627187145,100,286,Correct
2,relearn,75,481,B,56.97367033913712,30.85571866511395,2.848683516956856,0.48468049539777724,107,361,Incorrect
2,relearn,75,482,A,68.4746479816966,85.75170847145849,3.4237323990848303,1.346984686833538,100,252,Correct
2,relearn,75,483,B,82.65241608259291,60.943364876015664,4.132620804129646,0.9572961368976652,100,344,Correct
2,relearn,75,484,A,62.81188176349261,83.09714518218823,3.14059408817463,1.3052869041932351,100,371,Incorrect
2,relearn,75,485,A,53.25991963762067,63.6501178478153,2.6629959818810334,0.9998137131541057,A,307,Correct
2,relearn,75,486,B,46.26236818779515,33.022056895689424,2.3131184093897574,0.5187092567496104,100,506,Correct
2,relearn,75,487,B,60.17226709864825,46.460919652503165,3.0086133549324128,0.7298064192966478,100,490,Correct
2,relearn,75,488,B,85.76631378480681,68.18867184318714,4.28831568924034,1.0711051526030095,107,363,Incorrect
2,relearn,75,489,A,61.89909323652711,78.60349999016483,3.0949546618263555,1.234700890577736,100,385,Correct
2,relearn,75,490,B,54.52659668936303,30.113333827362492,2.7263298344681517,0.47301914163569503,100,294,Incorrect
2,relearn,75,491,B,64.17518808392505,35.49228121324063,3.208759404196252,0.5575114495932989,B,277,Correct
2,relearn,75,492,A,50.80243786717986,58.9473917681453,2.540121893358993,0.9259434646354237,A,300,Incorrect
2,relearn,75,493,A,66.66665444399713,88.88353457461352,3.3333327221998563,1.3961792962235011,100,311,Incorrect
2,relearn,75,494,A,12.332322975213277,32.84202222578574,0.6166161487606638,0.5158812787678059,A,653,Correct
2,relearn,75,495,B,76.66581918395855,49.97487175868729,3.833290959197927,0.7850034499059202,100,340,Correct
2,relearn,75,496,B,62.48440259396325,53.40125224357614,3.1242201296981627,0.838824908704571,107,632,Incorrect
2,relearn,75,497,B,87.79074076156043,60.27644276047822,4.389537038078021,0.9468201488042204,107,228,Incorrect
2,relearn,75,498,A,34.306542687039396,62.65617454556962,1.7153271343519696,0.9842008882720066,107,289,Correct
2,relearn,75,499,A,30.101501202461797,58.49735298475964,1.50507506012309,0.9188742719568492,A,34,Incorrect
2,relearn,75,500,B,60.665482079212104,33.44408349520706,3.0332741039606055,0.5253384350729308,107,341,Incorrect
2,relearn,75,501,A,33.33651665560957,46.66150761101821,1.6668258327804784,0.7329572475809952,100,341,Incorrect
2,relearn,75,502,A,24.9621523808893,38.455487571054846,1.248107619044465,0.6040573862171976,100,397,Incorrect
2,relearn,75,503,A,34.228274506511966,62.982733129363744,1.7114137253255983,0.9893304585110781,107,766,Incorrect
2,relearn,75,504,B,69.75752000483007,50.028550167633895,3.4878760002415037,0.7858466283819352,A,481,Correct
2,relearn,75,505,A,29.352910647255907,46.49161910297428,1.4676455323627955,0.7302886451369944,A,443,Correct
2,relearn,75,506,A,38.22526789461599,60.75997281241401,1.9112633947307995,0.954415421098977,A,406,Correct
2,relearn,75,507,B,86.80417236514677,67.91751404208341,4.340208618257338,1.0668458158234544,107,710,Incorrect
2,relearn,75,508,A,21.160347557218323,38.589715950436286,1.0580173778609163,0.6061658406700375,107,267,Incorrect
2,relearn,75,509,A,20.484927158082616,36.04359010754361,1.0242463579041308,0.5661713894543037,100,306,Incorrect
2,relearn,75,510,B,68.57842763149678,46.61201220662674,3.4289213815748387,0.7321797755868816,107,367,Incorrect
2,relearn,75,511,B,64.79763003405857,57.13415500472607,3.2398815017029285,0.8974612081595396,B,534,Correct
2,relearn,75,512,A,67.61315879465234,80.28182904013809,3.380657939732617,1.2610640216462476,B,466,Correct
2,relearn,75,513,B,57.35286523682433,37.23863354261826,2.867643261841216,0.58494308783606,B,534,Correct
2,relearn,75,514,B,46.31326041063782,30.77212734690897,2.3156630205318907,0.4833674460418939,B,314,Correct
2,relearn,75,515,A,27.22253253953004,37.38612220795376,1.3611266269765019,0.5872598343735888,100,376,Incorrect
2,relearn,75,516,B,56.1854699108025,46.46946613478119,2.809273495540125,0.7299406671263414,B,330,Correct
2,relearn,75,517,A,53.31363350558225,71.9138864169921,2.665681675279113,1.1296206862935658,100,315,Incorrect
2,relearn,75,518,A,19.12035406886564,48.066457052595936,0.956017703443282,0.7550261418026235,100,329,Incorrect
2,relearn,75,519,B,38.93874182198793,15.064899515299679,1.9469370910993968,0.2366388882216695,A,420,Correct
2,relearn,75,520,A,41.21040229259623,58.6864799779182,2.0605201146298113,0.9218450718183615,107,682,Incorrect
2,relearn,75,521,A,29.357625768809164,40.84423669468964,1.4678812884404582,0.6415797697075982,100,286,Correct
2,relearn,75,522,A,46.02340985582627,55.0091676178993,2.301170492791314,0.8640819843424099,B,326,Incorrect
2,relearn,75,523,A,30.513545109939542,53.789471332095566,1.525677255496977,0.844923039886951,A,280,Correct
2,relearn,75,524,A,41.177902028504676,65.86177668026055,2.0588951014252337,1.0345543688553902,B,488,Correct
2,relearn,75,525,B,71.57458466416719,41.483328530305066,3.57872923320836,0.6516186007862914,B,332,Correct
2,relearn,75,526,A,35.417094466004166,60.08625041767412,1.770854723300208,0.9438326144696082,100,424,Incorrect
2,relearn,75,527,A,18.62269620515965,38.567650210397304,0.9311348102579825,0.6058192328360251,A,550,Correct
2,relearn,75,528,A,22.466996047285306,40.44895858375423,1.1233498023642654,0.6353707556604004,A,3544,Correct
2,relearn,75,529,A,60.684316206908086,80.98395903905694,3.0342158103454047,1.27209305387859,100,2397,Incorrect
2,relearn,75,530,B,68.5143823476103,55.93051481044003,3.425719117380515,0.8785544721998676,100,1617,Incorrect
2,relearn,75,531,A,28.203433288663035,56.06011530766239,1.4101716644331517,0.8805902320497444,A,645,Correct
2,relearn,75,532,A,63.275571852994034,80.2442995035961,3.163778592649702,1.2604745090647829,A,3692,Correct
2,relearn,75,533,B,43.94038996514265,27.924162706305616,2.1970194982571325,0.438631722078879,A,3628,Correct
2,relearn,75,534,A,29.047146660454747,41.971663281902025,1.4523573330227373,0.6592893451268393,107,2779,Incorrect
2,relearn,75,535,B,68.45838385759888,56.34314415481712,3.4229191928799434,0.8850360387846207,100,666,Incorrect
2,relearn,75,536,B,78.93623446622689,65.90223735577736,3.9468117233113444,1.035189923660205,B,551,Correct
2,relearn,75,537,B,50.98297930853059,31.66330284577283,2.5491489654265296,0.4973659980433436,B,1841,Correct
2,relearn,75,538,A,32.91927205562402,61.477404286208326,1.645963602781201,0.9656848083366085,A,2397,Correct
2,relearn,75,539,B,54.22300218616345,44.043178650158865,2.7111501093081722,0.6918286324404096,100,610,Incorrect
2,relearn,75,540,A,60.22513021583693,68.60238134747709,3.0112565107918465,1.0776036862999974,B,744,Correct
2,relearn,75,541,B,51.57756089223473,29.14969068530236,2.578878044611736,0.45788227055680364,107,734,Incorrect
2,relearn,75,542,A,40.93666211327697,70.36798103774547,2.0468331056638482,1.1053376613806352,B,310,Correct
2,relearn,75,543,A,26.28678249350218,54.24553394124153,1.314339124675109,0.8520868545993009,B,2320,Correct
2,relearn,75,544,B,39.30287471804444,16.00328287234924,1.9651437359022221,0.2513789795254586,B,2245,Correct
2,relearn,75,545,A,43.85057509784067,59.375375204453675,2.1925287548920336,0.9326662127322461,100,2419,Incorrect
2,relearn,75,546,B,80.45150170734918,53.35500536059418,4.022575085367459,0.8380984643654336,B,3074,Correct
2,relearn,75,547,B,63.580862171777746,47.743457350331425,3.1790431085888873,0.749952474343894,107,6026,Incorrect
2,relearn,75,548,B,77.82831898959488,52.42694283388487,3.891415949479744,0.8235204922855238,100,663,Correct
2,relearn,75,549,B,45.266887103245125,22.889829705921276,2.263344355162256,0.3595526042302184,A,1468,Correct
2,relearn,75,550,A,15.317618070408844,40.311102051736526,0.7658809035204421,0.6332053103192196,A,292,Incorrect
2,relearn,75,551,A,35.53495275587214,47.81826356155294,1.7767476377936071,0.751127527561976,100,1982,Incorrect
2,relearn,75,552,B,63.30469375818724,44.465080603521095,3.165234687909362,0.6984558528264994,A,1321,Correct
2,relearn,75,553,A,57.0979440545901,68.70779485388817,2.8548972027295054,1.0792595177866484,100,4361,Incorrect
2,relearn,75,554,A,58.702454280836655,73.77699565967507,2.9351227140418326,1.1588863378418062,A,362,Correct
2,relearn,75,555,B,54.7934613153897,37.70941620193847,2.7396730657694848,0.5923381245558491,100,849,Correct
2,relearn,75,556,B,58.263068350580745,35.78594307526969,2.9131534175290374,0.562124279335249,100,317,Incorrect
2,relearn,75,557,B,49.51701811112376,37.621098970277906,2.475850905556188,0.590950840724998,B,776,Correct
2,relearn,75,558,B,70.55665599635168,39.336307627184006,3.527832799817584,0.6178932753045471,A,607,Correct
2,relearn,75,559,A,42.35627759268012,65.89327827032083,2.117813879634006,1.0350491946749394,107,6583,Incorrect
2,relearn,75,560,A,15.39533395652322,34.903965033162905,0.769766697826161,0.5482702006466981,100,309,Correct
2,relearn,75,561,A,40.28104908826727,47.2010877514677,2.0140524544133633,0.7414329526072905,107,1000,Correct
2,relearn,75,562,B,37.4400794494004,14.368360077738235,1.87200397247002,0.22569767232177654,100,341,Incorrect
2,relearn,75,563,B,71.97479424888074,51.293607620907245,3.5987397124440372,0.8057181043897982,100,615,Incorrect
2,relearn,75,564,A,25.551064284170003,38.2542574396832,1.2775532142085,0.6008964707052071,A,532,Correct
2,relearn,75,565,B,74.56465032629006,61.347063947029845,3.7282325163145034,0.963637427076461,107,418,Incorrect
2,relearn,75,566,A,15.12902600610083,41.64736934939361,0.7564513003050415,0.6541953479469783,A,318,Correct
2,relearn,75,567,B,46.88700918791252,35.137599368743786,2.344350459395626,0.5519401202081341,A,734,Correct
2,relearn,75,568,B,48.32050869493565,24.26058783076013,2.4160254347467824,0.3810844225044298,B,482,Correct
2,relearn,75,569,B,83.32173868690532,61.48370773330516,4.166086934345266,0.9657838226520673,100,389,Incorrect
2,relearn,75,570,A,51.31592393180279,66.6595564505204,2.56579619659014,1.0470858641825451,107,451,Incorrect
2,relearn,75,571,B,83.25062914876843,58.816427465517904,4.162531457438422,0.9238862821803399,B,696,Correct
2,relearn,75,572,B,38.223495186377846,16.032987191466315,1.9111747593188924,0.2518455738790491,100,778,Incorrect
2,relearn,75,573,B,72.06775823131422,58.31657566206947,3.6033879115657106,0.9160346284123538,107,1351,Incorrect
2,relearn,75,574,B,63.09649863195061,38.82450245795934,3.1548249315975307,0.6098538585060197,107,617,Incorrect
2,relearn,75,575,B,59.05249493631259,43.09928032251342,2.9526247468156295,0.6770019121810765,B,421,Correct
2,relearn,75,576,A,17.662174899579938,33.03003253754517,0.8831087449789969,0.5188345378389186,107,433,Incorrect
2,relearn,75,577,B,55.72422616222134,41.672708461274986,2.786211308111067,0.6545933737856535,100,533,Incorrect
2,relearn,75,578,A,29.007762034015983,44.85025634208897,1.450388101700799,0.7045061791796287,A,279,Correct
2,relearn,75,579,A,52.70923976525428,64.56556037852307,2.6354619882627137,1.0141934508003816,B,451,Correct
2,relearn,75,580,B,79.64473244171275,64.14445376898003,3.982236622085637,1.007578723645789,B,570,Correct
2,relearn,75,581,B,88.333552943385,62.10894784833026,4.416677647169251,0.9756050714125297,B,533,Correct
2,relearn,75,582,A,61.31427234780123,81.75227673375427,3.0657136173900614,1.2841617600050108,107,314,Incorrect
2,relearn,75,583,A,32.414763057729836,56.57095812738187,1.6207381528864917,0.8886145322975935,100,289,Correct
2,relearn,75,584,A,57.445076453654956,65.42846979223908,2.8722538226827474,1.0277480001746002,B,227,Incorrect
2,relearn,75,585,A,45.73489523980985,56.48367627811594,2.2867447619904926,0.8872435122153655,B,423,Correct
2,relearn,75,586,A,33.87706985467667,44.211438641857136,1.6938534927338336,0.6944716542094713,A,255,Correct
2,relearn,75,587,A,35.99708538711185,65.00861417942733,1.7998542693555926,1.0211529236307106,A,511,Correct
2,relearn,75,588,B,58.63498637227737,45.40569156881414,2.931749318613868,0.7132309353187525,107,562,Incorrect
2,relearn,75,589,B,62.230816256154675,32.877643646839466,3.1115408128077338,0.5164408187412701,B,519,Correct
2,relearn,75,590,B,64.04482403418606,41.50896747898052,3.202241201709303,0.6520213364503142,B,639,Correct
2,relearn,75,591,B,61.50471738618954,41.55757787395037,3.075235869309477,0.6527849067489411,B,363,Correct
2,relearn,75,592,A,42.29944980894513,70.82554099060525,2.1149724904472564,1.112524996313041,B,334,Correct
2,relearn,75,593,B,69.66190801211087,36.863795024122744,3.4830954006055435,0.5790551381561199,A,545,Correct
2,relearn,75,594,A,46.967948402018436,58.82577767776432,2.348397420100922,0.9240331549708541,100,1631,Incorrect
2,relearn,75,595,B,39.15174638928765,18.954711717965235,1.9575873194643827,0.29773991542035977,B,284,Correct
2,relearn,75,596,A,47.596857215002416,66.21512248251827,2.379842860750121,1.0401047117381388,100,366,Incorrect
2,relearn,75,597,B,52.332338711898885,42.678938927653775,2.6166169355949442,0.6703992049906227,B,454,Correct
2,relearn,75,598,B,59.81871308469986,36.511888317083134,2.9909356542349927,0.5735274005281968,B,709,Correct
2,relearn,75,599,A,44.742955795869655,53.14140043192069,2.237147789793483,0.8347431659919775,B,570,Correct
2,relearn,75,600,A,38.33047193844688,48.93760393614509,1.9165235969223438,0.7687100850504017,A,377,Correct
2,relearn,75,601,B,38.09834967580112,11.622312790045214,1.9049174837900558,0.1825628623946437,B,767,Correct
2,relearn,75,602,A,43.98276154567183,67.50939030312644,2.199138077283591,1.06043502312314,100,559,Incorrect
2,relearn,75,603,A,24.437469795125033,44.72975454627278,1.2218734897562515,0.7026133413972262,B,773,Incorrect
2,relearn,75,604,A,36.71231972454155,64.08949608900355,1.8356159862270776,1.0067154504274265,A,498,Correct
2,relearn,75,605,A,13.311337636287952,40.057440510936466,0.6655668818143977,0.6292208041538407,A,624,Correct
2,relearn,75,606,A,47.56795414088094,74.61946330688244,2.378397707044047,1.1721197886985748,100,586,Incorrect
2,relearn,75,607,B,86.89835672770248,60.886843196180806,4.344917836385124,0.9564082964269767,B,640,Correct
2,relearn,75,608,A,48.94387841092168,75.9471868636646,2.4471939205460838,1.1929756215584997,100,418,Incorrect
2,relearn,75,609,B,44.12314126202553,16.294503127405342,2.2061570631012763,0.25595345659476265,B,524,Correct
2,relearn,75,610,B,63.875147317489926,53.40059751865586,3.193757365874496,0.838814624309573,B,1543,Correct
2,relearn,75,611,B,52.68190938969917,40.67323787460856,2.6340954694849588,0.6388937265229019,B,480,Correct
2,relearn,75,612,A,34.17742865726056,49.216989220842095,1.7088714328630283,0.7730986588400278,100,451,Incorrect
2,relearn,75,613,B,80.43127099187069,67.77057825975038,4.021563549593535,1.0645377539518197,B,577,Correct
2,relearn,75,614,B,56.39238042269721,29.22864487144829,2.8196190211348604,0.4591224800126346,107,777,Incorrect
2,relearn,75,615,A,58.82112591405122,82.94223668001244,2.9410562957025608,1.3028536071311647,A,385,Correct
2,relearn,75,616,B,70.41146462400398,42.94919959674269,3.520573231200199,0.6746444496534427,B,678,Correct
2,relearn,75,617,A,58.108444663890864,76.05795901127404,2.905422233194543,1.1947156263842607,A,1008,Correct
2,relearn,75,618,B,37.6868766317133,13.754597072412658,1.8843438315856647,0.2160567055788964,B,672,Correct
2,relearn,75,619,B,73.86307154116146,47.6962971932563,3.693153577058073,0.7492116843288471,B,1056,Correct
2,relearn,75,620,A,40.843334880222606,47.87106457235171,2.0421667440111304,0.7519569239001137,100,909,Incorrect
2,relearn,75,621,A,37.00313720775269,54.140702047880566,1.8501568603876342,0.8504401590690773,A,586,Correct
2,relearn,75,622,A,26.892782368513476,58.45143588661048,1.3446391184256736,0.9181530078657514,A,624,Correct
2,relearn,75,623,B,86.70005075438739,62.66946598542424,4.33500253771937,0.9844096697210211,B,507,Correct
2,relearn,75,624,A,67.22955924218817,87.28538637044194,3.361477962109409,1.3710756429356352,100,522,Incorrect
2,relearn,75,625,A,52.42561802256695,69.87204862723951,2.6212809011283476,1.097547573293022,100,385,Incorrect
2,relearn,75,626,B,33.039364325005124,16.11171010208324,1.6519682162502562,0.2530821504673658,B,707,Correct
2,relearn,75,627,B,54.68887715666566,27.834366571306752,2.734443857833283,0.4372212076887131,B,823,Correct
2,relearn,75,628,B,79.64100498851654,53.376173100972686,3.982050249425827,0.8384309664537646,107,1018,Incorrect
2,relearn,75,629,B,79.099363066452,50.85295997267738,3.9549681533226,0.7987964273172952,B,2152,Correct
2,relearn,75,630,B,82.37540024397859,58.641907262504546,4.1187700121989295,0.9211449252418912,107,1164,Incorrect
2,relearn,75,631,B,48.05024951776606,24.175351768790435,2.402512475888303,0.3797455375739052,B,294,Correct
2,relearn,75,632,A,29.94549802703591,46.947846092814004,1.4972749013517954,0.7374550419352437,100,1069,Incorrect
2,relearn,75,633,A,60.8525436890911,70.92229650677533,3.042627184454555,1.1140448284070121,A,465,Correct
2,relearn,75,634,B,67.60864899794971,50.97028798756419,3.380432449897486,0.8006394114654387,107,708,Incorrect
2,relearn,75,635,B,80.66580288920397,50.06722447687911,4.0332901444601985,0.7864541230109725,107,313,Incorrect
2,relearn,75,636,A,27.183941131603916,58.60728228952839,1.3591970565801959,0.920601037438228,A,276,Correct
2,relearn,75,637,B,45.101869505112305,37.691083229202285,2.255093475255615,0.5920501508935169,107,923,Incorrect
2,relearn,75,638,A,40.261638475620344,64.99420451064685,2.013081923781017,1.0209265770828038,A,344,Correct
2,relearn,75,639,B,59.175257773150555,34.33136973069433,2.9587628886575277,0.5392758946681214,107,538,Incorrect
2,relearn,75,640,A,44.61421692956781,61.36660227660103,2.2307108464783907,0.9639443344396824,A,478,Correct
2,relearn,75,641,B,34.397119937536154,13.365807948686992,1.7198559968768077,0.20994962030443556,107,595,Incorrect
2,relearn,75,642,B,89.29210805915594,63.73563679503818,4.464605402957797,1.0011570416357962,107,587,Incorrect
2,relearn,75,643,A,47.864513763332646,71.86361047240243,2.3932256881666323,1.12883095360269,100,454,Incorrect
2,relearn,75,644,B,69.28780475219801,55.09046881181071,3.4643902376099005,0.8653590605100107,107,472,Incorrect
2,relearn,75,645,A,64.27441914979254,74.45440665566746,3.213720957489627,1.1695270848841592,A,405,Correct
2,relearn,75,646,A,49.192863610623434,61.75494120720212,2.4596431805311716,0.9700443480970788,A,348,Correct
2,relearn,75,647,B,82.53666320310276,54.704427996939444,4.1268331601551385,0.8592951455700839,B,774,Correct
2,relearn,75,648,B,62.37262310355866,39.357853778691855,3.118631155177933,0.618231721460998,B,478,Correct
2,relearn,75,649,B,66.15251202921846,56.6717465216944,3.3076256014609227,0.8901977126932903,B,608,Correct
2,relearn,75,650,B,60.99086775542985,39.06426539949904,3.0495433877714926,0.6136200459847406,B,682,Correct
2,relearn,75,651,B,55.34543850459759,38.359295693719794,2.7672719252298794,0.6025464077413434,B,379,Correct
2,relearn,75,652,A,57.48844067147869,79.10869498574014,2.8744220335739343,1.2426364750113845,A,557,Correct
2,relearn,75,653,B,63.39247867674725,45.01764775209713,3.1696239338373626,0.707135557299407,100,1363,Correct
2,relearn,75,654,B,54.734321851463534,24.422735594801658,2.7367160925731766,0.38363143362597424,B,429,Correct
2,relearn,75,655,B,45.91265226215506,33.01739377308664,2.2956326131077534,0.5186360085910517,B,414,Correct
2,relearn,75,656,A,59.46609687719696,75.73261837926299,2.973304843859848,1.1896051876870597,A,599,Correct
2,relearn,75,657,A,51.11310802789764,61.379010081047916,2.5556554013948816,0.96413923577617,A,531,Correct
2,relearn,75,658,B,83.87342285217099,64.28841458155371,4.193671142608549,1.0098400548017203,B,1271,Correct
2,relearn,75,659,B,72.42547676020327,39.722305467258764,3.621273838010163,0.623956515197949,107,715,Incorrect
2,relearn,75,660,A,31.037637130475616,50.248066275714336,1.5518818565237809,0.7892947793443859,A,550,Correct
2,relearn,75,661,B,32.593897110419164,17.60883707339742,1.6296948555209583,0.27659896594022465,107,619,Incorrect
2,relearn,75,662,A,27.342199861371206,43.911967126962665,1.3671099930685602,0.6897675666537121,A,328,Correct
2,relearn,75,663,A,14.308780461559078,32.05060438059988,0.7154390230779539,0.5034497163260271,A,467,Correct
2,relearn,75,664,B,62.1734839464067,52.010148542952415,3.108674197320335,0.816973502873266,B,661,Correct
2,relearn,75,665,B,45.80305396985811,33.806430653562046,2.2901526984929057,0.5310301709266165,107,605,Incorrect
2,relearn,75,666,A,46.14830437988936,64.53172840699524,2.307415218994468,1.0136620194343402,A,545,Correct
2,relearn,75,667,B,61.790311686089574,34.51901071994627,3.0895155843044786,0.5422233524348526,B,327,Correct
2,relearn,75,668,B,70.63522393723171,44.717154537116855,3.531761196861586,0.702415420916229,B,533,Correct
2,relearn,75,669,A,41.51559533779791,71.50887680366993,2.075779766889896,1.1232588101643353,A,548,Correct
2,relearn,75,670,B,82.04443344674486,64.58429831851214,4.102221672337243,1.0144877856734469,107,532,Incorrect
2,relearn,75,671,B,70.87911160120055,48.58652229155214,3.543955580060027,0.7631953074730846,A,383,Incorrect
2,relearn,75,672,B,71.44252620064857,51.33282111824484,3.5721263100324285,0.8063340685655849,B,681,Correct
2,relearn,75,673,A,27.440021955638144,49.44191873998935,1.3720010977819073,0.7766318434646703,A,732,Correct
2,relearn,75,674,A,43.70557364424862,64.59240230945981,2.185278682212431,1.014615082865577,A,1317,Correct
2,relearn,75,675,A,36.40827651104594,65.12406981820813,1.8204138255522968,1.022966496563757,A,465,Correct
2,relearn,75,676,A,36.33278785000199,58.61712031072076,1.8166393925000994,0.920755572713747,A,541,Correct
2,relearn,75,677,B,76.3398935238508,61.47890800441577,3.8169946761925404,0.9657084286869766,B,735,Correct
2,relearn,75,678,A,58.089639520224736,70.86311189999752,2.904481976011237,1.1131151587777184,100,423,Incorrect
2,relearn,75,679,B,56.337570250093364,43.122542011915044,2.816878512504668,0.6773673059437475,107,504,Incorrect
2,relearn,75,680,A,59.97736474953756,85.0927793901092,2.998868237476878,1.3366342530275201,A,491,Correct
2,relearn,75,681,A,60.00311006886412,70.93933032393585,3.0001555034432057,1.1143123949812825,A,434,Correct
2,relearn,75,682,B,81.49345104149822,62.1483730341414,4.074672552074912,0.9762243607830832,B,598,Correct
2,relearn,75,683,A,49.728978529292036,79.01646436982674,2.4864489264646017,1.2411877198844365,B,865,Incorrect
2,relearn,75,684,B,35.46179672902905,11.3707694567555,1.7730898364514525,0.1786116289550314,107,406,Incorrect
2,relearn,75,685,B,44.576955302027606,17.26615642129901,2.2288477651013805,0.271216150844426,B,2522,Correct
2,relearn,75,686,B,46.55578421807947,28.17028827478513,2.327789210903973,0.4424978534678583,B,477,Correct
2,relearn,75,687,B,65.54502441238574,48.52543453989366,3.277251220619287,0.7622357433139116,B,344,Correct
2,relearn,75,688,B,57.358611401034814,50.17045653072578,2.867930570051741,0.7880756883208709,B,513,Correct
2,relearn,75,689,A,26.31596226149049,59.09060081659905,1.3157981130745244,0.9281929871081731,100,694,Incorrect
2,relearn,75,690,A,38.5247919262517,57.05016732977762,1.9262395963125851,0.8961419328464889,A,220,Correct
2,relearn,75,691,A,40.54469554972233,73.40762447499844,2.0272347774861164,1.153084268840667,A,455,Correct
2,relearn,75,692,A,23.197378959478364,54.156195890870364,1.1598689479739182,0.8506835357856405,A,1058,Correct
2,relearn,75,693,B,65.10098603653046,53.38421876702252,3.255049301826523,0.8385573474805414,B,1032,Correct
2,relearn,75,694,A,43.2524014099692,51.35151673287323,2.16262007049846,0.8066277385934394,44,941,Incorrect
2,relearn,75,695,A,13.10883604947345,38.02876769294545,0.6554418024736726,0.5973544860461514,A,1158,Correct
2,relearn,75,696,A,35.71580815907069,47.28441114163358,1.7857904079535345,0.7427417933593772,A,1623,Correct
2,relearn,75,697,B,67.92445510442678,38.67131060715606,3.396222755221339,0.6074475265406526,B,929,Correct
2,relearn,75,698,A,36.91027075905564,45.96196890286641,1.845513537952782,0.7219689192488382,A,635,Correct
2,relearn,75,699,A,60.54377237480278,74.24672600358262,3.027188618740139,1.1662648448297472,107,473,Correct
2,relearn,75,700,A,60.00933417326726,77.3725658611806,3.000466708663363,1.215365422494387,A,619,Correct
2,relearn,75,701,A,32.82079675173959,51.30779867417529,1.6410398375869795,0.805941016933266,A,430,Correct
2,relearn,75,702,A,39.5041602397632,51.81201137275959,1.97520801198816,0.8138611714818617,A,543,Correct
2,relearn,75,703,B,60.678711146785496,28.305531437273885,3.033935557339275,0.4446222480964729,107,685,Incorrect
2,relearn,75,704,B,74.11740882098275,64.20415705927712,3.705870441049137,1.0085165407367513,B,539,Correct
2,relearn,75,705,B,66.59482787960654,37.26231081958364,3.3297413939803273,0.5853150096329172,107,467,Correct
2,relearn,75,706,A,26.16069685270501,48.331829017762644,1.3080348426352504,0.7591945948838055,100,933,Correct
2,relearn,75,707,B,47.422133830465754,37.02630687791198,2.3711066915232877,0.5816078683860475,107,510,Incorrect
2,relearn,75,708,B,49.47351861025762,41.15653193980039,2.473675930512881,0.6464852919465529,100,648,Correct
2,relearn,75,709,A,27.630276460070576,41.34152886548646,1.3815138230035289,0.6493912168599132,A,482,Correct
2,relearn,75,710,A,64.71274847637592,76.55445371382199,3.2356374238187957,1.202514546934615,100,857,Incorrect
2,relearn,75,711,A,16.47333356788645,37.717712143507924,0.8236666783943224,0.5924684369012951,A,584,Correct
2,relearn,75,712,A,22.678952259172558,51.572344008359025,1.133947612958628,0.8100964853253315,A,610,Correct
2,relearn,75,713,B,37.52433875438932,13.481989770548822,1.8762169377194657,0.2117746000946446,107,724,Incorrect
2,relearn,75,714,A,51.42680438794311,72.34806867681633,2.5713402193971553,1.1364408052824801,100,835,Incorrect
2,relearn,75,715,B,63.861118990380234,44.513708772737736,3.193055949519012,0.699219702322342,B,962,Correct
2,relearn,75,716,A,34.20604488089251,51.70066993073363,1.7103022440446256,0.8121122242003176,A,914,Correct
2,relearn,75,717,B,62.135742320427326,53.1790959416098,3.106787116021366,0.8353352856735407,B,584,Correct
2,relearn,75,718,A,35.47742111379805,49.659829855161284,1.7738710556899024,0.7800547832574689,A,557,Correct
2,relearn,75,719,A,52.81625109044134,67.0989841149091,2.6408125545220673,1.0539883777936834,100,588,Incorrect
2,relearn,75,720,B,83.87665538454544,57.52445042434521,4.193832769227272,0.903591954274566,B,717,Correct
2,relearn,75,721,B,64.309758055964,53.71930392400926,3.2154879027981997,0.8438208528181241,B,437,Correct
2,relearn,75,722,A,40.859690250486416,47.730710979934,2.042984512524321,0.7497522548258917,A,583,Correct
2,relearn,75,723,B,80.03522141316002,57.98075074570366,4.0017610706580005,0.9107595029616178,B,626,Correct
2,relearn,75,724,A,26.55147343936467,52.452548883173016,1.3275736719682334,0.8239227111671793,A,544,Correct
2,relearn,75,725,B,65.31382028845591,44.070801514614374,3.2656910144227957,0.6922625313806322,B,663,Correct
2,relearn,75,726,A,27.39321017739934,36.99803809600986,1.369660508869967,0.5811638233982993,100,466,Incorrect
2,relearn,75,727,B,75.02450604356738,60.665983351504195,3.7512253021783692,0.9529390380994313,A,369,Incorrect
2,relearn,75,728,B,68.91401443205459,38.49751463577763,3.4457007216027296,0.6047175458061227,107,448,Incorrect
2,relearn,75,729,B,39.94207247735386,21.152232685774674,1.9971036238676931,0.33225849406325814,A,430,Incorrect
2,relearn,75,730,B,36.14201769500227,12.555972401137371,1.8071008847501133,0.1972287532704468,A,1452,Incorrect
2,relearn,75,731,B,54.27668077765628,45.681101741293325,2.713834038882814,0.717557068191675,B,598,Correct
2,relearn,75,732,A,14.793716555371667,44.36488453044273,0.7396858277685834,0.6968819765909916,A,533,Correct
2,relearn,75,733,B,88.21132684162035,67.1019251540364,4.410566342081017,1.0540345755282645,B,720,Correct
2,relearn,75,734,B,34.92658109881718,20.496434071117324,1.746329054940859,0.32195723351304856,107,524,Incorrect
2,relearn,75,735,B,70.04912469012436,44.16064374780343,3.502456234506218,0.6936737698794764,B,368,Correct
2,relearn,75,736,A,35.88662373070824,61.63212143354099,1.794331186535412,0.968115099603832,100,485,Incorrect
2,relearn,75,737,B,75.43359302996447,55.86811403153369,3.7716796514982236,0.8775742830569154,B,762,Correct
2,relearn,75,738,B,49.14024122443534,39.34977387347406,2.457012061221767,0.6181048026066284,107,1254,Incorrect
2,relearn,75,739,A,48.439876587837766,62.81540584932118,2.4219938293918886,0.9867020877424436,A,391,Correct
2,relearn,75,740,B,67.48241224200507,58.61579920138334,3.3741206121002536,0.9207348207768018,B,603,Correct
2,relearn,75,741,A,33.553391132512374,51.747159825266124,1.6776695566256188,0.8128424857559646,A,507,Correct
2,relearn,75,742,A,36.50134651160901,58.865692296726564,1.8250673255804504,0.9246601323393672,100,1154,Correct
2,relearn,75,743,B,48.597037321388456,35.22744794916786,2.4298518660694226,0.5533514584091128,100,1134,Correct
2,relearn,75,744,A,39.27162824037747,49.44126229289519,1.9635814120188735,0.7766215320178277,107,264,Correct
2,relearn,75,745,B,53.04442716133738,35.399597771060954,2.652221358066869,0.5560555814879935,107,393,Incorrect
2,relearn,75,746,A,58.086611146168366,71.8972393761648,2.9043305573084184,1.1293591951877309,107,339,Correct
2,relearn,75,747,A,25.331160081967997,37.334912810035846,1.2665580040984,0.5864554390321203,107,238,Correct
2,relearn,75,748,A,33.22370179543545,63.32845869205615,1.6611850897717728,0.9947611029506415,107,256,Correct
2,relearn,75,749,A,59.81712070782896,81.21877394286794,2.990856035391448,1.27578151776242,100,284,Incorrect
2,relearn,75,750,A,30.684220731369898,47.863815546847846,1.534211036568495,0.7518430564737705,107,230,Correct
2,relearn,75,751,B,71.2690156176212,54.922446039511016,3.5634507808810607,0.8627197649745482,107,349,Incorrect
2,relearn,75,752,B,45.24253565495416,35.7862745929999,2.2621267827477083,0.5621294868035777,100,270,Correct
2,relearn,75,753,B,70.7521464900994,56.6867968400412,3.53760732450497,0.8904341225410527,100,319,Correct
2,relearn,75,754,A,57.75542521574045,83.71893009038672,2.887771260787023,1.3150538786917818,100,302,Correct
2,relearn,75,755,A,31.754226815675395,61.91246271742284,1.5877113407837697,0.9725186901935376,100,312,Incorrect
2,relearn,75,756,B,69.79914026057531,59.75636371204101,3.4899570130287656,0.9386507662149387,100,72,Correct
2,relearn,75,757,B,49.444792526125156,28.172505857385246,2.4722396263062576,0.4425326871738845,100,260,Correct
2,relearn,75,758,A,52.53044236486153,75.57609773057257,2.6265221182430762,1.1871465670867551,100,464,Incorrect
2,relearn,75,759,B,53.53720811660058,37.61955322360223,2.676860405830029,0.5909265601929949,100,602,Correct
2,relearn,75,760,A,28.093356365407516,37.88350323501649,1.4046678182703758,0.595072677276865,107,131,Correct
2,relearn,75,761,B,48.73662581545551,31.275298864253188,2.4368312907727754,0.4912712457538151,A,253,Incorrect
2,relearn,75,762,A,26.77531567455656,48.11693828197768,1.338765783727828,0.7558190990994729,A,286,Correct
2,relearn,75,763,A,50.277697133751865,75.88124014983433,2.5138848566875933,1.1919397330000119,100,324,Incorrect
2,relearn,75,764,A,60.124562301973704,86.66274479984364,3.0062281150986854,1.361295212015579,107,560,Correct
2,relearn,75,765,B,49.522183439066765,24.964448663255748,2.4761091719533384,0.39214064260701903,100,1152,Correct
2,relearn,75,766,B,73.88431356470487,41.52411301208981,3.6942156782352438,0.6522592419280685,A,360,Incorrect
2,relearn,75,767,B,67.69207145747082,45.34504455278942,3.384603572873541,0.7122782942187256,B,1090,Correct
2,relearn,75,768,A,45.12571051493384,75.48971673764001,2.256285525746692,1.1857896976227214,A,794,Correct
2,relearn,75,769,B,82.8622614016905,68.3058184170585,4.143113070084525,1.072945286682347,B,728,Correct
2,relearn,75,770,A,23.627335602939542,47.627518386107454,1.1813667801469772,0.7481313093525399,A,742,Correct
2,relearn,75,771,B,32.16934717359359,19.134642391811667,1.6084673586796796,0.30056625983591684,A,560,Incorrect
2,relearn,75,772,A,67.62677335114336,85.22192125135719,3.3813386675571677,1.338662808640358,B,539,Incorrect
2,relearn,75,773,A,66.03607465283055,80.58004722054005,3.3018037326415275,1.2657484218698363,A,479,Correct
2,relearn,75,774,A,45.97972288910129,58.42433520830216,2.2989861444550646,0.9177273114063479,A,510,Correct
2,relearn,75,775,A,51.7052114337312,67.22365661662924,2.5852605716865598,1.0559467288712265,B,692,Incorrect
2,relearn,75,776,A,12.000992776900375,39.416039314780065,0.6000496388450187,0.6191456977245976,A,699,Correct
2,relearn,75,777,B,64.27329390057909,53.40311473330581,3.213664695028955,0.838854164624832,B,457,Correct
2,relearn,75,778,B,53.83921578132006,35.238879488927104,2.691960789066003,0.5535310246157471,B,442,Correct
2,relearn,75,779,A,50.28103948461653,57.49312273871469,2.5140519742308265,0.9030998601394119,B,484,Incorrect
2,relearn,75,780,A,40.761275944215726,66.52388026909321,2.0380637972107865,1.0449546677083512,A,717,Correct
2,relearn,75,781,A,34.512876967681024,60.267692772048164,1.7256438483840513,0.9466827043073659,A,590,Correct
2,relearn,75,782,A,13.514377405956601,38.01915387261009,0.67571887029783,0.5972034725094589,A,251,Correct
2,relearn,75,783,B,67.32253200646088,43.97386521352383,3.3661266003230437,0.690739859523771,107,402,Incorrect
2,relearn,75,784,B,57.21405330596589,32.92910162387358,2.8607026652982945,0.5172491187543649,B,329,Correct
2,relearn,75,785,B,39.34869963737523,18.732317373239713,1.9674349818687618,0.2942465532224117,B,457,Correct
2,relearn,75,786,B,56.931929077933326,49.89245917994774,2.8465964538966664,0.7837089161462624,B,997,Correct
2,relearn,75,787,B,33.028284660554476,12.294950666273973,1.6514142330277237,0.19312863344707623,107,633,Incorrect
2,relearn,75,788,B,66.14539484125653,45.25781170454578,3.3072697420628265,0.7109080438427559,B,615,Correct
2,relearn,75,789,A,35.3927938382674,61.145926849238414,1.7696396919133701,0.9604779729325316,A,514,Correct
2,relearn,75,790,B,32.64712891840219,15.191498603299973,1.6323564459201094,0.238627502045734,A,463,Incorrect
2,relearn,75,791,B,73.03041702519914,52.52382177481473,3.6515208512599573,0.8250422631310879,A,473,Incorrect
2,relearn,75,792,A,20.703054600262927,37.94842183357501,1.0351527300131464,0.5960924162384288,100,291,Incorrect
2,relearn,75,793,B,53.98478901334615,22.344810228445972,2.699239450667308,0.35099145829771966,B,763,Correct
2,relearn,75,794,B,42.31504997878943,14.691105048308287,2.1157524989394716,0.23076733846440617,107,442,Incorrect
2,relearn,75,795,A,44.39046330562257,60.0952954787822,2.2195231652811285,0.9439746939572504,100,327,Incorrect
2,relearn,75,796,A,49.650225956137206,67.49446219477991,2.48251129780686,1.060200532945573,B,416,Incorrect
2,relearn,75,797,A,53.94804069749908,78.04085212618418,2.6974020348749543,1.225862838597538,100,579,Incorrect
2,relearn,75,798,A,52.64970788364596,66.3775487540238,2.6324853941822983,1.0426560976446975,A,302,Correct
2,relearn,75,799,B,52.44467940003783,30.441908067533745,2.6222339700018917,0.4781803737310994,B,502,Correct
2,relearn,75,800,A,52.96948151125581,60.91883760262994,2.6484740755627905,0.9569108633882594,100,375,Incorrect
2,relearn,75,801,A,45.06368150738783,58.37764105541175,2.2531840753693912,0.9169938413679173,A,481,Correct
2,relearn,75,802,B,41.40695476477353,22.254202310542833,2.0703477382386763,0.3495681924515118,A,1175,Incorrect
2,relearn,75,803,B,33.86684248254319,11.293673597290596,1.6933421241271593,0.17740061002644575,A,894,Incorrect
2,relearn,75,804,A,31.734885851651747,42.22949454011325,1.5867442925825872,0.6633393490601502,A,525,Correct
2,relearn,75,805,A,52.785142139337864,70.83734929153256,2.639257106966893,1.1127104806702641,B,277,Incorrect
2,relearn,75,806,B,32.783864496118156,15.861535349248594,1.6391932248059078,0.24915241463927099,107,327,Incorrect
2,relearn,75,807,B,61.196457640797256,28.09808542060786,3.059822882039863,0.4413636936866006,B,505,Correct
2,relearn,75,808,B,37.21523165646928,14.291205334521202,1.860761582823464,0.22448572844937534,B,444,Correct
2,relearn,75,809,A,33.55550189081829,49.78917408995997,1.6777750945409144,0.7820865177466076,100,419,Incorrect
2,relearn,75,810,A,18.71943381760155,37.06961085582178,0.9359716908800776,0.5822880856804107,A,485,Correct
2,relearn,75,811,A,62.59675246345764,78.50990794359362,3.129837623172882,1.2332307501480233,100,528,Incorrect
2,relearn,75,812,A,39.41503564769007,48.260525952534906,1.9707517823845035,0.7580745689543159,A,975,Correct
2,relearn,75,813,B,53.61164548540285,36.62750171579123,2.680582274270143,0.5753434515483864,A,522,Incorrect
2,relearn,75,814,A,49.650150618735125,60.68922559357362,2.4825075309367564,0.9533041263841227,B,528,Incorrect
2,relearn,75,815,A,48.159320505778425,71.8298819111039,2.4079660252889212,1.1283011466007318,A,383,Correct
2,relearn,75,816,B,53.109613220535216,33.309156944138415,2.655480661026761,0.5232190137648735,100,858,Correct
2,relearn,75,817,B,66.18183056313804,48.6247548823904,3.3090915281569018,0.7637958636056104,100,388,Correct
2,relearn,75,818,B,52.360505839708836,34.675401443515746,2.6180252919854414,0.5446799321761298,100,277,Correct
2,relearn,75,819,B,63.96260128346082,52.74591646990132,3.198130064173041,0.8285309184435143,100,200,Correct
2,relearn,75,820,B,44.462706699983215,27.772192234696405,2.223135334999161,0.43624457549302864,100,217,Correct
2,relearn,75,821,A,35.71211147135156,44.74589447562024,1.7856055735675782,0.7028668668145633,107,230,Correct
2,relearn,75,822,B,83.68497512879897,59.598500817383865,4.184248756439948,0.9361710616642921,107,241,Incorrect
2,relearn,75,823,B,49.59265849659873,33.54706218071912,2.4796329248299367,0.5269560204823358,100,641,Correct
2,relearn,75,824,A,30.182445399138473,41.94477888643246,1.5091222699569238,0.6588670460303223,107,165,Correct
2,relearn,75,825,B,63.280121312427326,41.8085246539752,3.1640060656213667,0.6567267695517811,100,2124,Correct
2,relearn,75,826,B,67.94395817451128,43.581495856859625,3.3971979087255644,0.684576536081821,107,231,Incorrect
2,relearn,75,827,B,48.58239349958856,34.23146298776064,2.429119674979428,0.5377065632198986,107,180,Incorrect
2,relearn,75,828,B,43.74326190032784,29.373591427504294,2.187163095016392,0.46139929519097805,107,199,Incorrect
2,relearn,75,829,A,20.752840731822634,33.83895694740819,1.0376420365911316,0.5315410927555944,100,256,Incorrect
2,relearn,75,830,A,59.62221083226182,68.68510946299972,2.981110541613091,1.0789031764998536,100,341,Incorrect
2,relearn,75,831,B,62.28823474215943,53.86041409085198,3.1144117371079716,0.8460374061356237,107,154,Incorrect
2,relearn,75,832,B,60.371844820428734,34.5901365103495,3.018592241021437,0.5433405937379104,100,249,Correct
2,relearn,75,833,A,32.750333954878805,61.32960094569692,1.6375166977439404,0.9633631188929752,107,608,Correct
2,relearn,75,834,B,56.74029610639218,30.688987057721732,2.837014805319609,0.4820614814332541,107,368,Incorrect
2,relearn,75,835,B,62.32891270860943,43.54349366605381,3.1164456354304715,0.6839795990645418,107,205,Incorrect
2,relearn,75,836,A,30.852573301573116,45.13825974100387,1.5426286650786556,0.7090301259908285,100,350,Incorrect
2,relearn,75,837,B,63.60735687000501,35.357909988519125,3.180367843500251,0.5554007513311043,107,344,Incorrect
2,relearn,75,838,B,86.22425644194354,68.81181955424901,4.311212822097177,1.0808935339588759,B,253,Correct
2,relearn,75,839,A,38.73112331076419,53.807667798518196,1.9365561655382095,0.8452088693131241,100,263,Incorrect
2,relearn,75,840,A,38.71333364256782,61.07774100984907,1.935666682128391,0.9594069122720094,100,256,Incorrect
2,relearn,75,841,A,50.33016088303273,57.57374743805185,2.5165080441516365,0.9043663099550893,A,241,Correct
2,relearn,75,842,A,56.00732948338729,76.1944047706399,2.800366474169364,1.196858911360447,100,289,Incorrect
2,relearn,75,843,B,37.003319144069096,25.603967166950692,1.850165957203455,0.40218617577223287,100,372,Correct
2,relearn,75,844,A,51.553369629366834,60.09185244196536,2.5776684814683417,0.9439206108614011,A,317,Correct
2,relearn,75,845,B,70.04612665267966,38.44919891885,3.5023063326339834,0.6039586042993589,107,283,Incorrect
2,relearn,75,846,B,64.35683789353408,52.96783443919724,3.217841894676704,0.8320167977537125,107,516,Incorrect
2,relearn,75,847,A,47.30262868486552,74.51124954852473,2.365131434243276,1.1704199709572054,100,388,Incorrect
2,relearn,75,848,B,60.529022805795556,38.123773572207824,3.026451140289778,0.598846834907844,107,1434,Incorrect
2,relearn,75,849,B,34.627645080571575,20.154421188251405,1.7313822540285786,0.3165849077118254,B,275,Correct
2,relearn,75,850,B,77.62358236112689,50.621880348233965,3.881179118056344,0.7951666370645668,107,598,Incorrect
2,relearn,75,851,B,67.38649627671019,51.64155216739961,3.36932481383551,0.8111836045453834,B,316,Correct
2,relearn,75,852,A,40.30491253398847,50.97930468412188,2.0152456266994236,0.8007810454037652,100,921,Incorrect
2,relearn,75,853,B,43.064262631158314,29.533036210535677,2.1532131315579157,0.4639038479861011,B,907,Correct
2,relearn,75,854,B,54.579123640028996,30.16853819602882,2.72895618200145,0.47388628983093606,B,1023,Correct
2,relearn,75,855,A,16.281189041580596,33.01791961340856,0.8140594520790299,0.5186442684715133,A,763,Correct
2,relearn,75,856,A,44.224676884186835,64.01080824920449,2.2112338442093415,1.0054794247302288,100,562,Incorrect
2,relearn,75,857,A,51.80625873865402,69.96945215070255,2.590312936932701,1.0990775842617486,A,1310,Correct
2,relearn,75,858,B,77.70040772113977,54.80108111715757,3.885020386056988,0.860813369232203,107,878,Incorrect
2,relearn,75,859,B,49.38847776744864,29.644826083224473,2.469423888372432,0.46565983920002546,107,1414,Incorrect
2,relearn,75,860,B,89.84540850325749,67.021660813837,4.492270425162874,1.0527737862206863,B,1089,Correct
2,relearn,75,861,A,40.642899855436234,57.403168431240445,2.0321449927718116,0.9016868611818125,A,703,Correct
2,relearn,75,862,B,76.75125859491884,45.618154781413715,3.837562929745942,0.7165682996580571,B,1231,Correct
2,relearn,75,863,A,57.47296554894943,76.13274364220422,2.873648277447472,1.1958903406199193,B,559,Incorrect
2,relearn,75,864,B,35.56440417906038,13.498709036016528,1.778220208953019,0.2120372257024784,A,518,Incorrect
2,relearn,75,865,B,71.31723746653061,57.73011180575932,3.565861873326531,0.9068224756994544,B,246,Correct
2,relearn,75,866,A,52.40796895502051,63.74686776972761,2.6203984477510254,1.0013334573736812,B,415,Incorrect
2,relearn,75,867,A,13.127844619002268,37.20357013935915,0.6563922309501135,0.5843923131856165,A,299,Correct
2,relearn,75,868,B,36.722801638691266,22.490196771507453,1.8361400819345632,0.3532751847757835,100,260,Correct
2,relearn,75,869,B,46.80123015617439,31.21952237190965,2.3400615078087195,0.4903951106608677,100,286,Correct
2,relearn,75,870,B,75.82547650894396,44.97959559804464,3.791273825447198,0.7065378354612842,107,318,Incorrect
2,relearn,75,871,B,53.5972564882301,29.00594635686199,2.679862824411505,0.4556243399256863,107,172,Incorrect
2,relearn,75,872,B,44.3665985298531,18.765809783142984,2.218329926492655,0.2947726507669274,100,441,Correct
2,relearn,75,873,A,37.08292930693175,62.807193471839454,1.8541464653465878,0.9865730880186182,100,284,Incorrect
2,relearn,75,874,A,49.03271728741001,72.24523018978823,2.4516358643705005,1.1348254221057112,A,263,Correct
2,relearn,75,875,A,49.72978001210657,76.6105962058703,2.486489000605329,1.203396431137481,B,2128,Incorrect
2,relearn,75,876,B,83.24513495962373,65.17324019880016,4.1622567479811865,1.0237388630959678,100,260,Correct
2,relearn,75,877,A,43.7021140128415,66.6420669339765,2.1851057006420747,1.0468111394990993,100,822,Correct
2,relearn,75,878,B,68.42028970443876,38.41364881453673,3.4210144852219377,0.6034001845666342,100,327,Correct
2,relearn,75,879,B,68.21375415836879,37.23430137270282,3.4106877079184392,0.5848750382701575,A,344,Incorrect
2,relearn,75,880,A,13.320001671745022,32.25255947488692,0.666000083587251,0.5066220195288632,A,967,Correct
2,relearn,75,881,B,84.5083550950204,60.419335718928664,4.22541775475102,0.9490647061468085,B,879,Correct
2,relearn,75,882,A,22.727912729388045,37.88327829591599,1.1363956364694021,0.5950691439417367,A,567,Correct
2,relearn,75,883,B,65.35273833694696,40.13538469766759,3.267636916847348,0.6304451485759636,B,319,Correct
2,relearn,75,884,A,38.21560488361717,62.92672808612599,1.9107802441808586,0.9884507333490796,100,512,Incorrect
2,relearn,75,885,A,32.779702337044675,54.20262315766754,1.6389851168522338,0.8514128135871216,A,388,Correct
2,relearn,75,886,B,63.90112727633784,50.64751243583248,3.1950563638168923,0.7955692649550451,A,397,Incorrect
2,relearn,75,887,A,51.233852496106834,60.59958669277742,2.5616926248053415,0.9518960818230368,A,977,Correct
2,relearn,75,888,B,83.71537866056752,53.42146756712154,4.185768933028376,0.8391424502642719,B,1321,Correct
2,relearn,75,889,B,77.40364464147454,53.01693990378712,3.870182232073727,0.8327881445877459,B,629,Correct
2,relearn,75,890,B,55.74742676921685,25.238467963649022,2.7873713384608423,0.39644492771230555,B,1536,Correct
2,relearn,75,891,A,52.64001955319863,82.75093813444485,2.6320009776599314,1.2998486966041771,A,589,Correct
2,relearn,75,892,B,70.24282538089349,55.070200905527,3.5121412690446743,0.865040692982588,107,626,Incorrect
2,relearn,75,893,A,14.224479194618208,32.339868243548295,0.7112239597309105,0.5079934624599659,A,556,Correct
2,relearn,75,894,A,35.33601548535821,66.12412922218516,1.7668007742679106,1.0386753929471955,100,631,Incorrect
2,relearn,75,895,B,54.24699530118288,22.45697535242106,2.712349765059144,0.35275334394506525,B,394,Correct
2,relearn,75,896,B,58.95597739768049,28.18852011591124,2.9477988698840245,0.4427842385585742,B,612,Correct
2,relearn,75,897,A,43.24511543454293,53.874904962139816,2.1622557717271467,0.8462650282095336,100,359,Incorrect
2,relearn,75,898,A,37.330209404047956,47.68561975486962,1.8665104702023978,0.7490439635188736,B,697,Incorrect
