experiment,condition,subject,trial,cat,x,y,xt,yt,resp,rt,fb
2,relearn,51,0,A,30.29556001976008,40.759075833854965,1.514778000988004,0.6402420660337401,B,1539,Incorrect
2,relearn,51,1,B,82.45062330071147,59.67262301023666,4.122531165035573,0.9373353703469639,B,4894,Correct
2,relearn,51,2,A,48.286205336702324,75.38938732360046,2.414310266835116,1.1842137268722934,A,991,Correct
2,relearn,51,3,B,57.88327319236701,50.628876801650996,2.8941636596183504,0.7952765370978473,B,1409,Correct
2,relearn,51,4,B,72.46738141111851,47.42533400771663,3.6233690705559254,0.7449554045634238,A,717,Incorrect
2,relearn,51,5,A,66.04319404980833,85.1416074658813,3.3021597024904166,1.3374012426481927,A,871,Correct
2,relearn,51,6,A,62.97845034417698,88.63948772946219,3.148922517208849,1.3923458173442051,A,1466,Correct
2,relearn,51,7,B,45.87333316568408,24.891731261298787,2.293666658284204,0.3909984003281383,B,891,Correct
2,relearn,51,8,A,35.591849552322564,57.248963931541674,1.7795924776161283,0.8992646225647919,B,648,Incorrect
2,relearn,51,9,B,76.87940032261693,52.701707024926804,3.843970016130846,0.827836478105758,A,2054,Incorrect
2,relearn,51,10,A,35.62922293132615,54.4532260538313,1.7814611465663075,0.8553492746749037,B,2367,Incorrect
2,relearn,51,11,B,81.35523201154619,66.71501983567917,4.06776160057731,1.047957080999335,B,2353,Correct
2,relearn,51,12,A,19.456066490584508,47.646915461075295,0.9728033245292254,0.7484359978936402,A,1423,Correct
2,relearn,51,13,B,77.4749709018287,63.109199537113284,3.8737485450914346,0.9913169881986374,B,1047,Correct
2,relearn,51,14,A,24.974425464693528,54.990384222454345,1.2487212732346764,0.8637869354567133,B,863,Incorrect
2,relearn,51,15,B,72.88436621950763,46.66081931444112,3.6442183109753814,0.7329464358436447,A,2229,Incorrect
2,relearn,51,16,A,51.97282804681211,81.70920962386393,2.5986414023406055,1.2834852634247969,B,571,Incorrect
2,relearn,51,17,A,17.66118473470078,47.74641809700911,0.8830592367350389,0.749998981643953,A,1922,Correct
2,relearn,51,18,B,88.67124012700954,63.32340258423303,4.433562006350477,0.9946816817946771,B,720,Correct
2,relearn,51,19,B,51.92281721467255,20.183874869465484,2.596140860733627,0.31704756505444204,B,2480,Correct
2,relearn,51,20,A,48.73653581513088,75.25484847842993,2.4368267907565437,1.1821003956342426,A,1190,Correct
2,relearn,51,21,A,10.598953315995235,35.437274978281394,0.5299476657997617,0.5566474136750511,B,795,Incorrect
2,relearn,51,22,B,78.66081150810767,55.76486938608815,3.9330405754053834,0.8759525199586444,A,1342,Incorrect
2,relearn,51,23,A,61.38773738036154,73.88956323924478,3.0693868690180772,1.1606545452468493,B,933,Incorrect
2,relearn,51,24,A,53.412779658999185,74.94890577821093,2.670638982949959,1.1772946589371054,B,534,Incorrect
2,relearn,51,25,B,33.50031391372006,10.486101007811829,1.675015695686003,0.16471528945471087,A,839,Incorrect
2,relearn,51,26,B,49.4550341824396,37.87848312204649,2.47275170912198,0.5949938215267311,B,1217,Correct
2,relearn,51,27,B,82.59713850171912,54.8782320994009,4.129856925085956,0.8620252540273672,A,1149,Incorrect
2,relearn,51,28,B,38.48755890593455,25.712947495777556,1.9243779452967273,0.40389803477437425,B,724,Correct
2,relearn,51,29,A,13.191227683734343,33.68297865912602,0.6595613841867172,0.5290909915326605,A,1709,Correct
2,relearn,51,30,B,80.75813136664593,64.74963190647573,4.037906568332296,1.017084839600137,B,1800,Correct
2,relearn,51,31,A,53.841784713732636,66.73018131740555,2.6920892356866317,1.0481952369973806,B,1235,Incorrect
2,relearn,51,32,A,25.636950961615728,56.08540621141209,1.2818475480807865,0.8809875006368579,A,520,Correct
2,relearn,51,33,A,51.6913139718693,73.98402589351497,2.584565698593465,1.1621383611503182,B,528,Incorrect
2,relearn,51,34,B,64.36909381305829,35.072609746987276,3.218454690652914,0.5509192656167851,B,2632,Correct
2,relearn,51,35,A,63.76447442644713,87.6971263720558,3.1882237213223568,1.377543239756931,B,1053,Incorrect
2,relearn,51,36,A,51.200477994405496,60.07489137061901,2.5600238997202744,0.9436541869757076,B,1020,Incorrect
2,relearn,51,37,B,80.76440595862731,63.017028740622166,4.038220297931366,0.9898691727129773,A,2107,Incorrect
2,relearn,51,38,A,54.8817380299543,78.35497510486326,2.744086901497715,1.2307970708082476,B,944,Incorrect
2,relearn,51,39,B,55.49603061755576,38.10806515300264,2.7748015308777885,0.5986000876359715,A,1319,Incorrect
2,relearn,51,40,A,65.47827618805267,78.44387719006414,3.273913809402634,1.2321935414970275,B,2206,Incorrect
2,relearn,51,41,A,33.28984843273718,59.014506219463,1.664492421636859,0.9269976959714706,A,1815,Correct
2,relearn,51,42,B,36.55490193612594,26.155090289815583,1.8277450968062967,0.41084319754231186,A,907,Incorrect
2,relearn,51,43,A,41.508439437092846,67.89405515051287,2.0754219718546425,1.0664773244163575,B,682,Incorrect
2,relearn,51,44,B,57.43527987309938,42.145728539476025,2.8717639936549695,0.6620235557990378,B,739,Correct
2,relearn,51,45,A,29.043109922083026,57.82973700626983,1.4521554961041514,0.9083873846896354,A,684,Correct
2,relearn,51,46,A,48.227969179194204,69.10490280597566,2.41139845895971,1.085497274911449,A,4248,Correct
2,relearn,51,47,A,32.00558243618363,49.12139134473078,1.6002791218091814,0.7715970109135774,A,671,Correct
2,relearn,51,48,B,87.67289809628215,60.87295627946675,4.3836449048141075,0.9561901612493271,B,620,Correct
2,relearn,51,49,A,25.12916774982068,49.81320245573243,1.256458387491034,0.7824639544335502,A,596,Correct
2,relearn,51,50,B,76.12733094403838,65.22959962135133,3.8063665472019186,1.0246241548352044,B,875,Correct
2,relearn,51,51,B,55.164623038376206,36.22180175066903,2.7582311519188103,0.5689707313984387,B,1114,Correct
2,relearn,51,52,B,63.03924209288654,36.73541907574738,3.1519621046443267,0.5770386134745517,B,845,Correct
2,relearn,51,53,B,65.68499750350931,46.64461830810333,3.2842498751754654,0.7326919510311871,B,645,Correct
2,relearn,51,54,B,65.11146698762931,36.998762123200706,3.255573349381466,0.5811751963908182,B,578,Correct
2,relearn,51,55,B,47.72881230091052,35.87981022375699,2.386440615045526,0.5635987410557546,B,777,Correct
2,relearn,51,56,B,52.83013933317181,46.040965439704955,2.64150696665859,0.7232097939477933,B,588,Correct
2,relearn,51,57,B,51.951571690723895,44.57154748556006,2.5975785845361945,0.7001282306988205,B,552,Correct
2,relearn,51,58,B,33.575191670943155,19.824165941473336,1.6787595835471578,0.31139727042638804,A,545,Incorrect
2,relearn,51,59,A,45.77976583264269,71.48027700354082,2.2889882916321342,1.1228095655544363,B,687,Incorrect
2,relearn,51,60,A,25.0998424959465,49.564009183884444,1.254992124797325,0.7785496356727419,A,602,Correct
2,relearn,51,61,A,33.43662757923215,44.06847589422085,1.6718313789616075,0.6922260006209155,A,681,Correct
2,relearn,51,62,A,31.481693942000106,46.7783097860764,1.5740846971000053,0.7347919718564258,A,569,Correct
2,relearn,51,63,A,30.713022359545384,57.930990173416845,1.5356511179772694,0.9099778657199441,A,598,Correct
2,relearn,51,64,A,32.22710119748561,52.56231791019963,1.6113550598742805,0.825646959011672,A,497,Correct
2,relearn,51,65,B,63.17443224420105,48.95010444021585,3.1587216122100523,0.7689064425091762,B,1655,Correct
2,relearn,51,66,A,35.701353738662895,61.75518410214663,1.7850676869331448,0.9700481634819452,A,751,Correct
2,relearn,51,67,A,41.86020864202325,49.06218990783256,2.0930104321011624,0.7706670769173705,A,778,Correct
2,relearn,51,68,A,27.049627610173367,59.64502583370454,1.3524813805086682,0.936901874911698,A,503,Correct
2,relearn,51,69,B,42.75028015810985,14.09246175723299,2.1375140079054926,0.2213638716375913,A,1338,Incorrect
2,relearn,51,70,A,44.33736572410831,54.86900687865391,2.2168682862054157,0.8618803445987347,A,2395,Correct
2,relearn,51,71,A,13.286191438039097,32.429938449739936,0.6643095719019548,0.5094082819503607,A,628,Correct
2,relearn,51,72,B,47.755853621840025,28.031880823727306,2.387792681092001,0.44032375431063153,A,998,Incorrect
2,relearn,51,73,B,59.891886771690764,29.391855771123197,2.9945943385845384,0.46168619082965695,B,682,Correct
2,relearn,51,74,A,35.275719882465246,56.670063908679666,1.7637859941232623,0.8901712822698606,A,1003,Correct
2,relearn,51,75,A,58.66684565200834,78.97752362064631,2.933342282600417,1.2405760400266839,B,1276,Incorrect
2,relearn,51,76,B,40.29806927928032,15.735995134371734,2.014903463964016,0.24718043355533487,B,740,Correct
2,relearn,51,77,B,41.29825300796735,14.249915586900372,2.0649126503983672,0.2238371506104045,B,597,Correct
2,relearn,51,78,B,42.409059801106096,14.88452905305289,2.1204529900553046,0.23380563562607398,A,697,Incorrect
2,relearn,51,79,B,70.26740746151708,45.51787610511438,3.5133703730758543,0.7149931258941886,B,1287,Correct
2,relearn,51,80,A,33.69034326009073,46.32606969808205,1.6845171630045366,0.7276882011659164,A,649,Correct
2,relearn,51,81,B,62.658313848401214,46.875891163470435,3.1329156924200605,0.7363247765481671,B,1137,Correct
2,relearn,51,82,B,41.761702236370255,20.420087785309807,2.0880851118185126,0.3207579888599398,B,1448,Correct
2,relearn,51,83,B,53.9826652251142,34.693880558661824,2.6991332612557097,0.5449702014380686,B,803,Correct
2,relearn,51,84,A,67.57158435236332,83.47870604018247,3.3785792176181655,1.3112804481350955,B,607,Incorrect
2,relearn,51,85,A,44.55772435879862,73.4012429478467,2.2278862179399312,1.152984028046574,A,959,Correct
2,relearn,51,86,B,51.50707197001077,36.2292856172065,2.5753535985005387,0.5690882876991115,A,925,Incorrect
2,relearn,51,87,B,64.14469267253153,47.440052234881996,3.2072346336265762,0.7451865979351067,B,636,Correct
2,relearn,51,88,A,60.26107542097992,87.49625463756952,3.013053771048996,1.3743879539300512,B,1561,Incorrect
2,relearn,51,89,B,44.33934701286907,22.09903580832999,2.2169673506434533,0.34713084273433636,A,612,Incorrect
2,relearn,51,90,B,83.49514876017574,65.96749252483406,4.174757438008787,1.0362149494587913,B,559,Correct
2,relearn,51,91,B,69.14705678272199,58.72853901171048,3.457352839136099,0.922505733576256,B,764,Correct
2,relearn,51,92,B,64.36593027645947,47.403707130803554,3.2182965138229735,0.7446156903752725,B,653,Correct
2,relearn,51,93,A,28.720340152537883,44.530936955054,1.436017007626894,0.6994903219773394,A,613,Correct
2,relearn,51,94,B,85.44755138943191,63.282718128146335,4.272377569471596,0.9940426118528906,B,643,Correct
2,relearn,51,95,A,53.412267614000385,71.93497261933773,2.670613380700019,1.1299519075854716,B,2076,Incorrect
2,relearn,51,96,A,61.34406591001868,81.81772311525634,3.0672032955009336,1.2851897893616657,A,651,Correct
2,relearn,51,97,A,50.072920709231155,60.93783316474173,2.5036460354615575,0.9572092449801654,A,601,Correct
2,relearn,51,98,A,44.07634752566555,57.51803714436345,2.2038173762832773,0.9034912147081853,A,645,Correct
2,relearn,51,99,A,52.47007978940007,72.88721386828118,2.623503989470003,1.1449096781461012,A,723,Correct
2,relearn,51,100,B,43.416828436742676,20.954847152529165,2.1708414218371335,0.3291579693574131,A,737,Incorrect
2,relearn,51,101,A,25.167064973226125,45.4828981820089,1.2583532486613063,0.7144436939628586,A,669,Correct
2,relearn,51,102,B,42.99438929913884,19.502085648359326,2.149719464956942,0.306338045012823,B,748,Correct
2,relearn,51,103,A,56.5260168900974,79.14239958492828,2.82630084450487,1.243165905617393,A,542,Correct
2,relearn,51,104,A,44.543842418073446,75.46121814954145,2.227192120903672,1.1853420428476809,A,819,Correct
2,relearn,51,105,B,67.1024513147836,57.028888517281885,3.3551225657391797,0.8958076860414205,B,539,Correct
2,relearn,51,106,B,56.816613891362344,33.56384757026621,2.840830694568117,0.5272196847647799,B,924,Correct
2,relearn,51,107,A,23.412949598297914,42.07934275740315,1.1706474799148956,0.660980770372723,A,574,Correct
2,relearn,51,108,B,82.64928411403625,53.0648457055114,4.132464205701813,0.8335406471615525,B,711,Correct
2,relearn,51,109,B,53.01173286618387,35.459841091567284,2.650586643309193,0.5570018813536463,B,622,Correct
2,relearn,51,110,A,15.554233811031793,42.01385432121182,0.7777116905515896,0.659952080422554,A,588,Correct
2,relearn,51,111,A,40.31806107931329,53.71829101415966,2.015903053965664,0.843804942067413,B,2861,Incorrect
2,relearn,51,112,B,62.41073105258285,41.686312521402186,3.120536552629142,0.6548070658624265,B,559,Correct
2,relearn,51,113,B,42.04309122454193,25.9588280482615,2.102154561227097,0.407760317461095,A,665,Incorrect
2,relearn,51,114,B,64.9209521902834,43.367951565216075,3.24604760951417,0.681222190192604,B,555,Correct
2,relearn,51,115,A,47.64612368827616,61.313777661119666,2.382306184413808,0.9631145673200576,B,844,Incorrect
2,relearn,51,116,A,55.55386748145742,80.1467363381465,2.7776933740728706,1.2589419904455958,A,792,Correct
2,relearn,51,117,A,43.016973850710116,59.850625193454505,2.1508486925355057,0.9401314221025642,A,756,Correct
2,relearn,51,118,B,69.46215232708155,43.85153864984184,3.4731076163540773,0.68881835835476,B,1584,Correct
2,relearn,51,119,B,32.91806429139171,15.38223312929911,1.6459032145695855,0.24162355297405808,A,800,Incorrect
2,relearn,51,120,B,36.350459208393175,20.102521094420396,1.8175229604196588,0.31576966294432485,B,544,Correct
2,relearn,51,121,B,78.98604571398862,60.94861714784008,3.949302285699431,0.9573786393905566,B,933,Correct
2,relearn,51,122,B,65.46709402093134,49.54862814756779,3.273354701046567,0.778308030919257,B,784,Correct
2,relearn,51,123,B,42.68766063746203,34.79162405720034,2.1343830318731016,0.5465055527227924,A,808,Incorrect
2,relearn,51,124,B,63.48315945532562,39.58605579511575,3.174157972766281,0.6218163103526564,B,707,Correct
2,relearn,51,125,A,34.749431528014604,56.324606849573016,1.7374715764007302,0.8847448554747596,B,629,Incorrect
2,relearn,51,126,B,40.8772394297781,25.557454187183602,2.043861971488905,0.4014555515945685,A,684,Incorrect
2,relearn,51,127,B,56.12968127616619,37.56890732292182,2.806484063808309,0.5901310162454348,B,616,Correct
2,relearn,51,128,B,59.225921833323994,37.2752083147231,2.9612960916661994,0.5855176030128163,A,576,Incorrect
2,relearn,51,129,B,32.904654559262404,14.203036720687699,1.6452327279631203,0.22310077910189274,A,659,Incorrect
2,relearn,51,130,B,58.100487495078845,29.348420954596165,2.905024374753942,0.4610039183271002,B,494,Correct
2,relearn,51,131,A,50.297754352980405,76.50236102915906,2.51488771764902,1.201696276957401,B,636,Incorrect
2,relearn,51,132,B,42.191697065827206,26.761226911411153,2.1095848532913606,0.42036436932969373,B,305,Correct
2,relearn,51,133,A,17.777387552819203,35.416803691681494,0.8888693776409602,0.5563258514570922,A,365,Correct
2,relearn,51,134,B,34.9261859295478,17.118613110730582,1.7463092964773899,0.2688985459415856,B,843,Correct
2,relearn,51,135,A,23.068598172818334,45.22311263091142,1.1534299086409165,0.7103629920686756,A,643,Correct
2,relearn,51,136,B,34.02887570373171,14.520168523480478,1.7014437851865853,0.2280822738112601,B,445,Correct
2,relearn,51,137,B,69.01581182672304,35.86428483678491,3.450790591336152,0.5633548688474765,B,1050,Correct
2,relearn,51,138,B,51.633478230149315,37.75430661551693,2.581673911507466,0.5930432615234226,B,636,Correct
2,relearn,51,139,A,60.00135303084064,80.1971183237307,3.000067651542032,1.2597333888245186,B,834,Incorrect
2,relearn,51,140,A,23.52066688216752,51.06320772884193,1.1760333441083761,0.8020989913482968,A,609,Correct
2,relearn,51,141,B,70.21198663857321,50.48713153898227,3.51059933192866,0.7930500077184411,B,740,Correct
2,relearn,51,142,A,57.20101976684465,73.29069037103523,2.8600509883422323,1.1512474722308423,B,602,Incorrect
2,relearn,51,143,B,67.7777352334381,36.2598664055873,3.3888867616719045,0.5695686495997021,B,329,Correct
2,relearn,51,144,B,67.04939086676538,50.56843217254089,3.352469543338269,0.7943270750840409,A,485,Incorrect
2,relearn,51,145,B,60.67020881113028,37.595999804792,3.033510440556514,0.5905565839554892,B,784,Correct
2,relearn,51,146,A,52.61600937523355,68.06175156807139,2.6308004687616777,1.069111493583533,A,1058,Correct
2,relearn,51,147,A,14.711055560378238,39.197732511066306,0.735552778018912,0.6157165424707185,B,322,Incorrect
2,relearn,51,148,B,70.41541881532669,38.27839912671767,3.5207709407663343,0.601275687438371,B,549,Correct
2,relearn,51,149,A,22.964061940321475,50.66131062471848,1.1482030970160737,0.7957860063992305,A,516,Correct
2,relearn,51,150,A,14.370421005782177,41.278719671174514,0.7185210502891088,0.6484046123427717,A,474,Correct
2,relearn,51,151,B,73.63465159907875,51.87011525122133,3.681732579953938,0.814773865070464,B,551,Correct
2,relearn,51,152,A,23.018909906555773,38.637008152009116,1.1509454953277887,0.606908704835204,A,2983,Correct
2,relearn,51,153,B,68.9054099112539,43.5859056509525,3.445270495562695,0.6846458049654511,B,431,Correct
2,relearn,51,154,A,37.2351609290819,50.53231683628854,1.861758046454095,0.7937597767087793,A,664,Correct
2,relearn,51,155,B,57.60366255922453,45.681629025037104,2.880183127961226,0.717565350745354,B,819,Correct
2,relearn,51,156,A,31.883415571915343,45.1433535926143,1.5941707785957673,0.7091101400248173,A,659,Correct
2,relearn,51,157,B,43.53893634359472,18.974068831597847,2.176946817179736,0.29804397625027435,B,858,Correct
2,relearn,51,158,B,66.49818938126583,46.367309513637075,3.3249094690632917,0.7283359946738317,B,1295,Correct
2,relearn,51,159,A,44.24611559310051,62.35133634419799,2.2123057796550256,0.9794125010021933,B,655,Incorrect
2,relearn,51,160,A,24.527528247309,40.245594374799836,1.22637641236545,0.6321763181361293,A,631,Correct
2,relearn,51,161,B,38.45575911123446,24.57808977516341,1.9227879555617227,0.3860717313846189,A,809,Incorrect
2,relearn,51,162,B,52.20367573452819,30.50709455601247,2.6101837867264095,0.4792043206976897,B,804,Correct
2,relearn,51,163,A,50.02205953381918,81.1506183431242,2.501102976690959,1.2747109321051404,A,688,Correct
2,relearn,51,164,B,84.74014900863963,69.03745276419488,4.237007450431982,1.084437772132735,A,710,Incorrect
2,relearn,51,165,B,46.10214592919424,31.193743072811884,2.3051072964597124,0.48999017037756654,A,732,Incorrect
2,relearn,51,166,B,58.16727023830877,42.38381968003894,2.908363511915438,0.6657634826894241,B,724,Correct
2,relearn,51,167,B,59.10214618552968,45.65279385925989,2.955107309276484,0.7171124090205004,B,559,Correct
2,relearn,51,168,A,52.71045146663828,74.9995551096438,2.635522573331914,1.1780902567747988,B,721,Incorrect
2,relearn,51,169,B,88.01885949271784,69.30956928384609,4.400942974635893,1.0887121684280183,B,608,Correct
2,relearn,51,170,B,37.26766237613208,21.264549962515016,1.863383118806604,0.3340227697206514,107,780,Incorrect
2,relearn,51,171,A,32.6050622506404,49.48845240270381,1.63025311253202,0.7773627925293121,B,441,Incorrect
2,relearn,51,172,B,69.65456720952274,41.97917287290891,3.4827283604761368,0.6594073055065328,A,587,Incorrect
2,relearn,51,173,A,46.892028918745694,76.14046969854526,2.344601445937285,1.19601170122913,B,516,Incorrect
2,relearn,51,174,A,63.872588785431844,74.85129035111895,3.193629439271592,1.1757613193939593,B,381,Incorrect
2,relearn,51,175,A,63.03799460759102,76.51934267508777,3.151899730379551,1.2019630240278785,B,616,Incorrect
2,relearn,51,176,B,64.10577473850826,53.47166469788006,3.205288736925413,0.8399309449503833,B,1190,Correct
2,relearn,51,177,B,51.66866093766231,38.413376594636425,2.5834330468831155,0.6033959085464395,A,1628,Incorrect
2,relearn,51,178,B,72.717106969572,55.08461267759485,3.6358553484786,0.8652670725688559,B,518,Correct
2,relearn,51,179,A,44.908341399848865,62.24734401024877,2.245417069992443,0.9777789932403707,B,603,Incorrect
2,relearn,51,180,A,45.559323183711314,68.96828078192345,2.2779661591855658,1.083351221176044,A,1619,Correct
2,relearn,51,181,B,33.893441792535505,19.80378851151051,1.694672089626775,0.3110771825050368,A,455,Incorrect
2,relearn,51,182,B,74.67792296644483,47.96898044566988,3.7338961483222413,0.7534949828415446,B,561,Correct
2,relearn,51,183,B,47.247313428627656,34.853191810494636,2.3623656714313825,0.5474726567300294,A,736,Incorrect
2,relearn,51,184,A,43.18650714387651,59.96819234686476,2.1593253571938256,0.94197816262985,B,1526,Incorrect
2,relearn,51,185,B,79.86390203394991,55.11657007638074,3.9931951016974954,0.8657690582151237,B,714,Correct
2,relearn,51,186,B,71.50970029891215,50.72143830497217,3.5754850149456074,0.7967304897920425,B,631,Correct
2,relearn,51,187,A,67.2908922362112,87.12590704032343,3.3645446118105604,1.3685705474761365,B,567,Incorrect
2,relearn,51,188,B,85.3855288187382,61.3281489426669,4.26927644093691,0.9633403108827149,B,505,Correct
2,relearn,51,189,B,75.81980301688195,43.69049332867891,3.7909901508440975,0.6862886643654577,B,373,Correct
2,relearn,51,190,A,55.73621796531766,72.87153171526674,2.7868108982658826,1.1446633434625881,A,401,Correct
2,relearn,51,191,A,19.38857733229218,43.30154634937581,0.969428866614609,0.6801790995013849,A,742,Correct
2,relearn,51,192,B,55.147964155640146,27.580398608111484,2.7573982077820074,0.43323188825160597,B,819,Correct
2,relearn,51,193,B,68.74792951305744,43.887572733415986,3.4373964756528723,0.689384380415937,B,690,Correct
2,relearn,51,194,B,57.59919955372671,47.00288621086747,2.879959977686336,0.7383196100878912,B,1051,Correct
2,relearn,51,195,A,47.7627575085574,76.90742687022524,2.38813787542787,1.2080590363099692,A,306,Correct
2,relearn,51,196,B,45.03004460196237,23.152469173529145,2.2515022300981187,0.36367813534011656,B,517,Correct
2,relearn,51,197,A,24.876222779122926,39.71779996671307,1.2438111389561464,0.6238857429608735,B,250,Incorrect
2,relearn,51,198,B,59.90314147828017,31.013707919507283,2.9951570739140085,0.4871621848025184,B,454,Correct
2,relearn,51,199,A,30.98157836380245,59.05993910394531,1.5490789181901223,0.9277113540520757,B,370,Incorrect
2,relearn,51,200,B,76.12226230268045,48.290893528417016,3.8061131151340226,0.7585515817208089,B,526,Correct
2,relearn,51,201,A,47.82144171663306,55.29667198571585,2.3910720858316528,0.8685980923914471,B,306,Incorrect
2,relearn,51,202,B,63.4617317333553,43.34206443892563,3.173086586667765,0.6808155561637209,B,390,Correct
2,relearn,51,203,A,52.808426915919334,74.38900020389814,2.640421345795967,1.1684996827422802,A,522,Correct
2,relearn,51,204,B,61.35915313594842,36.70111306983332,3.0679576567974207,0.5764997359937836,B,544,Correct
2,relearn,51,205,A,47.60326626589434,61.0041286328156,2.3801633132947173,0.9582506117575011,A,608,Correct
2,relearn,51,206,A,20.61544999095152,40.21433651128952,1.030772499547576,0.6316853207642747,A,701,Correct
2,relearn,51,207,A,29.863237598299847,53.23253685282386,1.4931618799149924,0.8361747335438969,B,447,Incorrect
2,relearn,51,208,A,45.3823076034967,60.03646416669887,2.269115380174835,0.9430505738680401,B,3398,Incorrect
2,relearn,51,209,B,81.55762373358604,57.489302775667014,4.077881186679303,0.9030398563001739,B,1795,Correct
2,relearn,51,210,A,32.884640820705485,62.29994762428388,1.6442320410352744,0.9786052888773955,A,713,Correct
2,relearn,51,211,A,42.86563215155381,50.90418254038367,2.143281607577691,0.7996010295293158,A,940,Correct
2,relearn,51,212,B,44.1408328933199,19.08115591477521,2.207041644665995,0.29972609621929613,A,993,Incorrect
2,relearn,51,213,B,61.17943533376666,47.28628195869838,3.058971766688333,0.742771180085112,B,457,Correct
2,relearn,51,214,A,65.56758382251603,78.49205574153056,3.2783791911258016,1.2329503284137646,A,921,Correct
2,relearn,51,215,B,46.542016737298496,36.38828083790039,2.3271008368649246,0.5715857787855505,100,2444,Correct
2,relearn,51,216,B,63.60590988416953,31.893962433022857,3.180295494208476,0.5009891903672673,107,799,Incorrect
2,relearn,51,217,B,44.12415946800789,17.86470931667325,2.2062079734003945,0.2806181977388891,107,333,Incorrect
2,relearn,51,218,B,38.58451445968167,21.9649156124766,1.9292257229840835,0.3450240876243812,A,525,Incorrect
2,relearn,51,219,A,45.053947603686375,67.99675264310422,2.2526973801843186,1.0680904928576926,B,624,Incorrect
2,relearn,51,220,B,40.942343162244725,25.63750680144018,2.0471171581122363,0.4027130151188141,B,355,Correct
2,relearn,51,221,B,84.99341537170694,67.80304889010154,4.249670768585347,1.0650478014206626,B,885,Correct
2,relearn,51,222,A,29.585158670622672,56.44347219227686,1.4792579335311336,0.8866119879117839,A,663,Correct
2,relearn,51,223,A,63.24343669311679,75.92124336952986,3.1621718346558394,1.192568102105589,B,373,Incorrect
2,relearn,51,224,B,49.217647143387275,25.1732320202716,2.4608823571693637,0.395420203909983,B,2601,Correct
2,relearn,51,225,B,39.37685355735374,22.987282720566917,1.968842677867687,0.36108339260462313,A,1075,Incorrect
2,relearn,51,226,A,43.61998099809504,67.966896839646,2.180999049904752,1.067621518993636,B,1251,Incorrect
2,relearn,51,227,B,68.4744667123959,39.985662536146,3.423723335619795,0.6280933183623845,A,2483,Incorrect
2,relearn,51,228,B,55.38406951614964,31.785233734658696,2.7692034758074815,0.4992812839671912,B,489,Correct
2,relearn,51,229,A,17.488831844131976,44.00798320983671,0.8744415922065989,0.6912757837566299,A,626,Correct
2,relearn,51,230,A,19.77200390121369,43.78777790487021,0.9886001950606845,0.6878168069148085,A,416,Correct
2,relearn,51,231,B,44.34925475865358,29.15943553005309,2.2174627379326792,0.4580353422202,B,660,Correct
2,relearn,51,232,A,57.62055441701639,80.81933590206785,2.8810277208508195,1.2695071596897107,B,695,Incorrect
2,relearn,51,233,B,74.10001846641762,47.54016609772149,3.705000923320881,0.7467591828152019,B,1167,Correct
2,relearn,51,234,B,66.71671871267826,40.1795847099733,3.335835935633913,0.6311394407457045,B,692,Correct
2,relearn,51,235,B,36.031667516107085,18.02637152833836,1.8015833758053543,0.28315758182154,A,527,Incorrect
2,relearn,51,236,B,46.963708067474485,37.42867096596835,2.3481854033737246,0.5879281887015788,B,405,Correct
2,relearn,51,237,B,54.09368568879125,29.675471526403186,2.704684284439562,0.4661412166958067,B,737,Correct
2,relearn,51,238,B,82.89200864485906,53.277213388794536,4.144600432242953,0.8368765109298634,B,577,Correct
2,relearn,51,239,B,78.39434875690819,57.67462054370556,3.919717437845409,0.9059508209934217,B,538,Correct
2,relearn,51,240,B,48.037028946679584,39.69031284889943,2.4018514473339794,0.6234539763239151,B,452,Correct
2,relearn,51,241,A,18.369790177240947,35.84100657914696,0.9184895088620473,0.5629892148315577,A,648,Correct
2,relearn,51,242,B,68.07425201816515,44.999567899405925,3.403712600908258,0.7068515596374437,B,545,Correct
2,relearn,51,243,B,64.41071310318168,40.4412918734998,3.2205356551590842,0.6352503272573379,B,651,Correct
2,relearn,51,244,A,58.579628201152836,66.66923943349798,2.9289814100576415,1.047237964123481,B,664,Incorrect
2,relearn,51,245,A,63.07323806028741,74.22128804952709,3.1536619030143704,1.1658652663818312,B,581,Incorrect
2,relearn,51,246,A,30.490604568257268,56.083676341076746,1.5245302284128632,0.8809603278971719,A,578,Correct
2,relearn,51,247,B,48.368440417938125,17.63868953056914,2.4184220208969065,0.27706788724093595,A,5202,Incorrect
2,relearn,51,248,A,30.053252131534105,51.70236678292058,1.5026626065767053,0.8121388782921412,A,645,Correct
2,relearn,51,249,B,59.44633653399421,36.49703040069569,2.9723168266997106,0.5732940129233447,B,727,Correct
2,relearn,51,250,B,50.95601048906744,36.17130831927415,2.547800524453372,0.5681775824328152,B,681,Correct
2,relearn,51,251,B,74.50252128608145,60.197489716940964,3.7251260643040722,0.9455799572964442,B,533,Correct
2,relearn,51,252,A,64.95585617866017,79.73974417644544,3.247792808933008,1.2525489725192525,A,2920,Correct
2,relearn,51,253,A,19.74320828807638,48.39055762066539,0.987160414403819,0.7601171016209798,A,1741,Correct
2,relearn,51,254,A,51.72512716526786,60.156421979282335,2.586256358263393,0.9449348667818048,B,528,Incorrect
2,relearn,51,255,B,51.672143335140596,33.87471131766968,2.5836071667570297,0.5321027210903304,B,672,Correct
2,relearn,51,256,B,43.969027623762884,26.53526971649724,2.198451381188144,0.41681504201185715,B,657,Correct
2,relearn,51,257,A,16.31565513232218,34.942998435035406,0.815782756616109,0.5488833358895343,A,712,Correct
2,relearn,51,258,B,82.30032974617596,65.1674996905852,4.115016487308798,1.023648691403788,B,837,Correct
2,relearn,51,259,A,62.64923189848276,88.10541581900236,3.132461594924138,1.3839566353922588,B,560,Incorrect
2,relearn,51,260,B,88.00644038695124,65.93761004000388,4.400322019347562,1.0357455564847238,B,2370,Correct
2,relearn,51,261,A,64.27879692306789,79.79180396830611,3.2139398461533943,1.2533667258175372,B,1181,Incorrect
2,relearn,51,262,B,50.81161000695376,41.2825589831673,2.5405805003476876,0.6484649201145285,B,684,Correct
2,relearn,51,263,A,30.0180067456951,40.8107231170691,1.5009003372847551,0.6410533396613571,A,625,Correct
2,relearn,51,264,B,78.71429489938215,59.36046816502599,3.9357147449691077,0.9324320535044822,B,695,Correct
2,relearn,51,265,B,34.078911376027634,20.052260913418475,1.7039455688013816,0.3149801778673062,A,565,Incorrect
2,relearn,51,266,B,77.16715708615705,55.818957239877875,3.8583578543078523,0.8768021299792156,B,3857,Correct
2,relearn,51,267,A,29.86463706302384,49.168184441615466,1.493231853151192,0.7723320351606356,A,909,Correct
2,relearn,51,268,B,55.47547150175403,44.774844945902075,2.7737735750877017,0.7033216197383402,B,1241,Correct
2,relearn,51,269,B,80.8245576797209,59.453702500063635,4.0412278839860445,0.9338965750145651,B,555,Correct
2,relearn,51,270,A,50.60295086489898,75.33377941067417,2.530147543244949,1.18334023981864,A,619,Correct
2,relearn,51,271,A,67.2236300580596,85.61179008460107,3.36118150290298,1.344786853952271,A,1137,Correct
2,relearn,51,272,B,58.759233587906095,47.98547724610452,2.937961679395305,0.7537541139768106,A,849,Incorrect
2,relearn,51,273,A,43.350869101279095,52.12059863169557,2.1675434550639547,0.8187084488101852,A,798,Correct
2,relearn,51,274,B,53.121844449910455,41.83357111327985,2.6560922224955226,0.6571201984145308,B,689,Correct
2,relearn,51,275,B,58.623599663015064,38.097145350921174,2.9311799831507535,0.5984285597859824,B,784,Correct
2,relearn,51,276,B,42.94810368452236,20.059376284110016,2.147405184226118,0.31509194584876676,A,692,Incorrect
2,relearn,51,277,A,19.765168588479312,32.925513953762454,0.9882584294239656,0.5171927637640417,A,710,Correct
2,relearn,51,278,A,39.696811990232,60.93213113053245,1.9848405995115999,0.9571196776362533,A,555,Correct
2,relearn,51,279,B,43.29165225381616,26.699220252142304,2.164582612690808,0.41939037100353044,A,712,Incorrect
2,relearn,51,280,A,36.5413119914751,52.820118031992884,1.8270655995737548,0.8296964738552729,A,1708,Correct
2,relearn,51,281,A,25.33655946657476,39.220085762541984,1.266827973328738,0.6160676665238176,A,2481,Correct
2,relearn,51,282,A,29.215056851754177,62.33969562837853,1.460752842587709,0.9792296490656885,A,2126,Correct
2,relearn,51,283,B,66.78703916105778,52.870249486560915,3.339351958052889,0.8304839369021966,B,1524,Correct
2,relearn,51,284,A,52.30134998630749,67.79711003048953,2.6150674993153746,1.064954514032024,A,2263,Correct
2,relearn,51,285,B,51.184879215893034,42.37079390531413,2.5592439607946518,0.6655588742985102,B,1195,Correct
2,relearn,51,286,B,56.43866679256923,40.98362734015892,2.821933339628462,0.6437693128465253,B,6036,Correct
2,relearn,51,287,B,63.56954191276019,31.457094751124153,3.1784770956380095,0.4941268888670484,A,914,Incorrect
2,relearn,51,288,A,34.76766943043278,51.57406554229094,1.7383834715216393,0.8101235271170986,B,1601,Incorrect
2,relearn,51,289,A,40.74968668743692,66.7328982932282,2.037484334371846,1.0482379151538028,A,499,Correct
2,relearn,51,290,A,41.609659046128755,55.232886067549174,2.0804829523064376,0.8675961455318726,B,881,Incorrect
2,relearn,51,291,B,64.22439175587023,49.504341420944854,3.2112195877935115,0.7776123766442062,A,1217,Incorrect
2,relearn,51,292,B,53.95330021851891,34.386006641997966,2.6976650109259457,0.5401341292639532,A,883,Incorrect
2,relearn,51,293,A,53.234662223353745,72.33911361051102,2.6617331111676874,1.1363001394298944,A,704,Correct
2,relearn,51,294,B,55.1101956236528,35.15320929749567,2.75550978118264,0.5521853203955841,A,703,Incorrect
2,relearn,51,295,A,28.68876888286182,51.87159570323835,1.434438444143091,0.8147971199563674,A,728,Correct
2,relearn,51,296,A,44.909126130674736,64.84315344926168,2.245456306533737,1.0185538725589809,A,750,Correct
2,relearn,51,297,B,74.4230665301441,64.19839537293541,3.7211533265072045,1.0084260363793343,B,564,Correct
2,relearn,51,298,B,72.44967674874735,47.457820630408165,3.622483837437368,0.745465703239362,B,449,Correct
2,relearn,51,299,A,16.364423427463993,38.8995871529163,0.8182211713731996,0.6110332861363887,A,594,Correct
2,relearn,51,300,A,23.44938015231221,49.08413194815067,1.1724690076156106,0.771011741680711,A,760,Incorrect
2,relearn,51,301,A,24.72904332020535,52.76138964826392,1.2364521660102674,0.8287739705608724,B,736,Correct
2,relearn,51,302,A,21.523874630735335,45.737857977949254,1.0761937315367667,0.7184485930722935,B,675,Incorrect
2,relearn,51,303,B,73.23494585768455,60.40240264749495,3.6617472928842276,0.948798722082714,B,637,Correct
2,relearn,51,304,A,51.82926984566771,72.05788195407673,2.5914634922833852,1.13188256290084,B,844,Incorrect
2,relearn,51,305,B,64.10228165044374,33.310603632620605,3.205114082522187,0.5232417382944119,A,540,Incorrect
2,relearn,51,306,B,61.86853686597882,29.35599238674928,3.093426843298941,0.4611228501052471,B,312,Correct
2,relearn,51,307,B,35.33593392371135,21.923714274102444,1.7667966961855677,0.3443768985146096,A,20,Incorrect
2,relearn,51,308,A,24.463590762640955,53.307163465597874,1.2231795381320478,0.8373469656361624,B,249,Correct
2,relearn,51,309,A,35.137159399364904,58.45249318323009,1.7568579699682454,0.9181696158422155,A,256,Correct
2,relearn,51,310,A,29.07059819087931,58.91950900964449,1.4535299095439655,0.9255054832890838,A,997,Correct
2,relearn,51,311,A,59.00540021046546,73.9238071679816,2.950270010523273,1.1611924476215973,B,594,Incorrect
2,relearn,51,312,A,25.646699692949753,42.406958742059274,1.2823349846474879,0.6661269502256943,A,781,Correct
2,relearn,51,313,A,15.328091788475753,40.84684660475481,0.7664045894237875,0.6416207660790345,A,845,Correct
2,relearn,51,314,B,46.77414919670735,22.023690828199523,2.3387074598353674,0.34594732655402266,A,986,Incorrect
2,relearn,51,315,B,44.420335983154935,22.9614327523733,2.2210167991577467,0.36067734225376014,B,2087,Correct
2,relearn,51,316,B,49.745840931678316,31.2683311014384,2.487292046583916,0.49116179639146057,A,775,Correct
2,relearn,51,317,B,35.17441435702508,19.798616494574432,1.758720717851254,0.3109959406529837,A,818,Incorrect
2,relearn,51,318,A,34.15233206877269,47.86790629496714,1.7076166034386344,0.7519073137949669,A,1451,Correct
2,relearn,51,319,A,33.400008368464874,65.95961761736277,1.6700004184232438,1.0360912507014939,A,694,Correct
2,relearn,51,320,B,54.3528018212335,42.33961180525613,2.7176400910616745,0.6650690670161818,A,504,Correct
2,relearn,51,321,B,56.906834614651515,27.01620869666033,2.845341730732576,0.4243696138463838,B,412,Correct
2,relearn,51,322,B,89.31824277624656,67.75252974666054,4.465912138812328,1.0642542485711632,A,1245,Correct
2,relearn,51,323,A,56.52431402296901,77.82956897502731,2.8262157011484503,1.2225440106200296,A,998,Correct
2,relearn,51,324,B,61.1962518448036,47.41573578703029,3.05981259224018,0.7448046360654449,B,447,Incorrect
2,relearn,51,325,B,79.2280626120903,59.13237408178625,3.961403130604515,0.928849160023316,A,636,Incorrect
2,relearn,51,326,A,38.94566750779902,71.09630084308085,1.947283375389951,1.1167780821301632,B,1528,Incorrect
2,relearn,51,327,B,76.22680690903596,47.99554843334769,3.8113403454517982,0.7539123118160911,B,441,Correct
2,relearn,51,328,A,29.01666435261655,57.59831866994225,1.4508332176308274,0.904752273963072,A,899,Incorrect
2,relearn,51,329,A,63.86761514685024,75.91146373094685,3.193380757342512,1.192414483901953,B,514,Incorrect
2,relearn,51,330,A,65.53103184681028,77.18387398086135,3.276551592340514,1.212401457369372,B,814,Correct
2,relearn,51,331,A,35.35749896546719,48.22768208913942,1.7678749482733593,0.7575586587545222,A,651,Correct
2,relearn,51,332,B,55.51028377345304,24.813239995417433,2.7755141886726515,0.38976546240681925,B,548,Incorrect
2,relearn,51,333,B,68.3679707538542,43.182798571995,3.4183985376927097,0.6783138137761365,B,325,Correct
2,relearn,51,334,A,23.948423240744287,36.983183153852366,1.1974211620372144,0.5809304825125419,A,577,Incorrect
2,relearn,51,335,B,66.78203204973659,42.78748588640566,3.339101602486829,0.6721042566315449,A,2131,Incorrect
2,relearn,51,336,A,41.20997910374599,57.395118783397855,2.0604989551872994,0.9015604176091812,A,829,Incorrect
2,relearn,51,337,B,41.74396999862778,14.401931953977154,2.087198499931389,0.2262250181205736,B,40,Correct
2,relearn,51,338,A,44.93679959290021,57.04218150403496,2.2468399796450105,0.896016491789059,B,543,Correct
2,relearn,51,339,B,64.9703701369222,45.27133564381522,3.24851850684611,0.7111204773840383,B,332,Incorrect
2,relearn,51,340,A,62.103052646152925,86.49229909484315,3.105152632307646,1.3586178571422518,A,656,Correct
2,relearn,51,341,B,58.84296712100743,33.38806835744553,2.9421483560503714,0.5244585513465235,B,825,Incorrect
2,relearn,51,342,A,25.997978658855878,54.65711399939086,1.299898932942794,0.8585519390345309,A,2233,Correct
2,relearn,51,343,A,52.35824037314987,71.3520154256381,2.617912018657494,1.1207948374000514,B,834,Incorrect
2,relearn,51,344,A,61.142515662709556,70.70157473067941,3.057125783135478,1.110577738855661,A,440,Correct
2,relearn,51,345,A,67.23732447662499,86.03109521355343,3.361866223831249,1.3513732835159171,B,664,Incorrect
2,relearn,51,346,B,48.71398399325949,33.47112902476843,2.4356991996629747,0.525763265257843,A,123,Correct
2,relearn,51,347,B,44.63063922734919,19.437007508910174,2.23153196136746,0.3053157999888093,A,147,Correct
2,relearn,51,348,A,41.497806140520424,73.6539709584988,2.0748903070260214,1.156953870354679,A,575,Incorrect
2,relearn,51,349,B,37.12090576444855,25.913888711369786,1.8560452882224274,0.407054412007914,B,303,Incorrect
2,relearn,51,350,A,41.54512039648643,52.1005197456723,2.0772560198243215,0.8183930504060702,A,273,Incorrect
2,relearn,51,351,A,24.356689620697182,53.15397417748719,1.2178344810348591,0.8349406739254767,A,253,Correct
2,relearn,51,352,B,61.45603589980338,46.80161897535047,3.0728017949901694,0.7351581117453484,A,9,Correct
2,relearn,51,353,B,50.061501540255094,19.726212215093287,2.503075077012755,0.3098586168904516,B,229,Correct
2,relearn,51,354,A,15.022342792636461,40.163439878929665,0.7511171396318231,0.6308858383327038,A,471,Incorrect
2,relearn,51,355,A,22.145631599878726,39.73847313761734,1.1072815799939364,0.6242104763700699,A,212,Correct
2,relearn,51,356,A,62.32187297120255,71.46858151799964,3.1160936485601276,1.1226258532971547,A,291,Incorrect
2,relearn,51,357,A,47.00823612610699,72.79858838427103,2.35041180630535,1.1435175522986656,B,2661,Incorrect
2,relearn,51,358,A,29.303622813818876,42.004886850668726,1.4651811406909439,0.6598112197246568,A,819,Correct
2,relearn,51,359,B,44.37779702703806,25.54520018761417,2.218889851351903,0.40126306621944646,A,813,Correct
2,relearn,51,360,A,55.72595360559013,74.36300474669939,2.7862976802795067,1.1680913470554684,B,1539,Incorrect
2,relearn,51,361,A,56.1150756050377,77.16636316853265,2.805753780251885,1.2121263981725208,A,311,Incorrect
2,relearn,51,362,B,40.845839148351416,27.665842590743246,2.0422919574175706,0.43457403919225296,B,255,Correct
2,relearn,51,363,A,11.68314481512012,34.06400405158321,0.584157240756006,0.5350761244015338,B,344,Incorrect
2,relearn,51,364,B,73.62873215680149,44.64264401797207,3.681436607840075,0.7012450124184267,B,545,Correct
2,relearn,51,365,A,39.19800332298402,55.9471581127442,1.959900166149201,0.8788159045811189,A,1065,Incorrect
2,relearn,51,366,B,56.521818197285654,32.55519307138834,2.826090909864283,0.5113757769463547,A,1747,Incorrect
2,relearn,51,367,B,32.18316074539656,11.091460012290643,1.609158037269828,0.1742242464609862,A,678,Correct
2,relearn,51,368,A,64.39905001032989,84.53132437731023,3.2199525005164946,1.3278149383098679,B,597,Incorrect
2,relearn,51,369,A,27.11923749432492,43.10966108966484,1.355961874716246,0.6771649728901841,A,521,Correct
2,relearn,51,370,B,80.32569465879722,56.119486523019134,4.0162847329398605,0.8815228329197417,B,569,Incorrect
2,relearn,51,371,B,57.307995289003266,35.45988034192447,2.8653997644501636,0.5570024978968152,A,1250,Correct
2,relearn,51,372,B,50.34415463569052,43.53557764960459,2.5172077317845263,0.6838552545689289,A,1343,Correct
2,relearn,51,373,B,32.70406448672444,20.290053578618675,1.635203224336222,0.3187154163176586,A,1215,Incorrect
2,relearn,51,374,B,55.368582145074896,38.315153060764686,2.7684291072537452,0.601853016884334,B,280,Correct
2,relearn,51,375,B,48.956777514771375,28.119136857020738,2.4478388757385687,0.44169436887651164,B,402,Correct
2,relearn,51,376,B,43.54499566253471,21.843400309804174,2.1772497831267357,0.343115329713509,B,442,Correct
2,relearn,51,377,A,58.785874072947934,82.16830512414836,2.9392937036473965,1.2906967186797453,A,862,Correct
2,relearn,51,378,A,58.85482519726314,84.26648113748669,2.942741259863157,1.3236547904269553,B,870,Correct
2,relearn,51,379,B,59.92593922774267,36.309265457174725,2.996296961387133,0.5703446080875088,B,907,Incorrect
2,relearn,51,380,B,31.537460792384817,10.766401041312943,1.5768730396192407,0.16911823208495122,A,471,Correct
2,relearn,51,381,B,61.699642644630124,39.9711392282997,3.0849821322315063,0.6278651867762055,A,595,Incorrect
2,relearn,51,382,A,53.870825537083356,62.078876538179614,2.6935412768541678,0.9751327123772642,A,6293,Correct
2,relearn,51,383,B,69.71378153309266,36.910102527218555,3.4856890766546327,0.5797825347137793,B,295,Correct
2,relearn,51,384,B,85.63214549110714,60.723026708557846,4.281607274555357,0.9538350730567104,B,331,Correct
2,relearn,51,385,A,40.099114576279234,58.016824574217864,2.004955728813962,0.9113261493348531,B,284,Correct
2,relearn,51,386,B,57.48125887075437,41.884602997994776,2.8740629435377185,0.6579218053851271,B,467,Incorrect
2,relearn,51,387,A,66.83379720807483,82.23360998887509,3.3416898604037413,1.2917225250960909,B,313,Correct
2,relearn,51,388,B,38.135179431412745,15.391376905723071,1.9067589715706372,0.24176718307825598,A,465,Incorrect
2,relearn,51,389,A,49.397407832131144,70.90773863818818,2.469870391606557,1.1138161539419855,B,276,Correct
2,relearn,51,390,B,52.01784629150289,20.25596018151401,2.6008923145751446,0.3181798784882589,B,335,Incorrect
2,relearn,51,391,B,69.37455814917607,47.42010550143604,3.4687279074588035,0.744873275378822,B,469,Correct
2,relearn,51,392,B,43.68727669847368,20.0475833847606,2.1843638349236842,0.31490670341896354,A,57,Incorrect
2,relearn,51,393,B,71.4032613059037,38.375250016835814,3.570163065295185,0.6027970176628149,B,418,Incorrect
2,relearn,51,394,B,38.73044839172384,17.049757512652455,1.9365224195861919,0.2678169647361817,A,6,Incorrect
2,relearn,51,395,A,49.71195109152293,60.20769776959359,2.4855975545761466,0.9457403050125489,A,1787,Incorrect
2,relearn,51,396,A,22.304853206981043,34.80072612343829,1.1152426603490522,0.5466485276449207,B,228,Correct
2,relearn,51,397,A,55.14698712880178,71.6360998158059,2.7573493564400895,1.1252572245658048,100,386,Incorrect
2,relearn,51,398,A,61.118179655093925,82.09959735034613,3.055908982754696,1.2896174594926373,A,322,Correct
2,relearn,51,399,B,54.010454296622,33.10555824279035,2.7005227148311004,0.5200208928426959,B,40,Incorrect
2,relearn,51,400,A,32.15038701700793,42.517361315012884,1.6075193508503964,0.6678611497863367,A,245,Correct
2,relearn,51,401,A,45.71503179014167,56.65581610573776,2.2857515895070835,0.8899474783046003,A,268,Correct
2,relearn,51,402,B,58.98520339988987,28.373433841782052,2.949260169994494,0.4456888565722925,A,397,Incorrect
2,relearn,51,403,A,43.094524304265164,74.69917293458654,2.1547262152132585,1.1733718646026527,B,326,Incorrect
2,relearn,51,404,B,40.26496439237685,27.321939576002933,2.013248219618842,0.4291720232689752,B,389,Incorrect
2,relearn,51,405,A,46.75425983655086,73.35897717474766,2.337712991827543,1.152320118835243,B,376,Incorrect
2,relearn,51,406,B,66.12522788311847,43.78599751362702,3.306261394155923,0.6877888405945579,A,195,Correct
2,relearn,51,407,A,19.44685696558597,32.44072988880025,0.9723428482792984,0.5095777934787284,B,192,Incorrect
2,relearn,51,408,B,73.02204761255105,46.557128298862175,3.6511023806275524,0.7313176611797143,B,366,Correct
2,relearn,51,409,B,33.93087504152278,11.3875917477361,1.696543752076139,0.1788758728838374,A,625,Incorrect
2,relearn,51,410,A,58.14620175180232,80.76840243403667,2.9073100875901163,1.268707098644768,B,375,Incorrect
2,relearn,51,411,B,66.75439032876199,52.89252538316449,3.3377195164380993,0.8308338458678061,A,31,Incorrect
2,relearn,51,412,B,63.838368972757216,47.41975276870189,3.1919184486378605,0.7448677346659907,A,347,Correct
2,relearn,51,413,B,72.62154002518693,51.25513948540584,3.6310770012593467,0.8051138483303557,A,403,Incorrect
2,relearn,51,414,B,49.50607111539761,19.627470051843012,2.4753035557698806,0.30830757861711844,B,498,Correct
2,relearn,51,415,B,83.9337981259568,64.40865099707037,4.19668990629784,1.0117287240001258,B,1426,Correct
2,relearn,51,416,B,56.4851771001705,26.93916560434707,2.8242588550085252,0.423159423782278,B,614,Correct
2,relearn,51,417,B,54.90082117734708,31.756249205564643,2.745041058867354,0.498825996048843,B,478,Correct
2,relearn,51,418,A,19.283377456938503,39.59038941943598,0.9641688728469251,0.6218843827642957,A,22,Correct
2,relearn,51,419,A,32.365672949453966,59.24057091760469,1.6182836474726983,0.9305487119460604,A,242,Correct
2,relearn,51,420,A,22.564788566774798,40.04253890484925,1.1282394283387398,0.6289867302727894,A,348,Correct
2,relearn,51,421,A,43.99191509192616,53.547016393785086,2.199595754596308,0.8411145666218373,B,357,Incorrect
2,relearn,51,422,A,42.869410149386695,71.20680631385815,2.1434705074693348,1.1185138980060405,A,78,Correct
2,relearn,51,423,A,29.85294242365576,54.01331133227198,1.4926471211827879,0.8484391103876198,A,622,Correct
2,relearn,51,424,B,77.7397015763078,55.66826938700461,3.8869850788153895,0.8744351307213561,A,299,Incorrect
2,relearn,51,425,A,45.699337117150286,60.89929055707162,2.2849668558575145,0.9566038191146323,B,309,Correct
2,relearn,51,426,B,69.85692507920626,40.44635496780843,3.492846253960313,0.6353298581567601,B,363,Correct
2,relearn,51,427,A,13.061491797879501,41.1989912614128,0.653074589893975,0.6471522414108227,A,289,Incorrect
2,relearn,51,428,B,55.03577386075733,29.541740969162454,2.7517886930378666,0.46404058201486686,B,387,Correct
2,relearn,51,429,B,56.199142314432656,44.91523717619357,2.8099571157216325,0.7055268957348644,A,309,Incorrect
2,relearn,51,430,A,59.90955784112555,68.77413632156993,2.9954778920562775,1.0803016071241354,B,209,Incorrect
2,relearn,51,431,A,38.278384053861075,50.996166918613234,1.9139192026930538,0.8010459167637709,A,209,Correct
2,relearn,51,432,A,19.764065570232674,34.92847532411484,0.9882032785116337,0.5486552073966579,A,272,Correct
2,relearn,51,433,A,50.427621893226046,68.17118858013907,2.5213810946613022,1.0708305261492466,A,282,Correct
2,relearn,51,434,A,31.50425801084596,40.67630275774839,1.575212900542298,0.6389418695946829,B,292,Correct
2,relearn,51,435,A,54.28544614923858,70.29409508992475,2.714272307461929,1.1041770636262496,B,274,Incorrect
2,relearn,51,436,A,36.4975947134625,66.1297808117105,1.8248797356731248,1.038764167907865,A,493,Incorrect
2,relearn,51,437,A,42.876966245801015,57.30665507142463,2.143848312290051,0.9001708328709592,B,330,Incorrect
2,relearn,51,438,B,84.39551741918832,62.01095670118232,4.219775870959416,0.9740658300725459,B,216,Correct
2,relearn,51,439,A,52.20257342838876,67.47004902466368,2.610128671419438,1.059817051766133,B,287,Incorrect
2,relearn,51,440,B,83.24560909363711,65.11000221549196,4.162280454681856,1.0227455231770235,100,4075,Correct
2,relearn,51,441,A,43.781062197506905,53.78093441780752,2.189053109875345,0.8447889423508929,B,569,Incorrect
2,relearn,51,442,B,34.19659066180771,19.129943565374006,1.7098295330903854,0.30049245084283155,A,325,Incorrect
2,relearn,51,443,A,15.035261422151244,31.502923085182204,0.7517630711075622,0.49484675865506356,B,894,Incorrect
2,relearn,51,444,B,43.98586883565582,33.831971017550096,2.199293441782791,0.531431358025991,A,476,Incorrect
2,relearn,51,445,B,47.02743074988951,33.08580024771857,2.3513715374944755,0.5197105349818602,B,1876,Incorrect
2,relearn,51,446,B,46.39450571959424,25.34450751973989,2.319725285979712,0.3981105931643305,A,390,Incorrect
2,relearn,51,447,A,31.628924825416476,57.137769460713585,1.581446241270824,0.8975179839014251,B,291,Correct
2,relearn,51,448,A,44.27355495633689,57.06098195820729,2.213677747816844,0.8963118086326187,107,264,Correct
2,relearn,51,449,B,72.25523402717815,61.8274891362362,3.6127617013589077,0.971183928301512,B,203,Correct
2,relearn,51,450,B,46.559221716896516,18.520219936691692,2.3279610858448256,0.2909149344798892,B,536,Incorrect
2,relearn,51,451,A,12.41191299384127,35.68542183412177,0.6205956496920635,0.5605452953716488,107,9,Incorrect
2,relearn,51,452,A,16.074524684091347,32.72022218153998,0.8037262342045673,0.513968048146759,A,353,Correct
2,relearn,51,453,A,40.912856902185304,54.34299465446763,2.045642845109265,0.8536177639027244,B,255,Correct
2,relearn,51,454,B,53.15033102707532,44.12695387757119,2.657516551353766,0.6931445706353665,107,314,Correct
2,relearn,51,455,B,65.31055478975495,37.2872525434515,3.2655277394877475,0.5857067933152729,100,12,Incorrect
2,relearn,51,456,B,50.32153249487502,35.40363441510684,2.516076624743751,0.5561189889443922,100,81,Correct
2,relearn,51,457,B,47.07138957427608,20.04520545222121,2.353569478713804,0.3148693509419811,100,219,Incorrect
2,relearn,51,458,A,64.02675979896618,84.73562994034194,3.2013379899483088,1.3310241625894077,107,2105,Correct
2,relearn,51,459,B,51.50971798135598,35.45592307125363,2.575485899067799,0.5569403372344763,107,499,Correct
2,relearn,51,460,B,46.61564083934978,30.870829194943262,2.330782041967489,0.4849178510452953,107,359,Incorrect
2,relearn,51,461,B,50.70629672494661,30.470932799890527,2.5353148362473306,0.47863629316082174,100,370,Incorrect
2,relearn,51,462,A,47.85916856145405,65.95912374322278,2.3929584280727023,1.0360834929446439,B,586,Incorrect
2,relearn,51,463,B,58.018613105318366,47.63320401777879,2.900930655265918,0.7482206190459881,A,611,Incorrect
2,relearn,51,464,A,14.978290697374,44.16953265888378,0.7489145348687001,0.6938133965682186,B,383,Correct
2,relearn,51,465,A,45.69200033069431,71.54673842265788,2.284600016534716,1.1238535390846627,A,289,Incorrect
2,relearn,51,466,A,30.794999361297336,63.750211871618056,1.5397499680648667,1.0013859864033405,B,346,Incorrect
2,relearn,51,467,A,25.269096172263776,52.81514064273969,1.2634548086131887,0.8296182892077136,B,384,Correct
2,relearn,51,468,B,48.22073717731146,17.764821087988278,2.411036858865573,0.27904915711180506,B,536,Correct
2,relearn,51,469,A,48.52710306853946,60.57551688736256,2.4263551534269734,0.9515179942037134,A,314,Correct
2,relearn,51,470,B,80.23139734185919,62.11147795041133,4.01156986709296,0.9756448141630831,A,574,Correct
2,relearn,51,471,A,42.570718226356945,54.43851666165904,2.1285359113178473,0.8551182200829678,A,355,Correct
2,relearn,51,472,B,48.68933787755126,20.824126806368994,2.434466893877563,0.32710461896155557,A,295,Correct
2,relearn,51,473,B,77.96772205239837,54.15104924931295,3.8983861026199182,0.8506026925291033,A,302,Incorrect
2,relearn,51,474,A,19.448358873219526,42.69803126860389,0.9724179436609762,0.6706991067809663,100,131,Incorrect
2,relearn,51,475,A,40.93795052233741,60.171068915739404,2.0468975261168705,0.9451649403216603,A,344,Correct
2,relearn,51,476,A,40.92018542909625,63.448853221808385,2.0460092714548126,0.9966522558016515,A,26,Correct
2,relearn,51,477,A,26.458557967036857,39.52479065588672,1.3229278983518429,0.620853959796041,A,362,Incorrect
2,relearn,51,478,B,30.894951638172362,12.777968796467544,1.5447475819086183,0.20071586449391018,B,406,Incorrect
2,relearn,51,479,A,38.024541453909215,45.621125422001676,1.9012270726954608,0.7166149623712953,B,225,Incorrect
2,relearn,51,480,A,44.21259899862625,65.41304104246663,2.2106299499313122,1.027505645939904,B,238,Incorrect
2,relearn,51,481,B,79.42086818002123,59.71635940246152,3.9710434090010613,0.9380223799895044,B,231,Incorrect
2,relearn,51,482,B,54.990817200603246,36.74768544700394,2.7495408600301623,0.5772312931836806,A,372,Incorrect
2,relearn,51,483,B,53.04585600683208,30.732305108987276,2.652292800341604,0.48274191979137254,B,277,Correct
2,relearn,51,484,A,38.86872722435992,69.62990725497966,1.9434363612179961,1.0937440255119135,B,128,Incorrect
2,relearn,51,485,B,35.75630001053506,14.764322602649699,1.7878150005267528,0.23191743711857013,B,506,Incorrect
2,relearn,51,486,B,72.8821442628546,55.47505982720894,3.6441072131427297,0.8714002020530693,A,3722,Correct
2,relearn,51,487,A,29.3211239425777,58.559787250680024,1.4660561971288848,0.9198549871125878,A,5914,Incorrect
2,relearn,51,488,B,48.88347464544319,21.8180569115577,2.4441737322721595,0.34271723654476843,A,15104,Incorrect
2,relearn,51,489,A,19.439497333291257,32.813666766876764,0.9719748666645629,0.5154358722608179,B,295,Incorrect
2,relearn,51,490,B,66.79897325717452,46.33806325385391,3.339948662858726,0.7278765954994331,A,2745,Incorrect
2,relearn,51,491,A,34.93240219819568,66.93846999051453,1.7466201099097842,1.0514670278237064,A,286,Correct
2,relearn,51,492,B,70.15773738793033,40.86492588007446,3.507886869396516,0.6419047546716666,B,442,Correct
2,relearn,51,493,A,32.59718105090121,40.95451630338416,1.6298590525450607,0.6433120377501754,B,604,Incorrect
2,relearn,51,494,B,73.2840330817632,40.36225117320153,3.66420165408816,0.6340087588403798,B,292,Incorrect
2,relearn,51,495,B,51.70349658136229,27.004127376909686,2.5851748290681145,0.42417984091951244,B,366,Incorrect
2,relearn,51,496,B,51.3033386772389,33.208955594397914,2.565166933861945,0.5216450546437507,A,1028,Correct
2,relearn,51,497,A,52.25772339858379,66.6732863853727,2.6128861699291894,1.0473015334948763,B,894,Correct
2,relearn,51,498,B,69.8185489823763,40.05092137638,3.4909274491188147,0.6291184018276891,A,542,Incorrect
2,relearn,51,499,A,28.155758080856245,55.27611180325435,1.407787904042812,0.8682751338005595,A,241,Incorrect
2,relearn,51,500,A,43.455091082066495,54.171565255310064,2.172754554103325,0.850924957197711,107,295,Incorrect
2,relearn,51,501,A,20.709789079889546,43.16797549140921,1.0354894539944772,0.6780809733707771,107,140,Incorrect
2,relearn,51,502,A,45.95304138154898,75.43058714281774,2.297652069077449,1.1848608921192048,A,294,Incorrect
2,relearn,51,503,A,38.40697406856806,48.662177299601204,1.920348703428403,0.7643836935605557,B,291,Correct
2,relearn,51,504,A,58.90024716776258,82.67153603712026,2.9450123583881287,1.2986014513760042,B,643,Incorrect
2,relearn,51,505,B,56.114313611828486,43.90059217736724,2.8057156805914243,0.6895888893632923,B,241,Correct
2,relearn,51,506,A,22.653351939463775,38.1101180674514,1.1326675969731888,0.5986323347407247,A,332,Correct
2,relearn,51,507,B,73.90790397471604,57.355402365625714,3.6953951987358016,0.9009365535776818,A,264,Incorrect
2,relearn,51,508,A,17.63306658193495,33.71489618043786,0.8816533290967477,0.5295923507850309,A,459,Incorrect
2,relearn,51,509,B,82.28671245858646,67.87522989928347,4.114335622929323,1.066181618061536,B,565,Correct
2,relearn,51,510,A,41.64223252978192,48.89702642398245,2.082111626489096,0.7680726949798464,A,270,Incorrect
2,relearn,51,511,A,59.91599642344775,80.96298158145953,2.9957998211723873,1.2717635407451948,B,294,Incorrect
2,relearn,51,512,B,73.01768887228086,41.53284105177876,3.650884443614043,0.6523963416549037,B,583,Incorrect
2,relearn,51,513,A,55.504814771369126,82.07464010725025,2.7752407385684563,1.2892254320348178,A,334,Correct
2,relearn,51,514,B,76.85114306144963,46.760588952002735,3.842557153072482,0.7345136136457191,A,692,Correct
2,relearn,51,515,A,26.93737855483392,39.877349891507464,1.3468689277416959,0.626391947318948,B,780,Incorrect
2,relearn,51,516,B,62.45257508898154,44.756331783621384,3.122628754449077,0.7030308156652615,A,712,Incorrect
2,relearn,51,517,B,53.96690447894724,29.064666216201566,2.698345223947362,0.4565467093192915,B,217,Correct
2,relearn,51,518,A,15.050496693464098,39.206959287613685,0.7525248346732049,0.6158614763378063,A,540,Incorrect
2,relearn,51,519,A,23.64206347177312,48.681251095290605,1.182103173588656,0.7646833040426253,A,1894,Correct
2,relearn,51,520,A,30.655174999287063,60.339610215994334,1.5327587499643531,0.9478123808751973,B,1251,Correct
2,relearn,51,521,B,61.400257646710706,50.12508147100051,3.070012882335535,0.7873629385494254,B,561,Correct
2,relearn,51,522,B,42.208150812399325,32.4501359666347,2.110407540619966,0.5097255438038475,107,419,Incorrect
2,relearn,51,523,A,63.283188920545115,87.71222141561793,3.1641594460272557,1.3777803521467331,A,548,Incorrect
2,relearn,51,524,B,42.61960142429689,21.521721793162197,2.1309800712148443,0.3380624153900085,B,536,Correct
2,relearn,51,525,A,41.93400011177789,73.63197120508767,2.0967000055888945,1.1566082990361928,A,355,Correct
2,relearn,51,526,A,33.62073100971584,59.94946643838828,1.6810365504857918,0.9416840167473423,A,285,Correct
2,relearn,51,527,B,73.68663099508728,46.00317479100113,3.684331549754364,0.7226161798260815,B,297,Correct
2,relearn,51,528,B,88.69580329584063,67.56102472064309,4.434790164792031,1.0612460946568536,B,199,Incorrect
2,relearn,51,529,B,65.8820379946688,46.68920606166096,3.29410189973344,0.7333923338262707,A,401,Incorrect
2,relearn,51,530,B,55.052707650769136,33.6604442732557,2.752635382538457,0.5287370222271437,A,224,Incorrect
2,relearn,51,531,B,73.51520550899524,42.56402364955511,3.6757602754497616,0.6685941200233227,B,338,Correct
2,relearn,51,532,A,44.16262794209916,65.35432961138709,2.208131397104958,1.0265834089370978,B,174,Incorrect
2,relearn,51,533,B,71.470039610393,50.29610428465958,3.5735019805196497,0.7900493586243632,A,150,Incorrect
2,relearn,51,534,B,65.62307775542045,41.932187084979205,3.2811538877710227,0.6586692544756173,B,312,Correct
2,relearn,51,535,A,35.655025819664374,53.527239741363836,1.7827512909832188,0.8408039156920412,B,302,Incorrect
2,relearn,51,536,B,41.80957607326833,28.790254553780485,2.0904788036634163,0.4522362610056843,A,600,Incorrect
2,relearn,51,537,A,27.39207152813916,41.52955744084058,1.369603576406958,0.6523447628149005,A,632,Correct
2,relearn,51,538,A,60.88382089064865,83.91401806647667,3.044191044532432,1.3181183134542216,A,1033,Correct
2,relearn,51,539,B,44.005771989781934,22.87045721153691,2.2002885994890966,0.3592483018000203,A,675,Incorrect
2,relearn,51,540,B,80.98516315862082,50.293632703739874,4.049258157931041,0.7900105351220628,B,1013,Correct
2,relearn,51,541,A,56.509479391281914,67.86749021793892,2.8254739695640954,1.0660600434312704,A,957,Correct
2,relearn,51,542,B,73.11065384731616,56.584315354289984,3.655532692365808,0.8888243471272277,B,734,Correct
2,relearn,51,543,A,52.256475505776294,73.42857720929334,2.6128237752888146,1.1534133936213342,107,675,Correct
2,relearn,51,544,B,72.16950349476853,45.883951997595524,3.6084751747384267,0.720743432566564,100,329,Correct
2,relearn,51,545,A,35.24944573359311,46.18424163392464,1.7624722866796558,0.7254603711437675,B,603,Incorrect
2,relearn,51,546,B,66.85949879610769,57.34811202665985,3.3429749398053845,0.9008220372009952,A,214,Incorrect
2,relearn,51,547,A,23.680639934987546,52.74250373081759,1.1840319967493773,0.828477311263344,A,353,Incorrect
2,relearn,51,548,A,34.579617883048925,55.242267436109955,1.728980894152446,0.8677435077246285,A,514,Incorrect
2,relearn,51,549,B,61.84230570340341,54.67308043342056,3.0921152851701708,0.8588027391937895,B,403,Incorrect
2,relearn,51,550,B,74.28201513092282,57.12927116876436,3.7141007565461406,0.8973844930436464,B,611,Correct
2,relearn,51,551,A,35.84137965114416,51.76443069334648,1.792068982557208,0.8131137759173767,B,919,Incorrect
2,relearn,51,552,A,43.0682382286172,53.566055953453585,2.15341191143086,0.8414136393257479,B,905,Incorrect
2,relearn,51,553,B,48.758727015168176,37.79394501970329,2.4379363507584086,0.5936659001203819,100,557,Correct
2,relearn,51,554,A,21.04018053246229,51.69331164950583,1.0520090266231146,0.811996640589076,107,88,Correct
2,relearn,51,555,A,26.030195967243728,38.040554379774385,1.3015097983621866,0.5975396308899111,107,317,Incorrect
2,relearn,51,556,B,78.93600446286416,55.79455951953435,3.946800223143208,0.8764188914842379,B,339,Correct
2,relearn,51,557,A,48.4160198002424,58.24918365087552,2.42080099001212,0.9149760371759661,A,517,Correct
2,relearn,51,558,B,55.77199806654706,47.850179883471704,2.7885999033273534,0.751628867974324,A,291,Incorrect
2,relearn,51,559,A,48.069644984492484,59.33211148441123,2.403482249224624,0.9319866278069845,B,378,Correct
2,relearn,51,560,A,30.978794101963437,44.595380741024606,1.548939705098172,0.7005026026002132,B,553,Correct
2,relearn,51,561,A,27.980672520272606,57.09857629976239,1.3990336260136302,0.896902339168849,A,187,Correct
2,relearn,51,562,A,30.853071636149362,45.38304981621663,1.542653581807468,0.7128752795006288,A,1572,Correct
2,relearn,51,563,A,60.16266248564688,78.86139598315657,3.008133124282344,1.2387519113626015,B,534,Correct
2,relearn,51,564,B,66.71941641611934,41.028520832695655,3.335970820805967,0.6444744981782622,B,762,Incorrect
2,relearn,51,565,B,48.41485237237887,26.553968150057003,2.4207426186189434,0.41710875631938216,B,4758,Correct
2,relearn,51,566,B,50.806385366027456,23.304050138031755,2.540319268301373,0.3660591635626438,A,472,Correct
2,relearn,51,567,A,20.644535553547293,50.89740248508937,1.0322267776773646,0.7994945286697982,107,264,Incorrect
2,relearn,51,568,A,33.51381844766819,47.68811932429023,1.6756909223834098,0.7490832266635181,100,9,Incorrect
2,relearn,51,569,B,50.545469986955325,20.73982149160632,2.527273499347766,0.3257803541739706,A,191,Incorrect
2,relearn,51,570,A,25.042433984741706,52.78775582592881,1.2521216992370854,0.8291881295111486,107,478,Correct
2,relearn,51,571,A,28.58666527587848,39.37805424468422,1.4293332637939242,0.6185490296388017,107,8,Incorrect
2,relearn,51,572,B,40.53609798094664,17.967829913790013,2.026804899047332,0.2822380122905681,107,49,Correct
2,relearn,51,573,B,42.91297396493343,30.13550706403634,2.1456486982466716,0.47336743802289943,107,273,Incorrect
2,relearn,51,574,A,23.167450801093697,37.028463542850915,1.1583725400546847,0.5816417451996896,107,543,Correct
2,relearn,51,575,B,59.44275204763346,37.25782590740259,2.972137602381673,0.5852445607971172,107,472,Incorrect
2,relearn,51,576,B,54.70456067395387,27.892523176099267,2.7352280336976933,0.4381347295005826,107,54,Incorrect
2,relearn,51,577,A,14.02823274120777,41.18364598343564,0.7014116370603886,0.646911198348021,A,780,Correct
2,relearn,51,578,B,75.0846016198608,56.07149529356509,3.75423008099304,0.8807689884502938,B,1422,Correct
2,relearn,51,579,B,63.632129094659376,47.68422073053348,3.181606454732969,0.7490219876959906,107,469,Correct
2,relearn,51,580,A,59.58064935635858,73.65874943934604,2.9790324678179285,1.1570289305563042,B,582,Correct
2,relearn,51,581,A,61.53417948346072,72.58920528070773,3.076708974173036,1.140228570198964,B,417,Incorrect
2,relearn,51,582,A,48.05079089594261,57.640522935071616,2.4025395447971305,0.9054152170094748,B,299,Correct
2,relearn,51,583,A,13.602733133684232,39.75272215093082,0.6801366566842116,0.6244342993478025,A,675,Correct
2,relearn,51,584,B,46.29032922382008,26.07372652481522,2.3145164611910043,0.40956513851034415,B,1288,Correct
2,relearn,51,585,B,56.89091317785866,29.166746214923077,2.8445456588929328,0.45815017818960124,A,1760,Incorrect
2,relearn,51,586,B,61.321450769703205,46.21470767666143,3.0660725384851606,0.7259389306239968,B,347,Incorrect
2,relearn,51,587,A,67.03046894193376,88.08706324473492,3.351523447096688,1.3836683538297936,B,585,Incorrect
2,relearn,51,588,B,59.37847853869167,28.12389107782584,2.968923926934583,0.44176904800228595,107,599,Correct
2,relearn,51,589,A,40.77898597736225,47.64551283487158,2.0389492988681126,0.7484139654927537,107,105,Correct
2,relearn,51,590,B,48.89507023035593,35.72092462456333,2.4447535115177965,0.5611029718998145,107,98,Incorrect
2,relearn,51,591,B,74.65608686901871,61.415896033723584,3.7328043434509355,0.9647186389659026,107,124,Incorrect
2,relearn,51,592,A,14.416732844939649,40.43031251919864,0.7208366422469824,0.6350778639632695,A,588,Incorrect
2,relearn,51,593,B,67.62514015914532,55.6491780490946,3.3812570079572657,0.8741352446867299,100,1595,Incorrect
2,relearn,51,594,B,40.0431554532217,29.31218791947132,2.002157772661085,0.4604347711422729,B,713,Incorrect
2,relearn,51,595,A,43.16691779961741,61.03492296781777,2.1583458899808705,0.9587343280405763,107,32,Correct
2,relearn,51,596,B,83.21486494463286,53.530242766108714,4.160743247231643,0.8408510870944266,107,288,Correct
2,relearn,51,597,A,15.996659831026133,37.252855078422954,0.7998329915513067,0.5851664791980938,107,286,Correct
2,relearn,51,598,B,84.24306612278093,64.42786868801707,4.212153306139046,1.0120305947836115,107,112,Correct
2,relearn,51,599,A,36.52985666666314,61.782783161354445,1.8264928333331572,0.9704816884902113,107,95,Incorrect
2,relearn,51,600,A,34.5428254208049,44.93485104091877,1.727141271040245,0.7058349896015105,107,75,Incorrect
2,relearn,51,601,A,63.63403491968215,76.03482445076213,3.1817017459841077,1.1943522295575195,B,4213,Incorrect
2,relearn,51,602,A,51.695392562360595,82.19639839154058,2.58476962811803,1.291138006692019,B,1434,Incorrect
2,relearn,51,603,B,66.17010303956732,46.12968571217412,3.308505151978366,0.7246034087288613,B,719,Correct
2,relearn,51,604,B,49.54884444815775,20.083452038740166,2.4774422224078876,0.3154701269181453,B,607,Correct
2,relearn,51,605,B,74.13595731540148,54.724880254208685,3.706797865770074,0.8596164088760155,B,560,Correct
2,relearn,51,606,A,50.678297616550864,57.735262355185874,2.5339148808275436,0.9069033803406564,B,569,Incorrect
2,relearn,51,607,A,53.92197984485641,71.8000169151924,2.6960989922428205,1.1278320283419567,A,954,Correct
2,relearn,51,608,B,58.35620845062413,25.498148705447964,2.9178104225312063,0.4005239832658771,A,597,Incorrect
2,relearn,51,609,A,68.91700522701916,86.61742173325004,3.445850261350958,1.3605832789503363,B,1106,Incorrect
2,relearn,51,610,A,38.904898694314284,70.45676687993651,1.9452449347157141,1.106732306128486,A,481,Correct
2,relearn,51,611,B,71.76985423699334,44.34203289391869,3.5884927118496672,0.6965230239238596,B,579,Correct
2,relearn,51,612,B,53.006881306039034,26.87929853411762,2.6503440653019514,0.4222190340421541,B,1077,Correct
2,relearn,51,613,A,64.01996071575657,76.26648766946414,3.200998035787828,1.1979911868874258,A,3240,Correct
2,relearn,51,614,B,42.566749239276405,20.503100451334642,2.1283374619638202,0.3220619487686324,A,707,Incorrect
2,relearn,51,615,B,60.57294461440827,44.33414467487634,3.0286472307204133,0.6963991160688928,B,610,Correct
2,relearn,51,616,A,36.126369980740776,58.133779820996544,1.806318499037039,0.9131632780552463,A,643,Correct
2,relearn,51,617,B,62.82563939895484,51.10330201291017,3.1412819699477423,0.8027287908896955,B,752,Correct
2,relearn,51,618,A,37.28783564539113,54.30749475992444,1.8643917822695562,0.8530601328632241,A,500,Correct
2,relearn,51,619,A,21.54336727014934,34.395380463845946,1.077168363507467,0.5402813729132215,A,667,Correct
2,relearn,51,620,A,39.26953297226758,57.870340642276126,1.9634766486133788,0.9090251851125675,B,569,Incorrect
2,relearn,51,621,A,35.23668271036804,48.60351467932097,1.7618341355184017,0.7634622232759922,A,584,Correct
2,relearn,51,622,A,54.1184882125145,67.12339309358023,2.705924410625725,1.0543717931340575,B,3088,Incorrect
2,relearn,51,623,A,41.49853285284347,71.79175571977771,2.0749266426421737,1.1277022617878336,B,4498,Incorrect
2,relearn,51,624,B,33.040579386604534,15.444701936992132,1.6520289693302266,0.24260481071069265,A,718,Incorrect
2,relearn,51,625,A,59.12282829695251,77.58746616674897,2.9561414148476257,1.2187410686005258,B,317,Incorrect
2,relearn,51,626,B,46.03272573428802,19.208182642624745,2.301636286714401,0.3017214273944044,A,111,Incorrect
2,relearn,51,627,B,56.5672271683892,27.228229050281023,2.8283613584194605,0.4277000217731152,B,302,Correct
2,relearn,51,628,B,51.97261047173662,36.38401398294701,2.5986305235868308,0.5715187551846731,B,451,Correct
2,relearn,51,629,B,68.76923064415257,45.18678171801282,3.4384615322076284,0.7097923074233733,B,569,Correct
2,relearn,51,630,B,75.52193769303955,48.249383548197045,3.7760968846519773,0.7578995444762604,B,524,Correct
2,relearn,51,631,B,83.64765018085187,66.20112475607392,4.1823825090425935,1.0398848359653161,B,437,Correct
2,relearn,51,632,B,78.98394179207432,52.30095601882221,3.9491970896037163,0.8215414960222737,B,472,Correct
2,relearn,51,633,B,68.90998072573623,56.40364291863115,3.445499036286811,0.8859863511443679,B,454,Correct
2,relearn,51,634,B,73.54110072289718,56.6658231518486,3.677055036144859,0.89010466861733,B,482,Correct
2,relearn,51,635,A,53.93506125129111,71.86912543532684,2.6967530625645555,1.1289175824377307,B,497,Incorrect
2,relearn,51,636,A,26.20479420866108,48.731373707260616,1.310239710433054,0.7654706281903437,A,569,Correct
2,relearn,51,637,A,34.17097391036485,45.366056278715845,1.7085486955182427,0.7126083456377741,A,503,Correct
2,relearn,51,638,A,62.802896432076224,84.42027123777449,3.1401448216038115,1.3260705196732503,B,464,Incorrect
2,relearn,51,639,A,44.81126811898339,71.35257791305013,2.2405634059491693,1.1208036729316582,A,318,Correct
2,relearn,51,640,B,36.0149613718706,25.331910045896933,1.8007480685935298,0.3979127125079364,A,405,Incorrect
2,relearn,51,641,B,74.2952148551839,47.05314951775574,3.7147607427591947,0.7391091442662178,B,292,Correct
2,relearn,51,642,A,24.88143764019824,46.280926649345346,1.244071882009912,0.7269790958145571,B,276,Incorrect
2,relearn,51,643,A,14.466208236392198,31.66783913515782,0.7233104118196099,0.49743725391037574,A,483,Correct
2,relearn,51,644,A,38.56934904544953,71.1848941754783,1.9284674522724765,1.1181697029412474,B,642,Incorrect
2,relearn,51,645,B,38.47013509919306,17.913009908009425,1.9235067549596527,0.28137690165341794,B,1342,Correct
2,relearn,51,646,B,58.49852211252087,34.30645910205465,2.9249261056260436,0.538884599428468,B,566,Correct
2,relearn,51,647,B,87.42473895683125,60.55811672652327,4.371236947841562,0.9512446731163934,B,625,Correct
2,relearn,51,648,B,49.295634414508754,33.12002544824378,2.464781720725438,0.5202481431745481,B,470,Correct
2,relearn,51,649,A,57.29490369681115,77.81045988365003,2.8647451848405576,1.222243845714591,B,467,Incorrect
2,relearn,51,650,B,49.85268560024791,41.030000905564606,2.4926342800123957,0.6444977471085216,A,839,Incorrect
2,relearn,51,651,A,61.36644185382906,82.4198681596473,3.0683220926914534,1.2946482616009365,B,733,Incorrect
2,relearn,51,652,A,16.084889076729272,41.630046493048155,0.8042444538364636,0.653923241155808,A,588,Correct
2,relearn,51,653,A,30.659130816715574,63.513962215939245,1.5329565408357786,0.9976749854898721,A,594,Correct
2,relearn,51,654,A,27.316191194549816,55.143097388119784,1.3658095597274909,0.8661857482535181,A,1446,Correct
2,relearn,51,655,A,43.3497274042363,72.88729878995062,2.167486370211815,1.1449110120925652,B,543,Incorrect
2,relearn,51,656,A,32.85663062691209,45.11533599385507,1.6428315313456046,0.7086700406126513,A,927,Correct
2,relearn,51,657,B,59.14102659443478,30.556923034897842,2.9570513297217387,0.4799870246137189,B,4759,Correct
2,relearn,51,658,A,65.97410038680559,82.78820564240121,3.2987050193402796,1.3004340932502434,B,567,Incorrect
2,relearn,51,659,B,63.42107712232138,37.6135981920153,3.171053856116069,0.5908330187755679,B,533,Correct
2,relearn,51,660,B,85.55046734820765,62.905215993891176,4.2775233674103825,0.9881128221944384,B,470,Correct
2,relearn,51,661,A,42.22055927066637,56.367471432643825,2.1110279635333185,0.8854181707711318,A,585,Correct
2,relearn,51,662,B,67.22142918065543,38.99562103099066,3.3610714590327717,0.6125417827656595,B,459,Correct
2,relearn,51,663,B,57.11973314370616,24.482996062221645,2.855986657185308,0.3845780028347167,A,738,Incorrect
2,relearn,51,664,A,43.494840101633606,57.65132102682426,2.17474200508168,0.9055848330380893,B,442,Incorrect
2,relearn,51,665,A,43.05189257118953,74.14759162229814,2.1525946285594766,1.1647076456099394,A,1693,Correct
2,relearn,51,666,B,76.12100663886524,58.373616956677395,3.806050331943262,0.9169306309728114,B,613,Correct
2,relearn,51,667,A,48.910168078864444,78.75150174558382,2.445508403943222,1.2370256967154496,A,456,Correct
2,relearn,51,668,A,35.33528289251662,64.04679214797535,1.7667641446258306,1.006044658490359,A,2125,Correct
2,relearn,51,669,B,89.53047622274732,66.55761450350161,4.476523811137366,1.0454845638233108,B,651,Correct
2,relearn,51,670,A,54.919383026006926,79.82790458846443,2.745969151300346,1.2539337930329342,B,668,Incorrect
2,relearn,51,671,A,43.90388233860322,74.81637828611753,2.195194116930161,1.1752129219593086,A,656,Correct
2,relearn,51,672,A,34.03330841444856,49.39032150826505,1.701665420722428,0.7758213560440171,A,546,Correct
2,relearn,51,673,B,56.55583766572598,36.2844801349241,2.827791883286299,0.5699552811560118,A,1369,Incorrect
2,relearn,51,674,B,63.23553918844193,51.44362117759569,3.1617769594220966,0.8080745118279548,B,494,Correct
2,relearn,51,675,A,43.94411079288751,53.5874039152823,2.1972055396443753,0.841748972325999,A,651,Correct
2,relearn,51,676,A,58.47650695725477,82.35426299600262,2.923825347862738,1.2936177381002179,A,562,Correct
2,relearn,51,677,A,32.8166391379484,56.828293854516374,1.6408319568974201,0.8926567524469532,A,699,Correct
2,relearn,51,678,B,36.31375044134136,10.712396057267,1.8156875220670683,0.16826992377927139,B,1224,Correct
2,relearn,51,679,A,54.945440650084635,76.93050528195998,2.7472720325042315,1.2084215511537812,B,625,Incorrect
2,relearn,51,680,A,62.349404026874,72.66053830915686,3.1174702013437003,1.1413490667896344,B,1467,Incorrect
2,relearn,51,681,A,40.683560687758195,48.47018693958149,2.0341780343879097,0.7613679160375657,B,696,Incorrect
2,relearn,51,682,A,53.59753972676056,63.62107341242188,2.679876986338028,0.9993574842298075,B,902,Incorrect
2,relearn,51,683,A,45.745402885317446,60.693407466761215,2.2872701442658725,0.9533698150945447,A,548,Correct
2,relearn,51,684,A,54.592810831274996,79.15113208732964,2.7296405415637497,1.2433030754443508,B,1034,Incorrect
2,relearn,51,685,A,30.829459837902565,42.675007505548244,1.5414729918951284,0.6703374503565983,A,261,Correct
2,relearn,51,686,A,65.20993385539899,89.33603606906253,3.2604966927699492,1.403287173076998,B,479,Incorrect
2,relearn,51,687,B,75.9471606333139,54.320546348233435,3.797358031665695,0.8532651467329703,A,346,Incorrect
2,relearn,51,688,B,53.422778405108616,31.269228984249317,2.6711389202554305,0.49117590030167335,B,4246,Correct
2,relearn,51,689,A,46.256096413134536,61.164015434296836,2.312804820656727,0.9607621077621984,A,643,Correct
2,relearn,51,690,A,59.00787395403725,74.93466004242306,2.950393697701862,1.1770708874426246,B,529,Incorrect
2,relearn,51,691,B,65.17072756054061,55.442819768717236,3.258536378027031,0.870893776398525,B,3214,Correct
2,relearn,51,692,A,50.296652028317766,57.43708934347197,2.5148326014158884,0.9022196896251609,A,778,Correct
2,relearn,51,693,A,43.75873882690869,51.43058377407002,2.1879369413454346,0.807869720772264,B,489,Incorrect
2,relearn,51,694,B,74.33597196870338,58.88206550511488,3.7167985984351684,0.9249173220953093,A,206,Incorrect
2,relearn,51,695,A,55.85755108880655,72.37234944317451,2.7928775544403277,1.136822206668552,B,234,Incorrect
2,relearn,51,696,B,50.90785564667574,40.34450533378146,2.5453927823337867,0.6337300078466104,B,234,Correct
2,relearn,51,697,B,45.86073731845805,31.220360284338945,2.2930368659229026,0.4904082725585288,A,447,Incorrect
2,relearn,51,698,B,55.34444714648536,35.145620774727156,2.767222357324268,0.5520661201586782,B,36,Correct
2,relearn,51,699,B,59.766192042349715,33.22864173108376,2.9883096021174858,0.5219542837556997,B,270,Correct
2,relearn,51,700,A,47.250711908852026,75.32821321844334,2.3625355954426013,1.1832528062755356,B,285,Incorrect
2,relearn,51,701,B,59.33472553263487,45.51857862899968,2.9667362766317433,0.7150041611135737,B,808,Correct
2,relearn,51,702,B,63.21659840241964,51.66666002283537,3.160829920120982,0.8115779978163054,B,554,Correct
2,relearn,51,703,B,82.95522426815425,68.34478193492475,4.147761213407713,1.0735573241897802,B,619,Correct
2,relearn,51,704,B,35.43896095647521,18.21083615039664,1.7719480478237608,0.28605514532906756,A,617,Incorrect
2,relearn,51,705,B,58.5911496514828,41.94575926589962,2.92955748257414,0.6588824457949811,B,733,Correct
2,relearn,51,706,B,65.99623206716042,47.919702464481205,3.299811603358021,0.7527209261231144,B,826,Correct
2,relearn,51,707,A,37.950528311748194,69.22307460872085,1.8975264155874099,1.087353513248278,A,695,Correct
2,relearn,51,708,B,78.35189952246537,59.90226455881481,3.9175949761232687,0.9409425713568241,B,751,Correct
2,relearn,51,709,B,76.78722796263288,59.948797791988014,3.839361398131644,0.9416735136742478,B,404,Correct
2,relearn,51,710,B,48.40017654499225,19.456501067019637,2.420008827249612,0.3056220040835543,A,701,Incorrect
2,relearn,51,711,A,63.53812578989121,88.51251634785399,3.17690628949456,1.3903513555458227,B,619,Incorrect
2,relearn,51,712,A,47.13103808942928,58.48605734466123,2.3565519044714645,0.9186968404570955,A,489,Correct
2,relearn,51,713,B,81.27805650186966,66.94778800104311,4.063902825093482,1.0516133947908197,A,1069,Incorrect
2,relearn,51,714,A,51.195417710985076,79.49080817819875,2.559770885549254,1.248638695002723,B,464,Incorrect
2,relearn,51,715,B,74.53576483184159,49.35794690276758,3.726788241592079,0.7753128169300486,B,3808,Correct
2,relearn,51,716,A,50.165629766132305,73.90134879265499,2.5082814883066153,1.1608396722869092,A,548,Correct
2,relearn,51,717,A,66.74860257479543,82.38417672386099,3.337430128739771,1.2940876218386244,B,137,Incorrect
2,relearn,51,718,A,38.46357109863462,70.96925867602081,1.9231785549317308,1.1147825084365033,107,80,Incorrect
2,relearn,51,719,B,71.74634185003823,42.11355228214575,3.5873170925019116,0.6615181323307937,A,548,Incorrect
2,relearn,51,720,B,46.006325094943605,35.28556040754503,2.3003162547471803,0.5542642867707117,B,297,Correct
2,relearn,51,721,A,34.145331865052334,54.665366810272424,1.7072665932526165,0.8586815738847158,B,233,Incorrect
2,relearn,51,722,A,59.04057111652301,75.52285774318224,2.9520285558261503,1.186310275320442,A,258,Correct
2,relearn,51,723,B,63.0587486828303,32.29412694610684,3.152937434141515,0.5072749598399271,B,610,Correct
2,relearn,51,724,A,38.790895481400064,63.902486662107854,1.9395447740700034,1.0037779132189888,A,528,Correct
2,relearn,51,725,A,58.70377648218779,85.23694225769925,2.9351888241093893,1.338898758056227,B,404,Incorrect
2,relearn,51,726,A,67.75153789287218,82.90279114951551,3.387576894643609,1.3022339981870343,B,1449,Incorrect
2,relearn,51,727,B,63.36183965062427,49.65454375920619,3.1680919825312133,0.7799717494563754,B,356,Correct
2,relearn,51,728,B,51.916057102075115,33.110322682227235,2.5958028551037557,0.5200957324823628,A,341,Incorrect
2,relearn,51,729,A,45.65883278931935,71.30658276619516,2.2829416394659674,1.1200811828543564,B,329,Incorrect
2,relearn,51,730,A,44.96772088690363,64.62301440079518,2.2483860443451813,1.0150959364718277,B,320,Incorrect
2,relearn,51,731,A,68.19844930177914,82.51960524006645,3.4099224650889566,1.2962149279966129,B,267,Incorrect
2,relearn,51,732,A,15.210531549529094,35.09636209106597,0.7605265774764547,0.5512923665651008,B,257,Incorrect
2,relearn,51,733,A,45.2884835393848,76.14547700904997,2.26442417696924,1.1960903558786091,107,346,Incorrect
2,relearn,51,734,B,53.221187928509515,26.45598308245466,2.661059396425476,0.41556961047667706,107,1020,Correct
2,relearn,51,735,B,63.60842650283789,47.290258575936576,3.1804213251418947,0.7428336446426202,107,259,Correct
2,relearn,51,736,B,72.18714241034147,58.17240072687825,3.6093571205170734,0.9137699338262111,107,25,Correct
2,relearn,51,737,B,59.90548817652263,48.452559607349656,2.995274408826132,0.7610910265503561,107,165,Correct
2,relearn,51,738,B,46.72650249291898,25.199919485974615,2.336325124645949,0.39583940964096065,107,192,Correct
2,relearn,51,739,B,72.64616095765386,42.303744714824035,3.6323080478826935,0.6645056680771462,107,155,Incorrect
2,relearn,51,740,A,43.328311764587205,51.10645515958727,2.16641558822936,0.8027783204018778,107,594,Incorrect
2,relearn,51,741,A,39.736632789809384,52.080208426308445,1.9868316394904693,0.8180740009475793,107,9,Incorrect
2,relearn,51,742,B,81.03791620490561,63.71065285235147,4.051895810245281,1.000764594781785,107,82,Correct
2,relearn,51,743,A,49.55228037520003,71.87791341849598,2.4776140187600015,1.129055623754551,107,53,Incorrect
2,relearn,51,744,A,54.185572860425616,75.6759589843275,2.7092786430212805,1.1887151839926287,100,232,Correct
2,relearn,51,745,A,56.352003955388,74.28204493241115,2.8176001977694,1.1668196332664489,107,178,Incorrect
2,relearn,51,746,B,69.07963639533973,37.34309022661473,3.4539818197669865,0.5865838895913682,107,815,Correct
2,relearn,51,747,A,41.75199594996241,56.82345052150819,2.0875997974981204,0.8925806735499661,107,43,Correct
2,relearn,51,748,A,51.69277694577998,58.748354596893876,2.5846388472889994,0.9228169960604495,100,147,Incorrect
2,relearn,51,749,B,63.225611232251765,50.992009206275256,3.161280561612588,0.8009806075710872,107,175,Correct
2,relearn,51,750,B,39.731241907239905,25.787392166166878,1.9865620953619954,0.4050674089223443,100,42,Incorrect
2,relearn,51,751,B,72.45274780010894,41.76194122632277,3.6226373900054467,0.6559950387813217,100,26,Correct
2,relearn,51,752,B,36.28061482188677,18.20631356493651,1.8140307410943388,0.28598410472278374,107,126,Correct
2,relearn,51,753,B,83.0714013146738,68.12338909666522,4.153570065733691,1.0700796936186123,107,176,Correct
2,relearn,51,754,A,35.13347078169665,45.596954774145686,1.7566735390848325,0.7162352907226106,100,43,Incorrect
2,relearn,51,755,A,38.793704704119726,65.18204421109955,1.9396852352059863,1.0238771561977773,100,165,Incorrect
2,relearn,51,756,A,32.01349179278711,60.40093523626056,1.6006745896393553,0.9487756720409452,107,455,Correct
2,relearn,51,757,A,50.83266909806005,73.08315219543898,2.5416334549030024,1.1479874701918793,100,321,Incorrect
2,relearn,51,758,B,66.859373205922,52.31109575088669,3.3429686602961,0.8217007705610894,107,419,Correct
2,relearn,51,759,B,70.5807173740484,55.43027410928104,3.52903586870242,0.8706967096409289,B,3967,Correct
2,relearn,51,760,A,38.970826362265505,66.00514460754991,1.9485413181132754,1.0368063869910538,A,501,Correct
2,relearn,51,761,A,34.40283809831408,60.832088503837724,1.7201419049157038,0.9555482117309034,107,397,Incorrect
2,relearn,51,762,A,64.12793864610357,77.20887745606038,3.2063969323051786,1.2127942110393695,107,89,Incorrect
2,relearn,51,763,A,23.071753079219985,49.05931543766229,1.1535876539609993,0.770621924845521,107,65,Incorrect
2,relearn,51,764,B,41.29554537615773,23.201433021685904,2.064777268807887,0.36444725766842034,107,61,Correct
2,relearn,51,765,A,60.39422035073503,78.88091069092397,3.0197110175367516,1.2390584476753965,107,709,Incorrect
2,relearn,51,766,A,44.941278250220854,54.37564640084767,2.2470639125110425,0.8541306563354967,B,1099,Incorrect
2,relearn,51,767,B,83.3656646160843,58.18736939185074,4.1682832308042155,0.9140050610657693,B,243,Correct
2,relearn,51,768,A,37.6100520230722,54.7535436701963,1.88050260115361,0.8600666527614831,107,82,Incorrect
2,relearn,51,769,A,45.69740244961047,75.60750978658555,2.2848701224805237,1.187639986508778,107,71,Incorrect
2,relearn,51,770,B,66.97756324061743,54.66617537662605,3.3488781620308714,0.8586942748152981,107,94,Correct
2,relearn,51,771,A,46.82624735302642,54.023093465929605,2.341312367651321,0.8485927677837959,107,51,Incorrect
2,relearn,51,772,A,64.94021006223552,89.01023615235243,3.2470105031117757,1.398169519952615,107,46,Incorrect
2,relearn,51,773,A,45.36125655110162,67.51627878824173,2.268062827555081,1.060543227194303,107,79,Incorrect
2,relearn,51,774,A,16.774088429684014,38.03861067954766,0.8387044214842007,0.5975090993181458,107,90,Incorrect
2,relearn,51,775,B,69.61766468672042,47.21414951453686,3.480883234336021,0.7416381263017954,107,604,Correct
2,relearn,51,776,B,71.02755815871912,46.91753882213604,3.5513779079359558,0.7369789764406824,107,84,Incorrect
2,relearn,51,777,A,34.58726713234293,43.426679963949155,1.7293633566171465,0.6821446937226886,107,179,Incorrect
2,relearn,51,778,B,56.623383908752956,46.66136160238052,2.8311691954376474,0.7329549540826775,107,20,Incorrect
2,relearn,51,779,A,32.81042162116329,42.833245060067,1.6405210810581647,0.6728230400505889,107,71,Incorrect
2,relearn,51,780,B,60.55993564708657,27.47295187190361,3.0279967823543283,0.4315441188659917,107,101,Correct
2,relearn,51,781,A,49.19059737279457,75.4215308384297,2.4595298686397284,1.184718636022534,107,63,Incorrect
2,relearn,51,782,A,49.926072615524845,63.18375568398556,2.496303630776242,0.9924881134151068,107,54,Incorrect
2,relearn,51,783,B,57.696675058479386,43.70950280982089,2.8848337529239694,0.6865872645969786,107,190,Correct
2,relearn,51,784,A,43.62941702917006,63.39796442624047,2.181470851458503,0.9958528964701205,107,243,Incorrect
2,relearn,51,785,A,59.429585715761505,67.57547867794746,2.9714792857880754,1.0614731368872672,107,181,Incorrect
2,relearn,51,786,B,41.714607186236535,19.92706273493263,2.085730359311827,0.31301356947843645,107,12,Correct
2,relearn,51,787,A,32.362298730071686,53.708376398175126,1.6181149365035845,0.8436492036437121,A,3704,Correct
2,relearn,51,788,A,59.39694892098535,78.72383056515454,2.9698474460492674,1.2365910388296855,B,294,Incorrect
2,relearn,51,789,A,54.328595921979115,77.3117277028609,2.716429796098956,1.2144097789382116,107,1552,Incorrect
2,relearn,51,790,B,82.00258350520782,57.32762438387458,4.100129175260391,0.9005002180606773,107,40,Correct
2,relearn,51,791,B,61.74463359830397,54.207027556991186,3.0872316799151984,0.8514819977299148,107,52,Correct
2,relearn,51,792,B,53.073573196040286,40.023529534496056,2.653678659802014,0.6286881317815347,107,6,Correct
2,relearn,51,793,A,31.41257471828766,50.035366269477734,1.5706287359143831,0.7859536954593289,107,12,Incorrect
2,relearn,51,794,A,37.54622649701742,70.25744242042714,1.877311324850871,1.1036013248401089,107,6,Incorrect
2,relearn,51,795,A,48.09378262748375,77.18817235932374,2.4046891313741874,1.2124689761403709,107,166,Incorrect
2,relearn,51,796,A,34.33974520898091,57.50617896596986,1.7169872604490453,0.903304946877554,100,27,Incorrect
2,relearn,51,797,A,50.09922141013395,66.25884542946105,2.5049610705066976,1.0407915101826823,107,9,Correct
2,relearn,51,798,A,21.522576140240105,35.825265096340765,1.0761288070120052,0.5627419481978548,107,65,Correct
2,relearn,51,799,A,28.981414004478648,61.29491516885874,1.4490707002239325,0.9628182759844811,107,61,Correct
2,relearn,51,800,A,17.41204449994362,37.39797517180963,0.870602224997181,0.5874460202944529,100,135,Correct
2,relearn,51,801,B,55.61591381270796,39.5709745146095,2.780795690635398,0.6215794141524307,107,96,Incorrect
2,relearn,51,802,B,42.49609524663377,15.129435184359064,2.1248047623316886,0.23765261214072686,107,68,Incorrect
2,relearn,51,803,A,54.747748545613774,64.58383912223428,2.7373874272806886,1.0144805726351813,100,33,Incorrect
2,relearn,51,804,A,49.71038655182705,59.95203041819563,2.4855193275913523,0.941724291647976,107,111,Incorrect
2,relearn,51,805,A,40.39798025455799,72.47523382103005,2.0198990127278993,1.1384383106967526,107,140,Correct
2,relearn,51,806,B,40.12548494087824,28.749506178225257,2.006274247043912,0.4515961870192342,100,150,Incorrect
2,relearn,51,807,B,85.90219272242886,67.07377074296636,4.295109636121444,1.0535923270733454,107,77,Incorrect
2,relearn,51,808,A,49.77841057936957,57.662704542875986,2.4889205289684786,0.9057636448900899,107,98,Correct
2,relearn,51,809,B,39.89435867795129,14.646229473946502,1.9947179338975645,0.2300624345907032,107,370,Correct
2,relearn,51,810,B,40.54199439972729,27.538712586954695,2.0270997199863645,0.43257708576248816,100,26,Correct
2,relearn,51,811,A,33.5480221892777,66.55341912096746,1.6774011094638852,1.0454186629085693,100,145,Incorrect
2,relearn,51,812,B,41.83336000194386,19.106896842024558,2.091668000097193,0.3001304337590118,100,17,Correct
2,relearn,51,813,A,13.318986268486796,41.227075468599104,0.6659493134243398,0.6475933871057147,A,1161,Correct
2,relearn,51,814,A,31.38632381174967,50.78467930779344,1.5693161905874833,0.7977238771413874,B,1328,Incorrect
2,relearn,51,815,B,86.49386541093729,65.41602309005516,4.324693270546865,1.027552487833888,100,30,Correct
2,relearn,51,816,A,25.35436308978487,50.983740639148614,1.2677181544892435,0.8008507252223833,107,82,Correct
2,relearn,51,817,B,80.49470820638895,61.93163010243842,4.0247354103194475,0.9728197707733052,107,12,Incorrect
2,relearn,51,818,A,60.390362140492556,83.84927523830109,3.019518107024628,1.3171013354873762,107,94,Incorrect
2,relearn,51,819,B,64.61440282576812,38.55402479717269,3.2307201412884066,0.6056052053455822,107,181,Correct
2,relearn,51,820,A,57.458027303620334,81.20853754883746,2.8729013651810167,1.2756207248609932,107,143,Incorrect
2,relearn,51,821,A,13.566609844676535,35.25941954335924,0.6783304922338267,0.5538536670362889,107,72,Incorrect
2,relearn,51,822,A,18.30206785595436,43.62294793717295,0.915103392797718,0.6852276638367628,A,2394,Correct
2,relearn,51,823,A,42.05932166657399,52.7997140748976,2.1029660833287,0.8293759692466997,107,563,Incorrect
2,relearn,51,824,A,18.36564112419788,49.35852733585217,0.9182820562098939,0.7753219343516207,100,4,Incorrect
2,relearn,51,825,A,51.30914768214526,60.961006961974014,2.565457384107263,0.957573258135869,107,48,Correct
2,relearn,51,826,B,36.723217875030166,25.339071992836878,1.8361608937515084,0.39802521210739605,107,121,Incorrect
2,relearn,51,827,A,19.477860116581983,37.836237086441855,0.9738930058290991,0.594330222351237,100,6,Correct
2,relearn,51,828,B,77.52405019227379,58.63986915100772,3.876202509613689,0.9211129106613629,107,190,Incorrect
2,relearn,51,829,B,76.62890551417168,47.94505705745043,3.8314452757085835,0.7531191951381485,B,193,Correct
2,relearn,51,830,A,44.138543240032234,61.0815775015651,2.2069271620016115,0.9594671757429626,B,2657,Incorrect
2,relearn,51,831,B,60.70351646663667,52.448436156984,3.035175823331833,0.823858108615271,B,963,Correct
2,relearn,51,832,A,22.485591333037323,49.55568243380026,1.1242795666518661,0.7784188393882782,A,621,Correct
2,relearn,51,833,A,55.93310416975254,68.57206640164979,2.796655208487627,1.0771275002444722,B,394,Incorrect
2,relearn,51,834,A,37.85288791970933,62.530857600753734,1.8926443959854666,0.9822324143059871,A,769,Correct
2,relearn,51,835,A,45.314677826497636,73.41952551339801,2.265733891324882,1.1532712099146978,A,491,Correct
2,relearn,51,836,A,52.35629049768982,62.26644260778592,2.6178145248844906,0.9780789933089536,A,584,Correct
2,relearn,51,837,B,61.80314206965758,42.48568730727786,3.090157103482879,0.6673636156362861,A,492,Incorrect
2,relearn,51,838,B,49.994446147967935,26.954544832513207,2.4997223073983967,0.42340100013340104,107,113,Correct
2,relearn,51,839,A,51.185393799387484,72.66613926478915,2.5592696899693745,1.1414370463949721,100,52,Incorrect
2,relearn,51,840,A,46.16297671152689,64.39670499098517,2.308148835576344,1.0115410765753408,100,22,Incorrect
2,relearn,51,841,B,45.35184695799043,28.740269676586795,2.2675923478995217,0.4514511003907729,107,1243,Correct
2,relearn,51,842,B,45.096510594902995,16.310603741091292,2.25482552974515,0.25620636444313305,107,292,Correct
2,relearn,51,843,B,30.70796669525002,16.080921319253942,1.5353983347625009,0.25259852139761835,107,108,Correct
2,relearn,51,844,A,21.842756244985782,43.72594273521776,1.092137812249289,0.6868455023412404,107,122,Incorrect
2,relearn,51,845,B,60.66652453503889,43.89118848035467,3.0333262267519445,0.689441176436036,107,77,Correct
2,relearn,51,846,B,50.71497709636103,24.83451883213184,2.5357488548180513,0.3900997095923138,107,118,Correct
2,relearn,51,847,A,25.4311158131084,45.68005376658417,1.2715557906554198,0.717540606643438,107,89,Incorrect
2,relearn,51,848,B,69.06568618507207,42.352568828890895,3.4532843092536036,0.6652725954674985,107,34,Correct
2,relearn,51,849,B,51.12384196057799,42.89357720849577,2.5561920980288995,0.6737707352219845,107,673,Correct
2,relearn,51,850,A,37.56883444467653,54.29787392910086,1.8784417222338265,0.8529090092060401,107,227,Incorrect
2,relearn,51,851,A,55.927312899253295,69.90308855152713,2.796365644962665,1.098035147283572,107,95,Incorrect
2,relearn,51,852,B,51.29362135977961,39.02576085778099,2.56468106798898,0.6130152180577843,107,156,Correct
2,relearn,51,853,A,20.081857524778037,48.69040438096355,1.0040928762389019,0.7648270835177569,107,153,Incorrect
2,relearn,51,854,B,56.025962755189795,48.0547157669818,2.8012981377594897,0.7548417101194782,107,64,Correct
2,relearn,51,855,B,61.071004029207195,37.031641699815744,3.05355020146036,0.5816916675725529,107,48,Correct
2,relearn,51,856,B,86.27290384050451,62.29499162504883,4.313645192025225,0.9785274402234554,107,121,Correct
2,relearn,51,857,B,74.2289130897721,49.548554092373585,3.7114456544886054,0.7783068676629867,107,343,Correct
2,relearn,51,858,B,68.6969503726627,52.66299730124973,3.4348475186331346,0.8272284271881263,107,354,Correct
2,relearn,51,859,B,59.462746068682854,27.739123427803197,2.9731373034341426,0.4357251318890353,107,154,Correct
2,relearn,51,860,A,61.97785489825014,87.97114482777545,3.098892744912507,1.3818475115941153,100,181,Incorrect
2,relearn,51,861,A,38.475086645071876,71.37416478184376,1.923754332253594,1.1211427586737384,100,145,Incorrect
2,relearn,51,862,B,66.35884148086872,51.81052305653221,3.3179420740434358,0.813837793065231,100,48,Incorrect
2,relearn,51,863,B,66.60267849379201,53.727141036632865,3.330133924689601,0.8439439578953426,107,16,Incorrect
2,relearn,51,864,A,43.216365412516545,51.410841290445326,2.1608182706258274,0.8075596065646693,107,145,Incorrect
2,relearn,51,865,A,34.80508298881039,51.65281803655181,1.7402541494405197,0.8113605684042077,107,18,Correct
2,relearn,51,866,B,43.53504278425923,23.135222087217414,2.1767521392129616,0.3634072187418528,100,82,Correct
2,relearn,51,867,B,83.167170466893,65.13197464373349,4.15835852334465,1.023090665272749,100,156,Incorrect
2,relearn,51,868,B,41.71760099819343,28.07950624706603,2.0858800499096715,0.4410718527110567,107,17,Correct
2,relearn,51,869,B,63.06012593041159,39.200656205444076,3.153006296520579,0.6157624677546113,100,156,Correct
2,relearn,51,870,A,32.76927697474345,42.277235460376446,1.6384638487371723,0.6640892616820226,100,43,Incorrect
2,relearn,51,871,B,88.25627422748403,68.50335630640008,4.412813711374201,1.0760482045921527,100,62,Correct
2,relearn,51,872,A,54.64275215432906,72.05683496651521,2.732137607716453,1.1318661168586817,107,262,Correct
2,relearn,51,873,B,63.832327033867486,30.614708441155756,3.1916163516933747,0.4808947156526417,107,86,Correct
2,relearn,51,874,A,13.227882386974997,40.76804988680291,0.6613941193487498,0.6403830301278112,107,142,Incorrect
2,relearn,51,875,B,70.7782741159892,60.43259027045974,3.5389137057994606,0.9492729081553917,107,75,Incorrect
2,relearn,51,876,B,37.9806816110232,11.454433715114448,1.89903408055116,0.17992582405217392,107,86,Correct
2,relearn,51,877,A,53.95090627406174,82.6236949705929,2.6975453137030865,1.297849965660293,107,132,Correct
2,relearn,51,878,A,32.248817457847096,52.05084665319694,1.612440872892355,0.817612787294062,107,97,Correct
2,relearn,51,879,B,67.73165255132777,54.75748210785231,3.386582627566389,0.8601285175955168,107,145,Correct
2,relearn,51,880,B,61.233407329816345,37.05732817783347,3.0616703664908176,0.5820951498257384,100,13,Correct
2,relearn,51,881,A,55.91120112244006,84.2441455949918,2.795560056122003,1.3233039445458759,107,98,Incorrect
2,relearn,51,882,B,69.95797432547634,55.26087919840315,3.4978987162738173,0.8680358606030817,100,101,Correct
2,relearn,51,883,B,64.28399699455329,50.50176265076311,3.2141998497276645,0.7932798326848639,100,91,Incorrect
2,relearn,51,884,B,49.70253776667922,22.54312992961856,2.4851268883339612,0.3541066568790493,100,67,Incorrect
2,relearn,51,885,B,57.5513575631725,30.411280976357723,2.877567878158625,0.47769928450790233,107,3,Incorrect
2,relearn,51,886,A,44.05225388072538,71.79558278882298,2.202612694036269,1.1277623772478205,100,138,Incorrect
2,relearn,51,887,A,53.77687554828971,65.02593236318172,2.688843777414485,1.0214249570249925,107,44,Correct
2,relearn,51,888,B,78.80497293975061,63.834578799457034,3.9402486469875306,1.002711219006865,B,2994,Correct
2,relearn,51,889,B,74.1786429323803,64.18697308785897,3.7089321466190146,1.0082466155449175,B,2349,Correct
2,relearn,51,890,A,18.700829127279253,41.097543637428345,0.9350414563639626,0.6455587058596542,107,270,Incorrect
2,relearn,51,891,A,14.132775554063542,38.27197094525089,0.7066387777031771,0.6011747138000111,107,86,Incorrect
2,relearn,51,892,B,79.76414341620722,51.71911572482373,3.988207170810361,0.812401970056333,107,104,Incorrect
2,relearn,51,893,A,33.95209548617072,45.13861279158618,1.697604774308536,0.709035671696407,107,82,Incorrect
2,relearn,51,894,A,33.78867136512092,59.0856945478907,1.6894335682560462,0.9281159196195196,107,68,Incorrect
2,relearn,51,895,A,22.639530135608865,43.98573641491054,1.1319765067804433,0.6909263319191,107,160,Correct
2,relearn,51,896,A,16.209350916080762,39.80687283821932,0.8104675458040381,0.6252848963546646,107,102,Correct
2,relearn,51,897,B,55.08250946543626,39.57863121880088,2.754125473271813,0.6216996853806224,107,123,Correct
2,relearn,51,898,B,56.259687163089055,29.894057568417928,2.8129843581544525,0.4695747582146606,107,235,Incorrect
